,acc_x,acc_y,acc_z,timestamp,participant,document,val,arou,eng
0,0.0,-16.0,60.0,1644578152.59375,P01,D06,0,0,0
1,-3.0,-15.0,61.0,1644578152.625,P01,D06,0,0,0
2,-3.0,-13.0,59.0,1644578152.65625,P01,D06,0,0,0
3,0.0,-13.0,60.0,1644578152.6875,P01,D06,0,0,0
4,-2.0,-13.0,61.0,1644578152.71875,P01,D06,0,0,0
5,-3.0,-13.0,61.0,1644578152.75,P01,D06,0,0,0
6,-1.0,-14.0,61.0,1644578152.78125,P01,D06,0,0,0
7,0.0,-14.0,61.0,1644578152.8125,P01,D06,0,0,0
8,-2.0,-14.0,61.0,1644578152.84375,P01,D06,0,0,0
9,-1.0,-13.0,60.0,1644578152.875,P01,D06,0,0,0
10,0.0,-13.0,61.0,1644578152.90625,P01,D06,0,0,0
11,-2.0,-14.0,61.0,1644578152.9375,P01,D06,0,0,0
12,-3.0,-13.0,60.0,1644578152.96875,P01,D06,0,0,0
13,-1.0,-14.0,59.0,1644578153.0,P01,D06,0,0,0
14,-6.0,-12.0,58.0,1644578153.03125,P01,D06,0,0,0
15,-11.0,-12.0,55.0,1644578153.0625,P01,D06,0,0,0
16,-2.0,-15.0,54.0,1644578153.09375,P01,D06,0,0,0
17,26.0,-22.0,60.0,1644578153.125,P01,D06,0,0,0
18,31.0,-25.0,59.0,1644578153.15625,P01,D06,0,0,0
19,29.0,-27.0,55.0,1644578153.1875,P01,D06,0,0,0
20,27.0,-27.0,54.0,1644578153.21875,P01,D06,0,0,0
21,17.0,-25.0,56.0,1644578153.25,P01,D06,0,0,0
22,15.0,-24.0,54.0,1644578153.28125,P01,D06,0,0,0
23,17.0,-25.0,54.0,1644578153.3125,P01,D06,0,0,0
24,19.0,-25.0,54.0,1644578153.34375,P01,D06,0,0,0
25,19.0,-25.0,54.0,1644578153.375,P01,D06,0,0,0
26,19.0,-25.0,54.0,1644578153.40625,P01,D06,0,0,0
27,19.0,-25.0,54.0,1644578153.4375,P01,D06,0,0,0
28,20.0,-25.0,54.0,1644578153.46875,P01,D06,0,0,0
29,19.0,-26.0,54.0,1644578153.5,P01,D06,0,0,0
30,18.0,-26.0,53.0,1644578153.53125,P01,D06,0,0,0
31,18.0,-26.0,53.0,1644578153.5625,P01,D06,0,0,0
32,19.0,-26.0,54.0,1644578153.59375,P01,D06,0,0,0
33,19.0,-26.0,53.0,1644578153.625,P01,D06,0,0,0
34,19.0,-26.0,53.0,1644578153.65625,P01,D06,0,0,0
35,19.0,-26.0,53.0,1644578153.6875,P01,D06,0,0,0
36,19.0,-26.0,53.0,1644578153.71875,P01,D06,0,0,0
37,19.0,-26.0,53.0,1644578153.75,P01,D06,0,0,0
38,19.0,-26.0,53.0,1644578153.78125,P01,D06,0,0,0
39,19.0,-26.0,54.0,1644578153.8125,P01,D06,0,0,0
40,19.0,-26.0,54.0,1644578153.84375,P01,D06,0,0,0
41,19.0,-26.0,53.0,1644578153.875,P01,D06,0,0,0
42,19.0,-26.0,54.0,1644578153.90625,P01,D06,0,0,0
43,19.0,-25.0,52.0,1644578153.9375,P01,D06,0,0,0
44,20.0,-27.0,51.0,1644578153.96875,P01,D06,0,0,0
45,21.0,-28.0,58.0,1644578154.0,P01,D06,0,0,0
46,15.0,-23.0,54.0,1644578154.03125,P01,D06,0,0,0
47,18.0,-23.0,54.0,1644578154.0625,P01,D06,0,0,0
48,24.0,-22.0,53.0,1644578154.09375,P01,D06,0,0,0
49,25.0,-21.0,52.0,1644578154.125,P01,D06,0,0,0
50,26.0,-20.0,51.0,1644578154.15625,P01,D06,0,0,0
51,24.0,-20.0,53.0,1644578154.1875,P01,D06,0,0,0
52,22.0,-20.0,54.0,1644578154.21875,P01,D06,0,0,0
53,22.0,-21.0,53.0,1644578154.25,P01,D06,0,0,0
54,23.0,-22.0,54.0,1644578154.28125,P01,D06,0,0,0
55,22.0,-22.0,54.0,1644578154.3125,P01,D06,0,0,0
56,22.0,-22.0,54.0,1644578154.34375,P01,D06,0,0,0
57,23.0,-23.0,54.0,1644578154.375,P01,D06,0,0,0
58,23.0,-23.0,54.0,1644578154.40625,P01,D06,0,0,0
59,22.0,-23.0,54.0,1644578154.4375,P01,D06,0,0,0
60,22.0,-22.0,53.0,1644578154.46875,P01,D06,0,0,0
61,22.0,-22.0,53.0,1644578154.5,P01,D06,0,0,0
62,22.0,-22.0,53.0,1644578154.53125,P01,D06,0,0,0
63,22.0,-24.0,54.0,1644578154.5625,P01,D06,0,0,0
64,22.0,-23.0,54.0,1644578154.59375,P01,D06,0,0,0
65,23.0,-23.0,53.0,1644578154.625,P01,D06,0,0,0
66,23.0,-23.0,53.0,1644578154.65625,P01,D06,0,0,0
67,22.0,-23.0,54.0,1644578154.6875,P01,D06,0,0,0
68,22.0,-22.0,53.0,1644578154.71875,P01,D06,0,0,0
69,23.0,-22.0,54.0,1644578154.75,P01,D06,0,0,0
70,22.0,-22.0,53.0,1644578154.78125,P01,D06,0,0,0
71,22.0,-22.0,54.0,1644578154.8125,P01,D06,0,0,0
72,23.0,-22.0,53.0,1644578154.84375,P01,D06,0,0,0
73,23.0,-22.0,54.0,1644578154.875,P01,D06,0,0,0
74,23.0,-22.0,53.0,1644578154.90625,P01,D06,0,0,0
75,23.0,-22.0,53.0,1644578154.9375,P01,D06,0,0,0
76,23.0,-22.0,53.0,1644578154.96875,P01,D06,0,0,0
77,23.0,-22.0,53.0,1644578155.0,P01,D06,0,0,0
78,23.0,-22.0,53.0,1644578155.03125,P01,D06,0,0,0
79,23.0,-22.0,53.0,1644578155.0625,P01,D06,0,0,0
80,22.0,-22.0,53.0,1644578155.09375,P01,D06,0,0,0
81,22.0,-22.0,54.0,1644578155.125,P01,D06,0,0,0
82,22.0,-22.0,53.0,1644578155.15625,P01,D06,0,0,0
83,23.0,-22.0,53.0,1644578155.1875,P01,D06,0,0,0
84,23.0,-23.0,54.0,1644578155.21875,P01,D06,0,0,0
85,23.0,-22.0,53.0,1644578155.25,P01,D06,0,0,0
86,23.0,-22.0,53.0,1644578155.28125,P01,D06,0,0,0
87,22.0,-22.0,53.0,1644578155.3125,P01,D06,0,0,0
88,22.0,-22.0,53.0,1644578155.34375,P01,D06,0,0,0
89,22.0,-23.0,54.0,1644578155.375,P01,D06,0,0,0
90,22.0,-22.0,53.0,1644578155.40625,P01,D06,0,0,0
91,23.0,-22.0,53.0,1644578155.4375,P01,D06,0,0,0
92,23.0,-23.0,53.0,1644578155.46875,P01,D06,0,0,0
93,23.0,-23.0,53.0,1644578155.5,P01,D06,0,0,0
94,22.0,-22.0,53.0,1644578155.53125,P01,D06,0,0,0
95,22.0,-22.0,53.0,1644578155.5625,P01,D06,0,0,0
96,22.0,-22.0,53.0,1644578155.59375,P01,D06,0,0,0
97,23.0,-22.0,54.0,1644578155.625,P01,D06,0,0,0
98,22.0,-22.0,53.0,1644578155.65625,P01,D06,0,0,0
99,22.0,-22.0,53.0,1644578155.6875,P01,D06,0,0,0
100,23.0,-22.0,54.0,1644578155.71875,P01,D06,0,0,0
101,23.0,-22.0,53.0,1644578155.75,P01,D06,0,0,0
102,23.0,-22.0,53.0,1644578155.78125,P01,D06,0,0,0
103,23.0,-22.0,53.0,1644578155.8125,P01,D06,0,0,0
104,22.0,-23.0,53.0,1644578155.84375,P01,D06,0,0,0
105,22.0,-22.0,53.0,1644578155.875,P01,D06,0,0,0
106,23.0,-23.0,54.0,1644578155.90625,P01,D06,0,0,0
107,22.0,-22.0,53.0,1644578155.9375,P01,D06,0,0,0
108,22.0,-23.0,53.0,1644578155.96875,P01,D06,0,0,0
109,22.0,-22.0,53.0,1644578156.0,P01,D06,0,0,0
110,22.0,-22.0,53.0,1644578156.03125,P01,D06,0,0,0
111,23.0,-22.0,53.0,1644578156.0625,P01,D06,0,0,0
112,23.0,-23.0,53.0,1644578156.09375,P01,D06,0,0,0
113,22.0,-23.0,53.0,1644578156.125,P01,D06,0,0,0
114,23.0,-23.0,53.0,1644578156.15625,P01,D06,0,0,0
115,22.0,-22.0,53.0,1644578156.1875,P01,D06,0,0,0
116,23.0,-23.0,53.0,1644578156.21875,P01,D06,0,0,0
117,23.0,-23.0,53.0,1644578156.25,P01,D06,0,0,0
118,22.0,-22.0,53.0,1644578156.28125,P01,D06,0,0,0
119,23.0,-22.0,53.0,1644578156.3125,P01,D06,0,0,0
120,23.0,-23.0,53.0,1644578156.34375,P01,D06,0,0,0
121,23.0,-23.0,53.0,1644578156.375,P01,D06,0,0,0
122,23.0,-22.0,53.0,1644578156.40625,P01,D06,0,0,0
123,22.0,-23.0,53.0,1644578156.4375,P01,D06,0,0,0
124,22.0,-23.0,53.0,1644578156.46875,P01,D06,0,0,0
125,23.0,-23.0,53.0,1644578156.5,P01,D06,0,0,0
126,22.0,-23.0,53.0,1644578156.53125,P01,D06,0,0,0
127,22.0,-23.0,53.0,1644578156.5625,P01,D06,0,0,0
128,22.0,-23.0,53.0,1644578156.59375,P01,D06,0,0,0
129,23.0,-23.0,53.0,1644578156.625,P01,D06,0,0,0
130,23.0,-23.0,53.0,1644578156.65625,P01,D06,0,0,0
131,23.0,-23.0,53.0,1644578156.6875,P01,D06,0,0,0
132,23.0,-23.0,53.0,1644578156.71875,P01,D06,0,0,0
133,23.0,-23.0,53.0,1644578156.75,P01,D06,0,0,0
134,23.0,-23.0,53.0,1644578156.78125,P01,D06,0,0,0
135,23.0,-23.0,53.0,1644578156.8125,P01,D06,0,0,0
136,23.0,-23.0,53.0,1644578156.84375,P01,D06,0,0,0
137,23.0,-23.0,53.0,1644578156.875,P01,D06,0,0,0
138,23.0,-23.0,53.0,1644578156.90625,P01,D06,0,0,0
139,23.0,-23.0,53.0,1644578156.9375,P01,D06,0,0,0
140,23.0,-23.0,53.0,1644578156.96875,P01,D06,0,0,0
141,23.0,-23.0,53.0,1644578157.0,P01,D06,0,0,0
142,22.0,-23.0,53.0,1644578157.03125,P01,D06,0,0,0
143,22.0,-23.0,53.0,1644578157.0625,P01,D06,0,0,0
144,23.0,-23.0,53.0,1644578157.09375,P01,D06,0,0,0
145,23.0,-23.0,53.0,1644578157.125,P01,D06,0,0,0
146,23.0,-23.0,53.0,1644578157.15625,P01,D06,0,0,0
147,23.0,-23.0,53.0,1644578157.1875,P01,D06,0,0,0
148,22.0,-23.0,53.0,1644578157.21875,P01,D06,0,0,0
149,23.0,-23.0,53.0,1644578157.25,P01,D06,0,0,0
150,23.0,-23.0,53.0,1644578157.28125,P01,D06,0,0,0
151,23.0,-22.0,53.0,1644578157.3125,P01,D06,0,0,0
152,22.0,-22.0,53.0,1644578157.34375,P01,D06,0,0,0
153,22.0,-23.0,53.0,1644578157.375,P01,D06,0,0,0
154,22.0,-23.0,52.0,1644578157.40625,P01,D06,0,0,0
155,24.0,-24.0,53.0,1644578157.4375,P01,D06,0,0,0
156,23.0,-24.0,54.0,1644578157.46875,P01,D06,0,0,0
157,22.0,-24.0,53.0,1644578157.5,P01,D06,0,0,0
158,22.0,-23.0,52.0,1644578157.53125,P01,D06,0,0,0
159,22.0,-24.0,53.0,1644578157.5625,P01,D06,0,0,0
160,23.0,-23.0,52.0,1644578157.59375,P01,D06,0,0,0
161,23.0,-23.0,52.0,1644578157.625,P01,D06,0,0,0
162,23.0,-25.0,54.0,1644578157.65625,P01,D06,0,0,0
163,23.0,-25.0,55.0,1644578157.6875,P01,D06,0,0,0
164,20.0,-23.0,52.0,1644578157.71875,P01,D06,0,0,0
165,22.0,-22.0,51.0,1644578157.75,P01,D06,0,0,0
166,25.0,-20.0,56.0,1644578157.78125,P01,D06,0,0,0
167,26.0,-18.0,55.0,1644578157.8125,P01,D06,0,0,0
168,23.0,-15.0,55.0,1644578157.84375,P01,D06,0,0,0
169,23.0,-14.0,58.0,1644578157.875,P01,D06,0,0,0
170,28.0,-13.0,51.0,1644578157.90625,P01,D06,0,0,0
171,28.0,-16.0,50.0,1644578157.9375,P01,D06,0,0,0
172,32.0,-17.0,54.0,1644578157.96875,P01,D06,0,0,0
173,27.0,-20.0,50.0,1644578158.0,P01,D06,0,0,0
174,28.0,-17.0,50.0,1644578158.03125,P01,D06,0,0,0
175,36.0,-14.0,52.0,1644578158.0625,P01,D06,0,0,0
176,37.0,-14.0,53.0,1644578158.09375,P01,D06,0,0,0
177,31.0,-14.0,54.0,1644578158.125,P01,D06,0,0,0
178,31.0,-17.0,50.0,1644578158.15625,P01,D06,0,0,0
179,35.0,-10.0,50.0,1644578158.1875,P01,D06,0,0,0
180,34.0,-13.0,48.0,1644578158.21875,P01,D06,0,0,0
181,30.0,-14.0,52.0,1644578158.25,P01,D06,0,0,0
182,36.0,-17.0,52.0,1644578158.28125,P01,D06,0,0,0
183,37.0,-16.0,49.0,1644578158.3125,P01,D06,0,0,0
184,33.0,-19.0,46.0,1644578158.34375,P01,D06,0,0,0
185,30.0,-22.0,45.0,1644578158.375,P01,D06,0,0,0
186,31.0,-22.0,45.0,1644578158.40625,P01,D06,0,0,0
187,32.0,-22.0,46.0,1644578158.4375,P01,D06,0,0,0
188,41.0,-19.0,54.0,1644578158.46875,P01,D06,0,0,0
189,45.0,-21.0,56.0,1644578158.5,P01,D06,0,0,0
190,56.0,-23.0,51.0,1644578158.53125,P01,D06,0,0,0
191,53.0,-23.0,48.0,1644578158.5625,P01,D06,0,0,0
192,43.0,-24.0,42.0,1644578158.59375,P01,D06,0,0,0
193,40.0,-20.0,41.0,1644578158.625,P01,D06,0,0,0
194,38.0,-20.0,47.0,1644578158.65625,P01,D06,0,0,0
195,30.0,-21.0,48.0,1644578158.6875,P01,D06,0,0,0
196,26.0,-19.0,49.0,1644578158.71875,P01,D06,0,0,0
197,26.0,-8.0,55.0,1644578158.75,P01,D06,0,0,0
198,33.0,-11.0,58.0,1644578158.78125,P01,D06,0,0,0
199,29.0,-1.0,50.0,1644578158.8125,P01,D06,0,0,0
200,27.0,2.0,48.0,1644578158.84375,P01,D06,0,0,0
201,27.0,0.0,52.0,1644578158.875,P01,D06,0,0,0
202,24.0,5.0,49.0,1644578158.90625,P01,D06,0,0,0
203,33.0,3.0,58.0,1644578158.9375,P01,D06,0,0,0
204,32.0,-1.0,59.0,1644578158.96875,P01,D06,0,0,0
205,21.0,1.0,47.0,1644578159.0,P01,D06,0,0,0
206,13.0,4.0,43.0,1644578159.03125,P01,D06,0,0,0
207,18.0,1.0,45.0,1644578159.0625,P01,D06,0,0,0
208,25.0,1.0,50.0,1644578159.09375,P01,D06,0,0,0
209,40.0,-6.0,60.0,1644578159.125,P01,D06,0,0,0
210,38.0,-5.0,56.0,1644578159.15625,P01,D06,0,0,0
211,36.0,-3.0,53.0,1644578159.1875,P01,D06,0,0,0
212,31.0,-5.0,55.0,1644578159.21875,P01,D06,0,0,0
213,33.0,-9.0,54.0,1644578159.25,P01,D06,0,0,0
214,31.0,-14.0,51.0,1644578159.28125,P01,D06,0,0,0
215,30.0,-15.0,49.0,1644578159.3125,P01,D06,0,0,0
216,30.0,-15.0,49.0,1644578159.34375,P01,D06,0,0,0
217,37.0,-22.0,64.0,1644578159.375,P01,D06,0,0,0
218,35.0,-12.0,66.0,1644578159.40625,P01,D06,0,0,0
219,23.0,-10.0,49.0,1644578159.4375,P01,D06,0,0,0
220,26.0,-11.0,49.0,1644578159.46875,P01,D06,0,0,0
221,35.0,-11.0,54.0,1644578159.5,P01,D06,0,0,0
222,38.0,-8.0,54.0,1644578159.53125,P01,D06,0,0,0
223,34.0,-6.0,54.0,1644578159.5625,P01,D06,0,0,0
224,31.0,-5.0,53.0,1644578159.59375,P01,D06,0,0,0
225,34.0,-10.0,53.0,1644578159.625,P01,D06,0,0,0
226,38.0,-10.0,54.0,1644578159.65625,P01,D06,0,0,0
227,34.0,-9.0,49.0,1644578159.6875,P01,D06,0,0,0
228,29.0,-10.0,49.0,1644578159.71875,P01,D06,0,0,0
229,32.0,-11.0,48.0,1644578159.75,P01,D06,0,0,0
230,44.0,-15.0,49.0,1644578159.78125,P01,D06,0,0,0
231,40.0,-16.0,49.0,1644578159.8125,P01,D06,0,0,0
232,38.0,-14.0,48.0,1644578159.84375,P01,D06,0,0,0
233,34.0,-16.0,48.0,1644578159.875,P01,D06,0,0,0
234,30.0,-15.0,54.0,1644578159.90625,P01,D06,0,0,0
235,30.0,-14.0,51.0,1644578159.9375,P01,D06,0,0,0
236,34.0,-12.0,56.0,1644578159.96875,P01,D06,0,0,0
237,30.0,-8.0,50.0,1644578160.0,P01,D06,0,0,0
238,36.0,-8.0,57.0,1644578160.03125,P01,D06,0,0,0
239,45.0,-21.0,43.0,1644578160.0625,P01,D06,0,0,0
240,52.0,-23.0,46.0,1644578160.09375,P01,D06,0,0,0
241,42.0,-25.0,38.0,1644578160.125,P01,D06,0,0,0
242,29.0,-21.0,40.0,1644578160.15625,P01,D06,0,0,0
243,28.0,-26.0,48.0,1644578160.1875,P01,D06,0,0,0
244,24.0,-24.0,48.0,1644578160.21875,P01,D06,0,0,0
245,30.0,-29.0,51.0,1644578160.25,P01,D06,0,0,0
246,31.0,-29.0,46.0,1644578160.28125,P01,D06,0,0,0
247,42.0,-24.0,48.0,1644578160.3125,P01,D06,0,0,0
248,43.0,-28.0,50.0,1644578160.34375,P01,D06,0,0,0
249,36.0,-23.0,48.0,1644578160.375,P01,D06,0,0,0
250,35.0,-22.0,53.0,1644578160.40625,P01,D06,0,0,0
251,24.0,-27.0,52.0,1644578160.4375,P01,D06,0,0,0
252,13.0,-32.0,42.0,1644578160.46875,P01,D06,0,0,0
253,11.0,-36.0,44.0,1644578160.5,P01,D06,0,0,0
254,12.0,-43.0,36.0,1644578160.53125,P01,D06,0,0,0
255,7.0,-44.0,36.0,1644578160.5625,P01,D06,0,0,0
256,9.0,-47.0,49.0,1644578160.59375,P01,D06,0,0,0
257,6.0,-46.0,56.0,1644578160.625,P01,D06,0,0,0
258,15.0,-47.0,56.0,1644578160.65625,P01,D06,0,0,0
259,22.0,-46.0,57.0,1644578160.6875,P01,D06,0,0,0
260,29.0,-50.0,50.0,1644578160.71875,P01,D06,0,0,0
261,31.0,-48.0,44.0,1644578160.75,P01,D06,0,0,0
262,35.0,-44.0,44.0,1644578160.78125,P01,D06,0,0,0
263,26.0,-39.0,49.0,1644578160.8125,P01,D06,0,0,0
264,30.0,-41.0,49.0,1644578160.84375,P01,D06,0,0,0
265,28.0,-27.0,43.0,1644578160.875,P01,D06,0,0,0
266,17.0,-20.0,36.0,1644578160.90625,P01,D06,0,0,0
267,21.0,-15.0,25.0,1644578160.9375,P01,D06,0,0,0
268,37.0,-10.0,22.0,1644578160.96875,P01,D06,0,0,0
269,53.0,-16.0,42.0,1644578161.0,P01,D06,0,0,0
270,13.0,5.0,32.0,1644578161.03125,P01,D06,0,0,0
271,46.0,-15.0,34.0,1644578161.0625,P01,D06,0,0,0
272,35.0,3.0,49.0,1644578161.09375,P01,D06,0,0,0
273,39.0,-16.0,49.0,1644578161.125,P01,D06,0,0,0
274,29.0,-3.0,38.0,1644578161.15625,P01,D06,0,0,0
275,36.0,-1.0,34.0,1644578161.1875,P01,D06,0,0,0
276,35.0,-1.0,27.0,1644578161.21875,P01,D06,0,0,0
277,34.0,-5.0,17.0,1644578161.25,P01,D06,0,0,0
278,70.0,-8.0,11.0,1644578161.28125,P01,D06,0,0,0
279,81.0,-15.0,13.0,1644578161.3125,P01,D06,0,0,0
280,79.0,-13.0,-1.0,1644578161.34375,P01,D06,0,0,0
281,82.0,-14.0,3.0,1644578161.375,P01,D06,0,0,0
282,55.0,-17.0,3.0,1644578161.40625,P01,D06,0,0,0
283,54.0,-19.0,-6.0,1644578161.4375,P01,D06,0,0,0
284,75.0,-16.0,-14.0,1644578161.46875,P01,D06,0,0,0
285,79.0,-12.0,-13.0,1644578161.5,P01,D06,0,0,0
286,73.0,-13.0,-2.0,1644578161.53125,P01,D06,0,0,0
287,67.0,-13.0,-3.0,1644578161.5625,P01,D06,0,0,0
288,68.0,-13.0,-8.0,1644578161.59375,P01,D06,0,0,0
289,63.0,-15.0,-2.0,1644578161.625,P01,D06,0,0,0
290,63.0,-20.0,2.0,1644578161.65625,P01,D06,0,0,0
291,57.0,-17.0,-6.0,1644578161.6875,P01,D06,0,0,0
292,59.0,-16.0,-6.0,1644578161.71875,P01,D06,0,0,0
293,62.0,-16.0,-6.0,1644578161.75,P01,D06,0,0,0
294,62.0,-15.0,-5.0,1644578161.78125,P01,D06,0,0,0
295,61.0,-15.0,-7.0,1644578161.8125,P01,D06,0,0,0
296,58.0,-14.0,-10.0,1644578161.84375,P01,D06,0,0,0
297,63.0,-14.0,-10.0,1644578161.875,P01,D06,0,0,0
298,62.0,-16.0,-7.0,1644578161.90625,P01,D06,0,0,0
299,58.0,-17.0,-6.0,1644578161.9375,P01,D06,0,0,0
300,58.0,-18.0,-7.0,1644578161.96875,P01,D06,0,0,0
301,60.0,-16.0,-8.0,1644578162.0,P01,D06,0,0,0
302,61.0,-16.0,-2.0,1644578162.03125,P01,D06,0,0,0
303,60.0,-16.0,0.0,1644578162.0625,P01,D06,0,0,0
304,60.0,-12.0,-4.0,1644578162.09375,P01,D06,0,0,0
305,63.0,-12.0,-7.0,1644578162.125,P01,D06,0,0,0
306,60.0,-13.0,-4.0,1644578162.15625,P01,D06,0,0,0
307,63.0,-13.0,-4.0,1644578162.1875,P01,D06,0,0,0
308,63.0,-12.0,-4.0,1644578162.21875,P01,D06,0,0,0
309,58.0,-13.0,-4.0,1644578162.25,P01,D06,0,0,0
310,58.0,-13.0,-5.0,1644578162.28125,P01,D06,0,0,0
311,60.0,-11.0,-9.0,1644578162.3125,P01,D06,0,0,0
312,64.0,-13.0,-7.0,1644578162.34375,P01,D06,0,0,0
313,61.0,-15.0,-6.0,1644578162.375,P01,D06,0,0,0
314,62.0,-14.0,-6.0,1644578162.40625,P01,D06,0,0,0
315,61.0,-15.0,-2.0,1644578162.4375,P01,D06,0,0,0
316,59.0,-15.0,-1.0,1644578162.46875,P01,D06,0,0,0
317,61.0,-14.0,-4.0,1644578162.5,P01,D06,0,0,0
318,63.0,-12.0,-4.0,1644578162.53125,P01,D06,0,0,0
319,60.0,-11.0,-3.0,1644578162.5625,P01,D06,0,0,0
320,59.0,-12.0,-2.0,1644578162.59375,P01,D06,0,0,0
321,59.0,-11.0,-3.0,1644578162.625,P01,D06,0,0,0
322,62.0,-15.0,-1.0,1644578162.65625,P01,D06,0,0,0
323,62.0,-15.0,-1.0,1644578162.6875,P01,D06,0,0,0
324,60.0,-14.0,0.0,1644578162.71875,P01,D06,0,0,0
325,63.0,-14.0,-3.0,1644578162.75,P01,D06,0,0,0
326,69.0,-15.0,-11.0,1644578162.78125,P01,D06,0,0,0
327,75.0,-15.0,-12.0,1644578162.8125,P01,D06,0,0,0
328,66.0,-9.0,3.0,1644578162.84375,P01,D06,0,0,0
329,50.0,-13.0,2.0,1644578162.875,P01,D06,0,0,0
330,54.0,-12.0,2.0,1644578162.90625,P01,D06,0,0,0
331,49.0,-16.0,1.0,1644578162.9375,P01,D06,0,0,0
332,47.0,-15.0,-1.0,1644578162.96875,P01,D06,0,0,0
333,47.0,-20.0,-5.0,1644578163.0,P01,D06,0,0,0
334,47.0,-19.0,-5.0,1644578163.03125,P01,D06,0,0,0
335,62.0,-22.0,-7.0,1644578163.0625,P01,D06,0,0,0
336,74.0,-22.0,-10.0,1644578163.09375,P01,D06,0,0,0
337,81.0,-18.0,-8.0,1644578163.125,P01,D06,0,0,0
338,69.0,-18.0,-6.0,1644578163.15625,P01,D06,0,0,0
339,60.0,-15.0,-5.0,1644578163.1875,P01,D06,0,0,0
340,60.0,-16.0,-5.0,1644578163.21875,P01,D06,0,0,0
341,59.0,-17.0,-2.0,1644578163.25,P01,D06,0,0,0
342,53.0,-17.0,0.0,1644578163.28125,P01,D06,0,0,0
343,55.0,-17.0,-1.0,1644578163.3125,P01,D06,0,0,0
344,60.0,-16.0,-2.0,1644578163.34375,P01,D06,0,0,0
345,62.0,-15.0,-2.0,1644578163.375,P01,D06,0,0,0
346,62.0,-15.0,-1.0,1644578163.40625,P01,D06,0,0,0
347,63.0,-15.0,-2.0,1644578163.4375,P01,D06,0,0,0
348,61.0,-14.0,-2.0,1644578163.46875,P01,D06,0,0,0
349,61.0,-14.0,-3.0,1644578163.5,P01,D06,0,0,0
350,60.0,-14.0,-3.0,1644578163.53125,P01,D06,0,0,0
351,60.0,-14.0,-2.0,1644578163.5625,P01,D06,0,0,0
352,60.0,-14.0,-2.0,1644578163.59375,P01,D06,0,0,0
353,61.0,-14.0,-2.0,1644578163.625,P01,D06,0,0,0
354,60.0,-13.0,-3.0,1644578163.65625,P01,D06,0,0,0
355,62.0,-14.0,-2.0,1644578163.6875,P01,D06,0,0,0
356,61.0,-14.0,-1.0,1644578163.71875,P01,D06,0,0,0
357,60.0,-15.0,-1.0,1644578163.75,P01,D06,0,0,0
358,60.0,-15.0,-1.0,1644578163.78125,P01,D06,0,0,0
359,61.0,-15.0,-1.0,1644578163.8125,P01,D06,0,0,0
360,61.0,-15.0,-1.0,1644578163.84375,P01,D06,0,0,0
361,60.0,-15.0,-2.0,1644578163.875,P01,D06,0,0,0
362,60.0,-15.0,-2.0,1644578163.90625,P01,D06,0,0,0
363,61.0,-15.0,-2.0,1644578163.9375,P01,D06,0,0,0
364,61.0,-15.0,-1.0,1644578163.96875,P01,D06,0,0,0
365,60.0,-15.0,-1.0,1644578164.0,P01,D06,0,0,0
366,60.0,-15.0,-2.0,1644578164.03125,P01,D06,0,0,0
367,61.0,-15.0,-2.0,1644578164.0625,P01,D06,0,0,0
368,60.0,-15.0,-1.0,1644578164.09375,P01,D06,0,0,0
369,60.0,-15.0,-2.0,1644578164.125,P01,D06,0,0,0
370,60.0,-15.0,-2.0,1644578164.15625,P01,D06,0,0,0
371,60.0,-15.0,-2.0,1644578164.1875,P01,D06,0,0,0
372,61.0,-14.0,-1.0,1644578164.21875,P01,D06,0,0,0
373,61.0,-15.0,-2.0,1644578164.25,P01,D06,0,0,0
374,60.0,-14.0,-2.0,1644578164.28125,P01,D06,0,0,0
375,61.0,-14.0,-2.0,1644578164.3125,P01,D06,0,0,0
376,61.0,-14.0,-2.0,1644578164.34375,P01,D06,0,0,0
377,61.0,-15.0,-2.0,1644578164.375,P01,D06,0,0,0
378,61.0,-15.0,-2.0,1644578164.40625,P01,D06,0,0,0
379,60.0,-15.0,-2.0,1644578164.4375,P01,D06,0,0,0
380,60.0,-15.0,-2.0,1644578164.46875,P01,D06,0,0,0
381,60.0,-15.0,-2.0,1644578164.5,P01,D06,0,0,0
382,61.0,-15.0,-2.0,1644578164.53125,P01,D06,0,0,0
383,61.0,-15.0,-2.0,1644578164.5625,P01,D06,0,0,0
384,61.0,-15.0,-2.0,1644578164.59375,P01,D06,0,0,0
385,61.0,-15.0,-2.0,1644578164.625,P01,D06,0,0,0
386,61.0,-14.0,-2.0,1644578164.65625,P01,D06,0,0,0
387,61.0,-14.0,-2.0,1644578164.6875,P01,D06,0,0,0
388,61.0,-14.0,-2.0,1644578164.71875,P01,D06,0,0,0
389,61.0,-14.0,-2.0,1644578164.75,P01,D06,0,0,0
390,61.0,-15.0,-2.0,1644578164.78125,P01,D06,0,0,0
391,60.0,-14.0,-2.0,1644578164.8125,P01,D06,0,0,0
392,61.0,-15.0,-2.0,1644578164.84375,P01,D06,0,0,0
393,60.0,-15.0,-2.0,1644578164.875,P01,D06,0,0,0
394,60.0,-15.0,-2.0,1644578164.90625,P01,D06,0,0,0
395,61.0,-15.0,-2.0,1644578164.9375,P01,D06,0,0,0
396,60.0,-15.0,-2.0,1644578164.96875,P01,D06,0,0,0
397,61.0,-15.0,-2.0,1644578165.0,P01,D06,0,0,0
398,61.0,-14.0,-2.0,1644578165.03125,P01,D06,0,0,0
399,61.0,-14.0,-2.0,1644578165.0625,P01,D06,0,0,0
400,61.0,-14.0,-2.0,1644578165.09375,P01,D06,0,0,0
401,60.0,-14.0,-2.0,1644578165.125,P01,D06,0,0,0
402,61.0,-14.0,-2.0,1644578165.15625,P01,D06,0,0,0
403,61.0,-14.0,-2.0,1644578165.1875,P01,D06,0,0,0
404,61.0,-14.0,-2.0,1644578165.21875,P01,D06,0,0,0
405,61.0,-15.0,-2.0,1644578165.25,P01,D06,0,0,0
406,61.0,-15.0,-2.0,1644578165.28125,P01,D06,0,0,0
407,61.0,-15.0,-2.0,1644578165.3125,P01,D06,0,0,0
408,60.0,-15.0,-2.0,1644578165.34375,P01,D06,0,0,0
409,61.0,-15.0,-2.0,1644578165.375,P01,D06,0,0,0
410,61.0,-14.0,-3.0,1644578165.40625,P01,D06,0,0,0
411,61.0,-15.0,-2.0,1644578165.4375,P01,D06,0,0,0
412,61.0,-14.0,-2.0,1644578165.46875,P01,D06,0,0,0
413,60.0,-14.0,-2.0,1644578165.5,P01,D06,0,0,0
414,61.0,-14.0,-2.0,1644578165.53125,P01,D06,0,0,0
415,60.0,-14.0,-2.0,1644578165.5625,P01,D06,0,0,0
416,61.0,-14.0,-2.0,1644578165.59375,P01,D06,0,0,0
417,61.0,-14.0,-2.0,1644578165.625,P01,D06,0,0,0
418,61.0,-15.0,-2.0,1644578165.65625,P01,D06,0,0,0
419,61.0,-15.0,-2.0,1644578165.6875,P01,D06,0,0,0
420,61.0,-15.0,-2.0,1644578165.71875,P01,D06,0,0,0
421,60.0,-14.0,-2.0,1644578165.75,P01,D06,0,0,0
422,61.0,-14.0,-2.0,1644578165.78125,P01,D06,0,0,0
423,61.0,-15.0,-2.0,1644578165.8125,P01,D06,0,0,0
424,61.0,-14.0,-2.0,1644578165.84375,P01,D06,0,0,0
425,61.0,-14.0,-2.0,1644578165.875,P01,D06,0,0,0
426,61.0,-14.0,-2.0,1644578165.90625,P01,D06,0,0,0
427,61.0,-14.0,-2.0,1644578165.9375,P01,D06,0,0,0
428,61.0,-14.0,-2.0,1644578165.96875,P01,D06,0,0,0
429,61.0,-14.0,-2.0,1644578166.0,P01,D06,0,0,0
430,61.0,-15.0,-2.0,1644578166.03125,P01,D06,0,0,0
431,60.0,-15.0,-2.0,1644578166.0625,P01,D06,0,0,0
432,61.0,-15.0,-2.0,1644578166.09375,P01,D06,0,0,0
433,60.0,-14.0,-2.0,1644578166.125,P01,D06,0,0,0
434,61.0,-14.0,-2.0,1644578166.15625,P01,D06,0,0,0
435,61.0,-14.0,-2.0,1644578166.1875,P01,D06,0,0,0
436,60.0,-14.0,-2.0,1644578166.21875,P01,D06,0,0,0
437,61.0,-15.0,-2.0,1644578166.25,P01,D06,0,0,0
438,61.0,-15.0,-2.0,1644578166.28125,P01,D06,0,0,0
439,61.0,-14.0,-2.0,1644578166.3125,P01,D06,0,0,0
440,61.0,-15.0,-2.0,1644578166.34375,P01,D06,0,0,0
441,61.0,-14.0,-3.0,1644578166.375,P01,D06,0,0,0
442,61.0,-14.0,-2.0,1644578166.40625,P01,D06,0,0,0
443,61.0,-14.0,-2.0,1644578166.4375,P01,D06,0,0,0
444,61.0,-14.0,-2.0,1644578166.46875,P01,D06,0,0,0
445,61.0,-14.0,-2.0,1644578166.5,P01,D06,0,0,0
446,61.0,-14.0,-2.0,1644578166.53125,P01,D06,0,0,0
447,61.0,-14.0,-2.0,1644578166.5625,P01,D06,0,0,0
448,61.0,-14.0,-2.0,1644578166.59375,P01,D06,0,0,0
449,61.0,-14.0,-2.0,1644578166.625,P01,D06,0,0,0
450,61.0,-14.0,-2.0,1644578166.65625,P01,D06,0,0,0
451,60.0,-15.0,-2.0,1644578166.6875,P01,D06,0,0,0
452,61.0,-14.0,-2.0,1644578166.71875,P01,D06,0,0,0
453,61.0,-14.0,-2.0,1644578166.75,P01,D06,0,0,0
454,61.0,-14.0,-2.0,1644578166.78125,P01,D06,0,0,0
455,60.0,-14.0,-2.0,1644578166.8125,P01,D06,0,0,0
456,61.0,-14.0,-2.0,1644578166.84375,P01,D06,0,0,0
457,61.0,-14.0,-2.0,1644578166.875,P01,D06,0,0,0
458,61.0,-14.0,-2.0,1644578166.90625,P01,D06,0,0,0
459,61.0,-14.0,-2.0,1644578166.9375,P01,D06,0,0,0
460,61.0,-14.0,-2.0,1644578166.96875,P01,D06,0,0,0
461,61.0,-14.0,-2.0,1644578167.0,P01,D06,0,0,0
462,61.0,-14.0,-2.0,1644578167.03125,P01,D06,0,0,0
463,61.0,-14.0,-2.0,1644578167.0625,P01,D06,0,0,0
464,61.0,-14.0,-2.0,1644578167.09375,P01,D06,0,0,0
465,61.0,-14.0,-2.0,1644578167.125,P01,D06,0,0,0
466,61.0,-14.0,-2.0,1644578167.15625,P01,D06,0,0,0
467,61.0,-14.0,-2.0,1644578167.1875,P01,D06,0,0,0
468,61.0,-14.0,-2.0,1644578167.21875,P01,D06,0,0,0
469,60.0,-14.0,-2.0,1644578167.25,P01,D06,0,0,0
470,61.0,-14.0,-2.0,1644578167.28125,P01,D06,0,0,0
471,61.0,-15.0,-2.0,1644578167.3125,P01,D06,0,0,0
472,61.0,-15.0,-2.0,1644578167.34375,P01,D06,0,0,0
473,60.0,-15.0,-2.0,1644578167.375,P01,D06,0,0,0
474,61.0,-14.0,-2.0,1644578167.40625,P01,D06,0,0,0
475,60.0,-14.0,-2.0,1644578167.4375,P01,D06,0,0,0
476,61.0,-14.0,-2.0,1644578167.46875,P01,D06,0,0,0
477,61.0,-14.0,-2.0,1644578167.5,P01,D06,0,0,0
478,60.0,-14.0,-2.0,1644578167.53125,P01,D06,0,0,0
479,61.0,-14.0,-2.0,1644578167.5625,P01,D06,0,0,0
480,61.0,-14.0,-2.0,1644578167.59375,P01,D06,0,0,0
481,61.0,-14.0,-2.0,1644578167.625,P01,D06,0,0,0
482,61.0,-14.0,-2.0,1644578167.65625,P01,D06,0,0,0
483,61.0,-15.0,-2.0,1644578167.6875,P01,D06,0,0,0
484,61.0,-14.0,-2.0,1644578167.71875,P01,D06,0,0,0
485,60.0,-14.0,-2.0,1644578167.75,P01,D06,0,0,0
486,61.0,-14.0,-2.0,1644578167.78125,P01,D06,0,0,0
487,61.0,-14.0,-2.0,1644578167.8125,P01,D06,0,0,0
488,61.0,-14.0,-2.0,1644578167.84375,P01,D06,0,0,0
489,61.0,-14.0,-2.0,1644578167.875,P01,D06,0,0,0
490,61.0,-14.0,-2.0,1644578167.90625,P01,D06,0,0,0
491,61.0,-14.0,-2.0,1644578167.9375,P01,D06,0,0,0
492,61.0,-14.0,-2.0,1644578167.96875,P01,D06,0,0,0
493,61.0,-14.0,-2.0,1644578168.0,P01,D06,0,0,0
494,61.0,-14.0,-2.0,1644578168.03125,P01,D06,0,0,0
495,60.0,-14.0,-2.0,1644578168.0625,P01,D06,0,0,0
496,61.0,-14.0,-2.0,1644578168.09375,P01,D06,0,0,0
497,61.0,-14.0,-2.0,1644578168.125,P01,D06,0,0,0
498,61.0,-14.0,-2.0,1644578168.15625,P01,D06,0,0,0
499,61.0,-14.0,-2.0,1644578168.1875,P01,D06,0,0,0
500,61.0,-14.0,-2.0,1644578168.21875,P01,D06,0,0,0
501,61.0,-14.0,-2.0,1644578168.25,P01,D06,0,0,0
502,61.0,-14.0,-2.0,1644578168.28125,P01,D06,0,0,0
503,61.0,-14.0,-2.0,1644578168.3125,P01,D06,0,0,0
504,61.0,-14.0,-2.0,1644578168.34375,P01,D06,0,0,0
505,61.0,-14.0,-2.0,1644578168.375,P01,D06,0,0,0
506,61.0,-14.0,-2.0,1644578168.40625,P01,D06,0,0,0
507,61.0,-14.0,-2.0,1644578168.4375,P01,D06,0,0,0
508,61.0,-14.0,-2.0,1644578168.46875,P01,D06,0,0,0
509,61.0,-14.0,-2.0,1644578168.5,P01,D06,0,0,0
510,61.0,-14.0,-2.0,1644578168.53125,P01,D06,0,0,0
511,61.0,-14.0,-2.0,1644578168.5625,P01,D06,0,0,0
512,61.0,-14.0,-2.0,1644578168.59375,P01,D06,0,0,0
513,61.0,-14.0,-2.0,1644578168.625,P01,D06,0,0,0
514,61.0,-14.0,-2.0,1644578168.65625,P01,D06,0,0,0
515,61.0,-14.0,-2.0,1644578168.6875,P01,D06,0,0,0
516,61.0,-14.0,-2.0,1644578168.71875,P01,D06,0,0,0
517,61.0,-14.0,-2.0,1644578168.75,P01,D06,0,0,0
518,61.0,-14.0,-2.0,1644578168.78125,P01,D06,0,0,0
519,61.0,-14.0,-2.0,1644578168.8125,P01,D06,0,0,0
520,61.0,-14.0,-2.0,1644578168.84375,P01,D06,0,0,0
521,61.0,-14.0,-2.0,1644578168.875,P01,D06,0,0,0
522,61.0,-14.0,-2.0,1644578168.90625,P01,D06,0,0,0
523,61.0,-14.0,-2.0,1644578168.9375,P01,D06,0,0,0
524,61.0,-14.0,-2.0,1644578168.96875,P01,D06,0,0,0
525,61.0,-14.0,-2.0,1644578169.0,P01,D06,0,0,0
526,61.0,-14.0,-2.0,1644578169.03125,P01,D06,0,0,0
527,60.0,-14.0,-2.0,1644578169.0625,P01,D06,0,0,0
528,61.0,-14.0,-2.0,1644578169.09375,P01,D06,0,0,0
529,61.0,-14.0,-2.0,1644578169.125,P01,D06,0,0,0
530,61.0,-14.0,-2.0,1644578169.15625,P01,D06,0,0,0
531,61.0,-14.0,-2.0,1644578169.1875,P01,D06,0,0,0
532,61.0,-14.0,-2.0,1644578169.21875,P01,D06,0,0,0
533,61.0,-14.0,-2.0,1644578169.25,P01,D06,0,0,0
534,61.0,-14.0,-2.0,1644578169.28125,P01,D06,0,0,0
535,61.0,-14.0,-2.0,1644578169.3125,P01,D06,0,0,0
536,61.0,-14.0,-2.0,1644578169.34375,P01,D06,0,0,0
537,61.0,-14.0,-2.0,1644578169.375,P01,D06,0,0,0
538,61.0,-14.0,-2.0,1644578169.40625,P01,D06,0,0,0
539,61.0,-14.0,-2.0,1644578169.4375,P01,D06,0,0,0
540,60.0,-15.0,-2.0,1644578169.46875,P01,D06,0,0,0
541,61.0,-15.0,-2.0,1644578169.5,P01,D06,0,0,0
542,61.0,-14.0,-2.0,1644578169.53125,P01,D06,0,0,0
543,61.0,-14.0,-2.0,1644578169.5625,P01,D06,0,0,0
544,61.0,-14.0,-2.0,1644578169.59375,P01,D06,0,0,0
545,61.0,-14.0,-2.0,1644578169.625,P01,D06,0,0,0
546,61.0,-14.0,-2.0,1644578169.65625,P01,D06,0,0,0
547,61.0,-14.0,-2.0,1644578169.6875,P01,D06,0,0,0
548,61.0,-14.0,-2.0,1644578169.71875,P01,D06,0,0,0
549,61.0,-14.0,-2.0,1644578169.75,P01,D06,0,0,0
550,61.0,-14.0,-2.0,1644578169.78125,P01,D06,0,0,0
551,61.0,-14.0,-2.0,1644578169.8125,P01,D06,0,0,0
552,61.0,-14.0,-2.0,1644578169.84375,P01,D06,0,0,0
553,61.0,-14.0,-2.0,1644578169.875,P01,D06,0,0,0
554,61.0,-14.0,-2.0,1644578169.90625,P01,D06,0,0,0
555,60.0,-14.0,-2.0,1644578169.9375,P01,D06,0,0,0
556,61.0,-14.0,-2.0,1644578169.96875,P01,D06,0,0,0
557,61.0,-14.0,-2.0,1644578170.0,P01,D06,0,0,0
558,61.0,-14.0,-2.0,1644578170.03125,P01,D06,0,0,0
559,61.0,-14.0,-2.0,1644578170.0625,P01,D06,0,0,0
560,61.0,-14.0,-2.0,1644578170.09375,P01,D06,0,0,0
561,61.0,-14.0,-2.0,1644578170.125,P01,D06,0,0,0
562,61.0,-14.0,-2.0,1644578170.15625,P01,D06,0,0,0
563,61.0,-14.0,-2.0,1644578170.1875,P01,D06,0,0,0
564,61.0,-14.0,-2.0,1644578170.21875,P01,D06,0,0,0
565,60.0,-14.0,-2.0,1644578170.25,P01,D06,0,0,0
566,61.0,-14.0,-2.0,1644578170.28125,P01,D06,0,0,0
567,61.0,-14.0,-2.0,1644578170.3125,P01,D06,0,0,0
568,61.0,-14.0,-2.0,1644578170.34375,P01,D06,0,0,0
569,61.0,-14.0,-2.0,1644578170.375,P01,D06,0,0,0
570,61.0,-14.0,-2.0,1644578170.40625,P01,D06,0,0,0
571,61.0,-14.0,-2.0,1644578170.4375,P01,D06,0,0,0
572,61.0,-14.0,-2.0,1644578170.46875,P01,D06,0,0,0
573,61.0,-14.0,-2.0,1644578170.5,P01,D06,0,0,0
574,61.0,-14.0,-2.0,1644578170.53125,P01,D06,0,0,0
575,61.0,-14.0,-2.0,1644578170.5625,P01,D06,0,0,0
576,61.0,-14.0,-2.0,1644578170.59375,P01,D06,0,0,0
577,61.0,-14.0,-2.0,1644578170.625,P01,D06,0,0,0
578,61.0,-14.0,-2.0,1644578170.65625,P01,D06,0,0,0
579,61.0,-14.0,-2.0,1644578170.6875,P01,D06,0,0,0
580,61.0,-14.0,-2.0,1644578170.71875,P01,D06,0,0,0
581,61.0,-14.0,-2.0,1644578170.75,P01,D06,0,0,0
582,61.0,-14.0,-2.0,1644578170.78125,P01,D06,0,0,0
583,61.0,-14.0,-2.0,1644578170.8125,P01,D06,0,0,0
584,60.0,-14.0,-2.0,1644578170.84375,P01,D06,0,0,0
585,61.0,-14.0,-2.0,1644578170.875,P01,D06,0,0,0
586,61.0,-14.0,-2.0,1644578170.90625,P01,D06,0,0,0
587,61.0,-14.0,-2.0,1644578170.9375,P01,D06,0,0,0
588,61.0,-14.0,-2.0,1644578170.96875,P01,D06,0,0,0
589,61.0,-14.0,-2.0,1644578171.0,P01,D06,0,0,0
590,61.0,-14.0,-2.0,1644578171.03125,P01,D06,0,0,0
591,61.0,-14.0,-2.0,1644578171.0625,P01,D06,0,0,0
592,61.0,-14.0,-2.0,1644578171.09375,P01,D06,0,0,0
593,61.0,-14.0,-2.0,1644578171.125,P01,D06,0,0,0
594,61.0,-14.0,-2.0,1644578171.15625,P01,D06,0,0,0
595,61.0,-14.0,-2.0,1644578171.1875,P01,D06,0,0,0
596,61.0,-14.0,-2.0,1644578171.21875,P01,D06,0,0,0
597,61.0,-14.0,-2.0,1644578171.25,P01,D06,0,0,0
598,61.0,-14.0,-2.0,1644578171.28125,P01,D06,0,0,0
599,61.0,-14.0,-2.0,1644578171.3125,P01,D06,0,0,0
600,61.0,-14.0,-2.0,1644578171.34375,P01,D06,0,0,0
601,61.0,-14.0,-2.0,1644578171.375,P01,D06,0,0,0
602,61.0,-14.0,-2.0,1644578171.40625,P01,D06,0,0,0
603,61.0,-14.0,-2.0,1644578171.4375,P01,D06,0,0,0
604,61.0,-14.0,-2.0,1644578171.46875,P01,D06,0,0,0
605,61.0,-14.0,-2.0,1644578171.5,P01,D06,0,0,0
606,61.0,-14.0,-2.0,1644578171.53125,P01,D06,0,0,0
607,61.0,-14.0,-2.0,1644578171.5625,P01,D06,0,0,0
608,61.0,-14.0,-2.0,1644578171.59375,P01,D06,0,0,0
609,61.0,-14.0,-2.0,1644578171.625,P01,D06,0,0,0
610,61.0,-14.0,-2.0,1644578171.65625,P01,D06,0,0,0
611,61.0,-14.0,-2.0,1644578171.6875,P01,D06,0,0,0
612,61.0,-14.0,-2.0,1644578171.71875,P01,D06,0,0,0
613,61.0,-14.0,-2.0,1644578171.75,P01,D06,0,0,0
614,61.0,-14.0,-2.0,1644578171.78125,P01,D06,0,0,0
615,61.0,-14.0,-2.0,1644578171.8125,P01,D06,0,0,0
616,61.0,-14.0,-2.0,1644578171.84375,P01,D06,0,0,0
617,61.0,-14.0,-2.0,1644578171.875,P01,D06,0,0,0
618,61.0,-14.0,-2.0,1644578171.90625,P01,D06,0,0,0
619,61.0,-14.0,-2.0,1644578171.9375,P01,D06,0,0,0
620,61.0,-14.0,-2.0,1644578171.96875,P01,D06,0,0,0
621,61.0,-14.0,-2.0,1644578172.0,P01,D06,0,0,0
622,61.0,-14.0,-2.0,1644578172.03125,P01,D06,0,0,0
623,61.0,-14.0,-2.0,1644578172.0625,P01,D06,0,0,0
624,61.0,-14.0,-2.0,1644578172.09375,P01,D06,0,0,0
625,61.0,-14.0,-2.0,1644578172.125,P01,D06,0,0,0
626,61.0,-14.0,-2.0,1644578172.15625,P01,D06,0,0,0
627,61.0,-14.0,-2.0,1644578172.1875,P01,D06,0,0,0
628,61.0,-14.0,-2.0,1644578172.21875,P01,D06,0,0,0
629,61.0,-14.0,-2.0,1644578172.25,P01,D06,0,0,0
630,61.0,-14.0,-2.0,1644578172.28125,P01,D06,0,0,0
631,61.0,-14.0,-2.0,1644578172.3125,P01,D06,0,0,0
632,61.0,-14.0,-2.0,1644578172.34375,P01,D06,0,0,0
633,61.0,-14.0,-2.0,1644578172.375,P01,D06,0,0,0
634,61.0,-14.0,-2.0,1644578172.40625,P01,D06,0,0,0
635,61.0,-14.0,-2.0,1644578172.4375,P01,D06,0,0,0
636,61.0,-14.0,-2.0,1644578172.46875,P01,D06,0,0,0
637,61.0,-14.0,-2.0,1644578172.5,P01,D06,0,0,0
638,60.0,-14.0,-2.0,1644578172.53125,P01,D06,0,0,0
639,61.0,-14.0,-2.0,1644578172.5625,P01,D06,0,0,0
640,61.0,-14.0,-2.0,1644578172.59375,P01,D06,0,0,0
641,61.0,-14.0,-2.0,1644578172.625,P01,D06,0,0,0
642,61.0,-14.0,-2.0,1644578172.65625,P01,D06,0,0,0
643,61.0,-14.0,-2.0,1644578172.6875,P01,D06,0,0,0
644,60.0,-14.0,-2.0,1644578172.71875,P01,D06,0,0,0
645,61.0,-14.0,-2.0,1644578172.75,P01,D06,0,0,0
646,61.0,-14.0,-2.0,1644578172.78125,P01,D06,0,0,0
647,61.0,-14.0,-2.0,1644578172.8125,P01,D06,0,0,0
648,61.0,-14.0,-2.0,1644578172.84375,P01,D06,0,0,0
649,61.0,-14.0,-2.0,1644578172.875,P01,D06,0,0,0
650,61.0,-14.0,-2.0,1644578172.90625,P01,D06,0,0,0
651,61.0,-14.0,-2.0,1644578172.9375,P01,D06,0,0,0
652,61.0,-14.0,-2.0,1644578172.96875,P01,D06,0,0,0
653,61.0,-14.0,-2.0,1644578173.0,P01,D06,0,0,0
654,61.0,-14.0,-2.0,1644578173.03125,P01,D06,0,0,0
655,61.0,-14.0,-2.0,1644578173.0625,P01,D06,0,0,0
656,61.0,-14.0,-2.0,1644578173.09375,P01,D06,0,0,0
657,61.0,-14.0,-2.0,1644578173.125,P01,D06,0,0,0
658,61.0,-14.0,-2.0,1644578173.15625,P01,D06,0,0,0
659,61.0,-14.0,-2.0,1644578173.1875,P01,D06,0,0,0
660,61.0,-14.0,-2.0,1644578173.21875,P01,D06,0,0,0
661,61.0,-14.0,-2.0,1644578173.25,P01,D06,0,0,0
662,61.0,-14.0,-2.0,1644578173.28125,P01,D06,0,0,0
663,61.0,-14.0,-2.0,1644578173.3125,P01,D06,0,0,0
664,61.0,-14.0,-2.0,1644578173.34375,P01,D06,0,0,0
665,61.0,-14.0,-2.0,1644578173.375,P01,D06,0,0,0
666,61.0,-14.0,-2.0,1644578173.40625,P01,D06,0,0,0
667,61.0,-14.0,-2.0,1644578173.4375,P01,D06,0,0,0
668,61.0,-14.0,-2.0,1644578173.46875,P01,D06,0,0,0
669,61.0,-14.0,-2.0,1644578173.5,P01,D06,0,0,0
670,61.0,-14.0,-2.0,1644578173.53125,P01,D06,0,0,0
671,61.0,-14.0,-2.0,1644578173.5625,P01,D06,0,0,0
672,61.0,-14.0,-2.0,1644578173.59375,P01,D06,0,0,0
673,61.0,-14.0,-2.0,1644578173.625,P01,D06,0,0,0
674,61.0,-14.0,-2.0,1644578173.65625,P01,D06,0,0,0
675,61.0,-14.0,-2.0,1644578173.6875,P01,D06,0,0,0
676,61.0,-14.0,-2.0,1644578173.71875,P01,D06,0,0,0
677,61.0,-14.0,-2.0,1644578173.75,P01,D06,0,0,0
678,61.0,-14.0,-2.0,1644578173.78125,P01,D06,0,0,0
679,61.0,-14.0,-2.0,1644578173.8125,P01,D06,0,0,0
680,61.0,-14.0,-2.0,1644578173.84375,P01,D06,0,0,0
681,61.0,-14.0,-2.0,1644578173.875,P01,D06,0,0,0
682,61.0,-14.0,-2.0,1644578173.90625,P01,D06,0,0,0
683,61.0,-14.0,-2.0,1644578173.9375,P01,D06,0,0,0
684,61.0,-14.0,-2.0,1644578173.96875,P01,D06,0,0,0
685,61.0,-14.0,-2.0,1644578174.0,P01,D06,0,0,0
686,61.0,-14.0,-2.0,1644578174.03125,P01,D06,0,0,0
687,61.0,-14.0,-2.0,1644578174.0625,P01,D06,0,0,0
688,61.0,-14.0,-2.0,1644578174.09375,P01,D06,0,0,0
689,61.0,-14.0,-2.0,1644578174.125,P01,D06,0,0,0
690,61.0,-14.0,-2.0,1644578174.15625,P01,D06,0,0,0
691,61.0,-14.0,-2.0,1644578174.1875,P01,D06,0,0,0
692,61.0,-14.0,-2.0,1644578174.21875,P01,D06,0,0,0
693,61.0,-14.0,-2.0,1644578174.25,P01,D06,0,0,0
694,61.0,-14.0,-2.0,1644578174.28125,P01,D06,0,0,0
695,61.0,-14.0,-2.0,1644578174.3125,P01,D06,0,0,0
696,61.0,-14.0,-2.0,1644578174.34375,P01,D06,0,0,0
697,61.0,-14.0,-2.0,1644578174.375,P01,D06,0,0,0
698,61.0,-14.0,-2.0,1644578174.40625,P01,D06,0,0,0
699,61.0,-14.0,-2.0,1644578174.4375,P01,D06,0,0,0
700,61.0,-14.0,-2.0,1644578174.46875,P01,D06,0,0,0
701,61.0,-14.0,-2.0,1644578174.5,P01,D06,0,0,0
702,61.0,-14.0,-2.0,1644578174.53125,P01,D06,0,0,0
703,61.0,-14.0,-2.0,1644578174.5625,P01,D06,0,0,0
704,61.0,-14.0,-2.0,1644578174.59375,P01,D06,0,0,0
705,61.0,-14.0,-2.0,1644578174.625,P01,D06,0,0,0
706,61.0,-14.0,-2.0,1644578174.65625,P01,D06,0,0,0
707,61.0,-14.0,-2.0,1644578174.6875,P01,D06,0,0,0
708,61.0,-14.0,-2.0,1644578174.71875,P01,D06,0,0,0
709,61.0,-14.0,-2.0,1644578174.75,P01,D06,0,0,0
710,61.0,-14.0,-2.0,1644578174.78125,P01,D06,0,0,0
711,61.0,-14.0,-2.0,1644578174.8125,P01,D06,0,0,0
712,61.0,-14.0,-2.0,1644578174.84375,P01,D06,0,0,0
713,61.0,-14.0,-2.0,1644578174.875,P01,D06,0,0,0
714,61.0,-14.0,-2.0,1644578174.90625,P01,D06,0,0,0
715,61.0,-14.0,-2.0,1644578174.9375,P01,D06,0,0,0
716,61.0,-14.0,-2.0,1644578174.96875,P01,D06,0,0,0
717,61.0,-14.0,-2.0,1644578175.0,P01,D06,0,0,0
718,61.0,-14.0,-2.0,1644578175.03125,P01,D06,0,0,0
719,61.0,-14.0,-2.0,1644578175.0625,P01,D06,0,0,0
720,61.0,-14.0,-2.0,1644578175.09375,P01,D06,0,0,0
721,61.0,-14.0,-2.0,1644578175.125,P01,D06,0,0,0
722,61.0,-14.0,-2.0,1644578175.15625,P01,D06,0,0,0
723,61.0,-14.0,-2.0,1644578175.1875,P01,D06,0,0,0
724,61.0,-14.0,-2.0,1644578175.21875,P01,D06,0,0,0
725,61.0,-14.0,-2.0,1644578175.25,P01,D06,0,0,0
726,61.0,-14.0,-2.0,1644578175.28125,P01,D06,0,0,0
727,61.0,-14.0,-2.0,1644578175.3125,P01,D06,0,0,0
728,61.0,-14.0,-2.0,1644578175.34375,P01,D06,0,0,0
729,61.0,-14.0,-2.0,1644578175.375,P01,D06,0,0,0
730,61.0,-14.0,-2.0,1644578175.40625,P01,D06,0,0,0
731,61.0,-14.0,-2.0,1644578175.4375,P01,D06,0,0,0
732,61.0,-14.0,-2.0,1644578175.46875,P01,D06,0,0,0
733,61.0,-14.0,-2.0,1644578175.5,P01,D06,0,0,0
734,61.0,-14.0,-2.0,1644578175.53125,P01,D06,0,0,0
735,61.0,-14.0,-2.0,1644578175.5625,P01,D06,0,0,0
736,61.0,-14.0,-2.0,1644578175.59375,P01,D06,0,0,0
737,61.0,-14.0,-2.0,1644578175.625,P01,D06,0,0,0
738,61.0,-14.0,-2.0,1644578175.65625,P01,D06,0,0,0
739,61.0,-14.0,-2.0,1644578175.6875,P01,D06,0,0,0
740,61.0,-14.0,-2.0,1644578175.71875,P01,D06,0,0,0
741,61.0,-14.0,-2.0,1644578175.75,P01,D06,0,0,0
742,61.0,-14.0,-2.0,1644578175.78125,P01,D06,0,0,0
743,61.0,-14.0,-2.0,1644578175.8125,P01,D06,0,0,0
744,61.0,-14.0,-2.0,1644578175.84375,P01,D06,0,0,0
745,61.0,-14.0,-2.0,1644578175.875,P01,D06,0,0,0
746,61.0,-14.0,-2.0,1644578175.90625,P01,D06,0,0,0
747,61.0,-14.0,-2.0,1644578175.9375,P01,D06,0,0,0
748,61.0,-14.0,-2.0,1644578175.96875,P01,D06,0,0,0
749,61.0,-14.0,-2.0,1644578176.0,P01,D06,0,0,0
750,61.0,-14.0,-2.0,1644578176.03125,P01,D06,0,0,0
751,61.0,-14.0,-2.0,1644578176.0625,P01,D06,0,0,0
752,61.0,-14.0,-2.0,1644578176.09375,P01,D06,0,0,0
753,61.0,-14.0,-2.0,1644578176.125,P01,D06,0,0,0
754,61.0,-14.0,-2.0,1644578176.15625,P01,D06,0,0,0
755,61.0,-14.0,-2.0,1644578176.1875,P01,D06,0,0,0
756,61.0,-14.0,-2.0,1644578176.21875,P01,D06,0,0,0
757,60.0,-14.0,-2.0,1644578176.25,P01,D06,0,0,0
758,61.0,-14.0,-2.0,1644578176.28125,P01,D06,0,0,0
759,61.0,-14.0,-2.0,1644578176.3125,P01,D06,0,0,0
760,61.0,-14.0,-2.0,1644578176.34375,P01,D06,0,0,0
761,61.0,-14.0,-2.0,1644578176.375,P01,D06,0,0,0
762,61.0,-14.0,-2.0,1644578176.40625,P01,D06,0,0,0
763,61.0,-14.0,-2.0,1644578176.4375,P01,D06,0,0,0
764,61.0,-14.0,-2.0,1644578176.46875,P01,D06,0,0,0
765,61.0,-14.0,-2.0,1644578176.5,P01,D06,0,0,0
766,61.0,-14.0,-2.0,1644578176.53125,P01,D06,0,0,0
767,61.0,-14.0,-2.0,1644578176.5625,P01,D06,0,0,0
768,61.0,-14.0,-2.0,1644578176.59375,P01,D06,0,0,0
769,61.0,-14.0,-2.0,1644578176.625,P01,D06,0,0,0
770,61.0,-14.0,-2.0,1644578176.65625,P01,D06,0,0,0
771,61.0,-14.0,-2.0,1644578176.6875,P01,D06,0,0,0
772,61.0,-14.0,-2.0,1644578176.71875,P01,D06,0,0,0
773,61.0,-14.0,-2.0,1644578176.75,P01,D06,0,0,0
774,61.0,-14.0,-2.0,1644578176.78125,P01,D06,0,0,0
775,61.0,-14.0,-2.0,1644578176.8125,P01,D06,0,0,0
776,61.0,-14.0,-2.0,1644578176.84375,P01,D06,0,0,0
777,61.0,-14.0,-2.0,1644578176.875,P01,D06,0,0,0
778,61.0,-14.0,-2.0,1644578176.90625,P01,D06,0,0,0
779,61.0,-14.0,-2.0,1644578176.9375,P01,D06,0,0,0
780,61.0,-14.0,-2.0,1644578176.96875,P01,D06,0,0,0
781,61.0,-14.0,-2.0,1644578177.0,P01,D06,0,0,0
782,61.0,-14.0,-2.0,1644578177.03125,P01,D06,0,0,0
783,61.0,-14.0,-2.0,1644578177.0625,P01,D06,0,0,0
784,61.0,-14.0,-2.0,1644578177.09375,P01,D06,0,0,0
785,61.0,-14.0,-2.0,1644578177.125,P01,D06,0,0,0
786,61.0,-14.0,-2.0,1644578177.15625,P01,D06,0,0,0
787,61.0,-14.0,-2.0,1644578177.1875,P01,D06,0,0,0
788,61.0,-14.0,-2.0,1644578177.21875,P01,D06,0,0,0
789,61.0,-14.0,-2.0,1644578177.25,P01,D06,0,0,0
790,61.0,-14.0,-2.0,1644578177.28125,P01,D06,0,0,0
791,61.0,-14.0,-2.0,1644578177.3125,P01,D06,0,0,0
792,61.0,-14.0,-2.0,1644578177.34375,P01,D06,0,0,0
793,61.0,-14.0,-2.0,1644578177.375,P01,D06,0,0,0
794,61.0,-14.0,-2.0,1644578177.40625,P01,D06,0,0,0
795,61.0,-14.0,-2.0,1644578177.4375,P01,D06,0,0,0
796,61.0,-14.0,-2.0,1644578177.46875,P01,D06,0,0,0
797,61.0,-14.0,-2.0,1644578177.5,P01,D06,0,0,0
798,61.0,-14.0,-2.0,1644578177.53125,P01,D06,0,0,0
799,61.0,-14.0,-2.0,1644578177.5625,P01,D06,0,0,0
800,61.0,-14.0,-2.0,1644578177.59375,P01,D06,0,0,0
801,61.0,-14.0,-2.0,1644578177.625,P01,D06,0,0,0
802,61.0,-14.0,-2.0,1644578177.65625,P01,D06,0,0,0
803,61.0,-14.0,-2.0,1644578177.6875,P01,D06,0,0,0
804,61.0,-14.0,-2.0,1644578177.71875,P01,D06,0,0,0
805,61.0,-14.0,-2.0,1644578177.75,P01,D06,0,0,0
806,61.0,-14.0,-2.0,1644578177.78125,P01,D06,0,0,0
807,61.0,-14.0,-2.0,1644578177.8125,P01,D06,0,0,0
808,61.0,-14.0,-2.0,1644578177.84375,P01,D06,0,0,0
809,61.0,-14.0,-2.0,1644578177.875,P01,D06,0,0,0
810,61.0,-14.0,-2.0,1644578177.90625,P01,D06,0,0,0
811,61.0,-14.0,-2.0,1644578177.9375,P01,D06,0,0,0
812,61.0,-14.0,-2.0,1644578177.96875,P01,D06,0,0,0
813,61.0,-14.0,-2.0,1644578178.0,P01,D06,0,0,0
814,61.0,-14.0,-2.0,1644578178.03125,P01,D06,0,0,0
815,61.0,-14.0,-2.0,1644578178.0625,P01,D06,0,0,0
816,61.0,-14.0,-2.0,1644578178.09375,P01,D06,0,0,0
817,61.0,-14.0,-2.0,1644578178.125,P01,D06,0,0,0
818,61.0,-14.0,-2.0,1644578178.15625,P01,D06,0,0,0
819,61.0,-14.0,-2.0,1644578178.1875,P01,D06,0,0,0
820,61.0,-14.0,-2.0,1644578178.21875,P01,D06,0,0,0
821,61.0,-14.0,-2.0,1644578178.25,P01,D06,0,0,0
822,61.0,-14.0,-2.0,1644578178.28125,P01,D06,0,0,0
823,61.0,-14.0,-2.0,1644578178.3125,P01,D06,0,0,0
824,61.0,-14.0,-2.0,1644578178.34375,P01,D06,0,0,0
825,61.0,-14.0,-2.0,1644578178.375,P01,D06,0,0,0
826,61.0,-14.0,-2.0,1644578178.40625,P01,D06,0,0,0
827,61.0,-14.0,-2.0,1644578178.4375,P01,D06,0,0,0
828,61.0,-14.0,-2.0,1644578178.46875,P01,D06,0,0,0
829,61.0,-14.0,-2.0,1644578178.5,P01,D06,0,0,0
830,61.0,-14.0,-2.0,1644578178.53125,P01,D06,0,0,0
831,61.0,-14.0,-2.0,1644578178.5625,P01,D06,0,0,0
832,61.0,-14.0,-2.0,1644578178.59375,P01,D06,0,0,0
833,61.0,-14.0,-2.0,1644578178.625,P01,D06,0,0,0
834,61.0,-14.0,-2.0,1644578178.65625,P01,D06,0,0,0
835,61.0,-14.0,-2.0,1644578178.6875,P01,D06,0,0,0
836,60.0,-14.0,-2.0,1644578178.71875,P01,D06,0,0,0
837,61.0,-14.0,-2.0,1644578178.75,P01,D06,0,0,0
838,61.0,-14.0,-2.0,1644578178.78125,P01,D06,0,0,0
839,61.0,-14.0,-2.0,1644578178.8125,P01,D06,0,0,0
840,61.0,-14.0,-2.0,1644578178.84375,P01,D06,0,0,0
841,61.0,-14.0,-2.0,1644578178.875,P01,D06,0,0,0
842,61.0,-14.0,-2.0,1644578178.90625,P01,D06,0,0,0
843,61.0,-14.0,-2.0,1644578178.9375,P01,D06,0,0,0
844,61.0,-14.0,-2.0,1644578178.96875,P01,D06,0,0,0
845,61.0,-14.0,-2.0,1644578179.0,P01,D06,0,0,0
846,61.0,-14.0,-2.0,1644578179.03125,P01,D06,0,0,0
847,61.0,-14.0,-2.0,1644578179.0625,P01,D06,0,0,0
848,61.0,-14.0,-2.0,1644578179.09375,P01,D06,0,0,0
849,61.0,-14.0,-2.0,1644578179.125,P01,D06,0,0,0
850,61.0,-14.0,-2.0,1644578179.15625,P01,D06,0,0,0
851,61.0,-14.0,-2.0,1644578179.1875,P01,D06,0,0,0
852,61.0,-14.0,-2.0,1644578179.21875,P01,D06,0,0,0
853,61.0,-14.0,-2.0,1644578179.25,P01,D06,0,0,0
854,61.0,-14.0,-2.0,1644578179.28125,P01,D06,0,0,0
855,60.0,-14.0,-2.0,1644578179.3125,P01,D06,0,0,0
856,61.0,-14.0,-2.0,1644578179.34375,P01,D06,0,0,0
857,61.0,-14.0,-2.0,1644578179.375,P01,D06,0,0,0
858,61.0,-14.0,-2.0,1644578179.40625,P01,D06,0,0,0
859,61.0,-14.0,-2.0,1644578179.4375,P01,D06,0,0,0
860,61.0,-14.0,-2.0,1644578179.46875,P01,D06,0,0,0
861,61.0,-14.0,-1.0,1644578179.5,P01,D06,0,0,0
862,61.0,-14.0,-2.0,1644578179.53125,P01,D06,0,0,0
863,61.0,-14.0,-2.0,1644578179.5625,P01,D06,0,0,0
864,60.0,-14.0,-2.0,1644578179.59375,P01,D06,0,0,0
865,61.0,-14.0,-2.0,1644578179.625,P01,D06,0,0,0
866,61.0,-14.0,-2.0,1644578179.65625,P01,D06,0,0,0
867,61.0,-14.0,-2.0,1644578179.6875,P01,D06,0,0,0
868,61.0,-14.0,-2.0,1644578179.71875,P01,D06,0,0,0
869,61.0,-14.0,-2.0,1644578179.75,P01,D06,0,0,0
870,61.0,-14.0,-2.0,1644578179.78125,P01,D06,0,0,0
871,61.0,-14.0,-2.0,1644578179.8125,P01,D06,0,0,0
872,61.0,-14.0,-2.0,1644578179.84375,P01,D06,0,0,0
873,61.0,-14.0,-2.0,1644578179.875,P01,D06,0,0,0
874,61.0,-14.0,-2.0,1644578179.90625,P01,D06,0,0,0
875,61.0,-14.0,-2.0,1644578179.9375,P01,D06,0,0,0
876,61.0,-14.0,-2.0,1644578179.96875,P01,D06,0,0,0
877,61.0,-14.0,-2.0,1644578180.0,P01,D06,0,0,0
878,61.0,-14.0,-2.0,1644578180.03125,P01,D06,0,0,0
879,61.0,-14.0,-2.0,1644578180.0625,P01,D06,0,0,0
880,61.0,-14.0,-2.0,1644578180.09375,P01,D06,0,0,0
881,61.0,-14.0,-2.0,1644578180.125,P01,D06,0,0,0
882,61.0,-14.0,-2.0,1644578180.15625,P01,D06,0,0,0
883,61.0,-14.0,-2.0,1644578180.1875,P01,D06,0,0,0
884,61.0,-14.0,-2.0,1644578180.21875,P01,D06,0,0,0
885,61.0,-14.0,-2.0,1644578180.25,P01,D06,0,0,0
886,61.0,-14.0,-2.0,1644578180.28125,P01,D06,0,0,0
887,61.0,-14.0,-2.0,1644578180.3125,P01,D06,0,0,0
888,61.0,-14.0,-2.0,1644578180.34375,P01,D06,0,0,0
889,61.0,-14.0,-2.0,1644578180.375,P01,D06,0,0,0
890,61.0,-14.0,-2.0,1644578180.40625,P01,D06,0,0,0
891,61.0,-14.0,-2.0,1644578180.4375,P01,D06,0,0,0
892,61.0,-14.0,-2.0,1644578180.46875,P01,D06,0,0,0
893,61.0,-14.0,-2.0,1644578180.5,P01,D06,0,0,0
894,61.0,-14.0,-1.0,1644578180.53125,P01,D06,0,0,0
895,61.0,-14.0,-2.0,1644578180.5625,P01,D06,0,0,0
896,61.0,-15.0,-2.0,1644578180.59375,P01,D06,0,0,0
897,61.0,-15.0,-2.0,1644578180.625,P01,D06,0,0,0
898,69.0,-21.0,-3.0,1644578180.65625,P01,D06,0,0,0
899,67.0,-14.0,-2.0,1644578180.6875,P01,D06,0,0,0
900,60.0,-16.0,5.0,1644578180.71875,P01,D06,0,0,0
901,62.0,-16.0,4.0,1644578180.75,P01,D06,0,0,0
902,58.0,-19.0,9.0,1644578180.78125,P01,D06,0,0,0
903,53.0,-12.0,18.0,1644578180.8125,P01,D06,0,0,0
904,62.0,-9.0,13.0,1644578180.84375,P01,D06,0,0,0
905,55.0,-10.0,7.0,1644578180.875,P01,D06,0,0,0
906,56.0,-14.0,5.0,1644578180.90625,P01,D06,0,0,0
907,62.0,-17.0,9.0,1644578180.9375,P01,D06,0,0,0
908,64.0,-17.0,12.0,1644578180.96875,P01,D06,0,0,0
909,52.0,-14.0,7.0,1644578181.0,P01,D06,0,0,0
910,50.0,-11.0,2.0,1644578181.03125,P01,D06,0,0,0
911,80.0,-13.0,7.0,1644578181.0625,P01,D06,0,0,0
912,68.0,-12.0,2.0,1644578181.09375,P01,D06,0,0,0
913,66.0,-9.0,2.0,1644578181.125,P01,D06,0,0,0
914,60.0,-9.0,2.0,1644578181.15625,P01,D06,0,0,0
915,57.0,-10.0,1.0,1644578181.1875,P01,D06,0,0,0
916,59.0,-10.0,3.0,1644578181.21875,P01,D06,0,0,0
917,60.0,-10.0,5.0,1644578181.25,P01,D06,0,0,0
918,61.0,-11.0,7.0,1644578181.28125,P01,D06,0,0,0
919,62.0,-11.0,7.0,1644578181.3125,P01,D06,0,0,0
920,61.0,-13.0,7.0,1644578181.34375,P01,D06,0,0,0
921,61.0,-12.0,7.0,1644578181.375,P01,D06,0,0,0
922,60.0,-12.0,6.0,1644578181.40625,P01,D06,0,0,0
923,60.0,-12.0,6.0,1644578181.4375,P01,D06,0,0,0
924,61.0,-11.0,6.0,1644578181.46875,P01,D06,0,0,0
925,61.0,-10.0,6.0,1644578181.5,P01,D06,0,0,0
926,61.0,-11.0,6.0,1644578181.53125,P01,D06,0,0,0
927,61.0,-11.0,6.0,1644578181.5625,P01,D06,0,0,0
928,61.0,-11.0,6.0,1644578181.59375,P01,D06,0,0,0
929,61.0,-12.0,6.0,1644578181.625,P01,D06,0,0,0
930,61.0,-12.0,6.0,1644578181.65625,P01,D06,0,0,0
931,61.0,-12.0,7.0,1644578181.6875,P01,D06,0,0,0
932,61.0,-12.0,6.0,1644578181.71875,P01,D06,0,0,0
933,61.0,-12.0,6.0,1644578181.75,P01,D06,0,0,0
934,61.0,-11.0,6.0,1644578181.78125,P01,D06,0,0,0
935,61.0,-11.0,6.0,1644578181.8125,P01,D06,0,0,0
936,61.0,-12.0,6.0,1644578181.84375,P01,D06,0,0,0
937,61.0,-11.0,5.0,1644578181.875,P01,D06,0,0,0
938,61.0,-12.0,6.0,1644578181.90625,P01,D06,0,0,0
939,61.0,-12.0,6.0,1644578181.9375,P01,D06,0,0,0
940,61.0,-12.0,6.0,1644578181.96875,P01,D06,0,0,0
941,60.0,-12.0,6.0,1644578182.0,P01,D06,0,0,0
942,60.0,-12.0,6.0,1644578182.03125,P01,D06,0,0,0
943,61.0,-12.0,6.0,1644578182.0625,P01,D06,0,0,0
944,60.0,-11.0,7.0,1644578182.09375,P01,D06,0,0,0
945,61.0,-11.0,7.0,1644578182.125,P01,D06,0,0,0
946,62.0,-11.0,7.0,1644578182.15625,P01,D06,0,0,0
947,63.0,-12.0,6.0,1644578182.1875,P01,D06,0,0,0
948,64.0,-13.0,6.0,1644578182.21875,P01,D06,0,0,0
949,58.0,-7.0,3.0,1644578182.25,P01,D06,0,0,0
950,32.0,6.0,-2.0,1644578182.28125,P01,D06,0,0,0
951,83.0,-37.0,22.0,1644578182.3125,P01,D06,0,0,0
952,67.0,-15.0,29.0,1644578182.34375,P01,D06,0,0,0
953,51.0,-23.0,18.0,1644578182.375,P01,D06,0,0,0
954,40.0,-26.0,16.0,1644578182.40625,P01,D06,0,0,0
955,38.0,-30.0,23.0,1644578182.4375,P01,D06,0,0,0
956,38.0,-31.0,28.0,1644578182.46875,P01,D06,0,0,0
957,44.0,-31.0,34.0,1644578182.5,P01,D06,0,0,0
958,40.0,-25.0,30.0,1644578182.53125,P01,D06,0,0,0
959,40.0,-33.0,31.0,1644578182.5625,P01,D06,0,0,0
960,40.0,-39.0,34.0,1644578182.59375,P01,D06,0,0,0
961,42.0,-40.0,36.0,1644578182.625,P01,D06,0,0,0
962,42.0,-41.0,33.0,1644578182.65625,P01,D06,0,0,0
963,43.0,-41.0,33.0,1644578182.6875,P01,D06,0,0,0
964,43.0,-38.0,32.0,1644578182.71875,P01,D06,0,0,0
965,43.0,-36.0,32.0,1644578182.75,P01,D06,0,0,0
966,43.0,-33.0,31.0,1644578182.78125,P01,D06,0,0,0
967,42.0,-32.0,30.0,1644578182.8125,P01,D06,0,0,0
968,41.0,-32.0,29.0,1644578182.84375,P01,D06,0,0,0
969,41.0,-32.0,29.0,1644578182.875,P01,D06,0,0,0
970,41.0,-33.0,31.0,1644578182.90625,P01,D06,0,0,0
971,42.0,-35.0,33.0,1644578182.9375,P01,D06,0,0,0
972,42.0,-35.0,33.0,1644578182.96875,P01,D06,0,0,0
973,42.0,-34.0,32.0,1644578183.0,P01,D06,0,0,0
974,41.0,-34.0,32.0,1644578183.03125,P01,D06,0,0,0
975,41.0,-34.0,31.0,1644578183.0625,P01,D06,0,0,0
976,41.0,-35.0,31.0,1644578183.09375,P01,D06,0,0,0
977,41.0,-36.0,31.0,1644578183.125,P01,D06,0,0,0
978,41.0,-36.0,31.0,1644578183.15625,P01,D06,0,0,0
979,42.0,-35.0,31.0,1644578183.1875,P01,D06,0,0,0
980,42.0,-35.0,31.0,1644578183.21875,P01,D06,0,0,0
981,41.0,-34.0,32.0,1644578183.25,P01,D06,0,0,0
982,42.0,-34.0,32.0,1644578183.28125,P01,D06,0,0,0
983,42.0,-34.0,32.0,1644578183.3125,P01,D06,0,0,0
984,42.0,-34.0,32.0,1644578183.34375,P01,D06,0,0,0
985,42.0,-34.0,31.0,1644578183.375,P01,D06,0,0,0
986,43.0,-36.0,33.0,1644578183.40625,P01,D06,0,0,0
987,44.0,-37.0,35.0,1644578183.4375,P01,D06,0,0,0
988,36.0,-39.0,34.0,1644578183.46875,P01,D06,0,0,0
989,41.0,-43.0,33.0,1644578183.5,P01,D06,0,0,0
990,38.0,-34.0,31.0,1644578183.53125,P01,D06,0,0,0
991,38.0,-35.0,35.0,1644578183.5625,P01,D06,0,0,0
992,33.0,-32.0,37.0,1644578183.59375,P01,D06,0,0,0
993,40.0,-31.0,35.0,1644578183.625,P01,D06,0,0,0
994,45.0,-25.0,35.0,1644578183.65625,P01,D06,0,0,0
995,42.0,-25.0,35.0,1644578183.6875,P01,D06,0,0,0
996,42.0,-23.0,37.0,1644578183.71875,P01,D06,0,0,0
997,36.0,-33.0,37.0,1644578183.75,P01,D06,0,0,0
998,34.0,-35.0,37.0,1644578183.78125,P01,D06,0,0,0
999,31.0,-33.0,39.0,1644578183.8125,P01,D06,0,0,0
1000,30.0,-31.0,40.0,1644578183.84375,P01,D06,0,0,0
1001,32.0,-34.0,43.0,1644578183.875,P01,D06,0,0,0
1002,31.0,-38.0,42.0,1644578183.90625,P01,D06,0,0,0
1003,31.0,-39.0,37.0,1644578183.9375,P01,D06,0,0,0
1004,38.0,-36.0,37.0,1644578183.96875,P01,D06,0,0,0
1005,41.0,-35.0,36.0,1644578184.0,P01,D06,0,0,0
1006,38.0,-37.0,36.0,1644578184.03125,P01,D06,0,0,0
1007,36.0,-34.0,37.0,1644578184.0625,P01,D06,0,0,0
1008,36.0,-33.0,35.0,1644578184.09375,P01,D06,0,0,0
1009,38.0,-34.0,35.0,1644578184.125,P01,D06,0,0,0
1010,40.0,-34.0,35.0,1644578184.15625,P01,D06,0,0,0
1011,38.0,-34.0,35.0,1644578184.1875,P01,D06,0,0,0
1012,38.0,-35.0,34.0,1644578184.21875,P01,D06,0,0,0
1013,37.0,-29.0,35.0,1644578184.25,P01,D06,0,0,0
1014,40.0,-36.0,33.0,1644578184.28125,P01,D06,0,0,0
1015,40.0,-32.0,27.0,1644578184.3125,P01,D06,0,0,0
1016,47.0,-30.0,30.0,1644578184.34375,P01,D06,0,0,0
1017,48.0,-34.0,28.0,1644578184.375,P01,D06,0,0,0
1018,43.0,-33.0,26.0,1644578184.40625,P01,D06,0,0,0
1019,50.0,-32.0,22.0,1644578184.4375,P01,D06,0,0,0
1020,52.0,-34.0,21.0,1644578184.46875,P01,D06,0,0,0
1021,52.0,-29.0,23.0,1644578184.5,P01,D06,0,0,0
1022,53.0,-28.0,22.0,1644578184.53125,P01,D06,0,0,0
1023,49.0,-29.0,22.0,1644578184.5625,P01,D06,0,0,0
1024,51.0,-29.0,23.0,1644578184.59375,P01,D06,0,0,0
1025,50.0,-32.0,19.0,1644578184.625,P01,D06,0,0,0
1026,49.0,-30.0,20.0,1644578184.65625,P01,D06,0,0,0
1027,48.0,-31.0,20.0,1644578184.6875,P01,D06,0,0,0
1028,55.0,-32.0,17.0,1644578184.71875,P01,D06,0,0,0
1029,52.0,-32.0,18.0,1644578184.75,P01,D06,0,0,0
1030,50.0,-31.0,21.0,1644578184.78125,P01,D06,0,0,0
1031,51.0,-34.0,19.0,1644578184.8125,P01,D06,0,0,0
1032,48.0,-32.0,21.0,1644578184.84375,P01,D06,0,0,0
1033,48.0,-30.0,24.0,1644578184.875,P01,D06,0,0,0
1034,52.0,-33.0,20.0,1644578184.90625,P01,D06,0,0,0
1035,55.0,-33.0,20.0,1644578184.9375,P01,D06,0,0,0
1036,50.0,-29.0,26.0,1644578184.96875,P01,D06,0,0,0
1037,47.0,-29.0,28.0,1644578185.0,P01,D06,0,0,0
1038,48.0,-30.0,22.0,1644578185.03125,P01,D06,0,0,0
1039,49.0,-32.0,21.0,1644578185.0625,P01,D06,0,0,0
1040,49.0,-30.0,22.0,1644578185.09375,P01,D06,0,0,0
1041,49.0,-31.0,23.0,1644578185.125,P01,D06,0,0,0
1042,49.0,-31.0,23.0,1644578185.15625,P01,D06,0,0,0
1043,51.0,-32.0,23.0,1644578185.1875,P01,D06,0,0,0
1044,49.0,-30.0,24.0,1644578185.21875,P01,D06,0,0,0
1045,45.0,-30.0,24.0,1644578185.25,P01,D06,0,0,0
1046,47.0,-31.0,24.0,1644578185.28125,P01,D06,0,0,0
1047,48.0,-30.0,24.0,1644578185.3125,P01,D06,0,0,0
1048,49.0,-30.0,24.0,1644578185.34375,P01,D06,0,0,0
1049,46.0,-32.0,24.0,1644578185.375,P01,D06,0,0,0
1050,49.0,-33.0,23.0,1644578185.40625,P01,D06,0,0,0
1051,53.0,-34.0,22.0,1644578185.4375,P01,D06,0,0,0
1052,54.0,-32.0,21.0,1644578185.46875,P01,D06,0,0,0
1053,52.0,-32.0,22.0,1644578185.5,P01,D06,0,0,0
1054,48.0,-28.0,23.0,1644578185.53125,P01,D06,0,0,0
1055,48.0,-32.0,20.0,1644578185.5625,P01,D06,0,0,0
1056,48.0,-32.0,25.0,1644578185.59375,P01,D06,0,0,0
1057,47.0,-32.0,25.0,1644578185.625,P01,D06,0,0,0
1058,45.0,-30.0,23.0,1644578185.65625,P01,D06,0,0,0
1059,48.0,-32.0,23.0,1644578185.6875,P01,D06,0,0,0
1060,51.0,-32.0,29.0,1644578185.71875,P01,D06,0,0,0
1061,45.0,-30.0,26.0,1644578185.75,P01,D06,0,0,0
1062,43.0,-27.0,26.0,1644578185.78125,P01,D06,0,0,0
1063,48.0,-32.0,28.0,1644578185.8125,P01,D06,0,0,0
1064,49.0,-33.0,27.0,1644578185.84375,P01,D06,0,0,0
1065,47.0,-30.0,26.0,1644578185.875,P01,D06,0,0,0
1066,46.0,-29.0,26.0,1644578185.90625,P01,D06,0,0,0
1067,49.0,-31.0,27.0,1644578185.9375,P01,D06,0,0,0
1068,50.0,-33.0,26.0,1644578185.96875,P01,D06,0,0,0
1069,47.0,-33.0,25.0,1644578186.0,P01,D06,0,0,0
1070,47.0,-32.0,25.0,1644578186.03125,P01,D06,0,0,0
1071,49.0,-31.0,25.0,1644578186.0625,P01,D06,0,0,0
1072,46.0,-30.0,25.0,1644578186.09375,P01,D06,0,0,0
1073,46.0,-30.0,25.0,1644578186.125,P01,D06,0,0,0
1074,49.0,-31.0,26.0,1644578186.15625,P01,D06,0,0,0
1075,49.0,-30.0,26.0,1644578186.1875,P01,D06,0,0,0
1076,48.0,-31.0,25.0,1644578186.21875,P01,D06,0,0,0
1077,47.0,-30.0,25.0,1644578186.25,P01,D06,0,0,0
1078,51.0,-31.0,25.0,1644578186.28125,P01,D06,0,0,0
1079,51.0,-31.0,25.0,1644578186.3125,P01,D06,0,0,0
1080,46.0,-30.0,25.0,1644578186.34375,P01,D06,0,0,0
1081,47.0,-30.0,25.0,1644578186.375,P01,D06,0,0,0
1082,48.0,-30.0,26.0,1644578186.40625,P01,D06,0,0,0
1083,48.0,-30.0,27.0,1644578186.4375,P01,D06,0,0,0
1084,47.0,-29.0,27.0,1644578186.46875,P01,D06,0,0,0
1085,47.0,-31.0,27.0,1644578186.5,P01,D06,0,0,0
1086,48.0,-31.0,27.0,1644578186.53125,P01,D06,0,0,0
1087,46.0,-30.0,27.0,1644578186.5625,P01,D06,0,0,0
1088,47.0,-31.0,27.0,1644578186.59375,P01,D06,0,0,0
1089,48.0,-31.0,26.0,1644578186.625,P01,D06,0,0,0
1090,48.0,-32.0,25.0,1644578186.65625,P01,D06,0,0,0
1091,48.0,-31.0,26.0,1644578186.6875,P01,D06,0,0,0
1092,48.0,-31.0,26.0,1644578186.71875,P01,D06,0,0,0
1093,49.0,-31.0,27.0,1644578186.75,P01,D06,0,0,0
1094,48.0,-30.0,26.0,1644578186.78125,P01,D06,0,0,0
1095,45.0,-31.0,26.0,1644578186.8125,P01,D06,0,0,0
1096,48.0,-31.0,26.0,1644578186.84375,P01,D06,0,0,0
1097,49.0,-31.0,27.0,1644578186.875,P01,D06,0,0,0
1098,47.0,-31.0,26.0,1644578186.90625,P01,D06,0,0,0
1099,47.0,-30.0,26.0,1644578186.9375,P01,D06,0,0,0
1100,48.0,-31.0,27.0,1644578186.96875,P01,D06,0,0,0
1101,49.0,-31.0,27.0,1644578187.0,P01,D06,0,0,0
1102,47.0,-30.0,26.0,1644578187.03125,P01,D06,0,0,0
1103,47.0,-30.0,26.0,1644578187.0625,P01,D06,0,0,0
1104,48.0,-31.0,27.0,1644578187.09375,P01,D06,0,0,0
1105,49.0,-31.0,26.0,1644578187.125,P01,D06,0,0,0
1106,48.0,-31.0,26.0,1644578187.15625,P01,D06,0,0,0
1107,48.0,-31.0,26.0,1644578187.1875,P01,D06,0,0,0
1108,48.0,-31.0,26.0,1644578187.21875,P01,D06,0,0,0
1109,47.0,-31.0,27.0,1644578187.25,P01,D06,0,0,0
1110,47.0,-31.0,27.0,1644578187.28125,P01,D06,0,0,0
1111,47.0,-31.0,27.0,1644578187.3125,P01,D06,0,0,0
1112,47.0,-31.0,27.0,1644578187.34375,P01,D06,0,0,0
1113,46.0,-30.0,27.0,1644578187.375,P01,D06,0,0,0
1114,46.0,-32.0,27.0,1644578187.40625,P01,D06,0,0,0
1115,47.0,-32.0,27.0,1644578187.4375,P01,D06,0,0,0
1116,47.0,-32.0,27.0,1644578187.46875,P01,D06,0,0,0
1117,47.0,-31.0,28.0,1644578187.5,P01,D06,0,0,0
1118,47.0,-31.0,28.0,1644578187.53125,P01,D06,0,0,0
1119,45.0,-31.0,26.0,1644578187.5625,P01,D06,0,0,0
1120,47.0,-30.0,27.0,1644578187.59375,P01,D06,0,0,0
1121,48.0,-30.0,27.0,1644578187.625,P01,D06,0,0,0
1122,48.0,-31.0,27.0,1644578187.65625,P01,D06,0,0,0
1123,47.0,-31.0,27.0,1644578187.6875,P01,D06,0,0,0
1124,46.0,-31.0,27.0,1644578187.71875,P01,D06,0,0,0
1125,47.0,-31.0,28.0,1644578187.75,P01,D06,0,0,0
1126,46.0,-31.0,27.0,1644578187.78125,P01,D06,0,0,0
1127,45.0,-30.0,27.0,1644578187.8125,P01,D06,0,0,0
1128,48.0,-31.0,28.0,1644578187.84375,P01,D06,0,0,0
1129,47.0,-30.0,27.0,1644578187.875,P01,D06,0,0,0
1130,47.0,-29.0,27.0,1644578187.90625,P01,D06,0,0,0
1131,50.0,-29.0,27.0,1644578187.9375,P01,D06,0,0,0
1132,50.0,-28.0,26.0,1644578187.96875,P01,D06,0,0,0
1133,51.0,-27.0,25.0,1644578188.0,P01,D06,0,0,0
1134,50.0,-28.0,26.0,1644578188.03125,P01,D06,0,0,0
1135,49.0,-27.0,30.0,1644578188.0625,P01,D06,0,0,0
1136,48.0,-26.0,29.0,1644578188.09375,P01,D06,0,0,0
1137,50.0,-21.0,27.0,1644578188.125,P01,D06,0,0,0
1138,49.0,-21.0,27.0,1644578188.15625,P01,D06,0,0,0
1139,49.0,-21.0,30.0,1644578188.1875,P01,D06,0,0,0
1140,51.0,-21.0,30.0,1644578188.21875,P01,D06,0,0,0
1141,49.0,-21.0,30.0,1644578188.25,P01,D06,0,0,0
1142,48.0,-17.0,32.0,1644578188.28125,P01,D06,0,0,0
1143,48.0,-17.0,31.0,1644578188.3125,P01,D06,0,0,0
1144,52.0,-17.0,32.0,1644578188.34375,P01,D06,0,0,0
1145,50.0,-17.0,31.0,1644578188.375,P01,D06,0,0,0
1146,49.0,-17.0,30.0,1644578188.40625,P01,D06,0,0,0
1147,50.0,-17.0,29.0,1644578188.4375,P01,D06,0,0,0
1148,54.0,-18.0,29.0,1644578188.46875,P01,D06,0,0,0
1149,55.0,-17.0,27.0,1644578188.5,P01,D06,0,0,0
1150,55.0,-17.0,28.0,1644578188.53125,P01,D06,0,0,0
1151,52.0,-17.0,28.0,1644578188.5625,P01,D06,0,0,0
1152,53.0,-17.0,27.0,1644578188.59375,P01,D06,0,0,0
1153,54.0,-17.0,28.0,1644578188.625,P01,D06,0,0,0
1154,53.0,-17.0,27.0,1644578188.65625,P01,D06,0,0,0
1155,54.0,-16.0,25.0,1644578188.6875,P01,D06,0,0,0
1156,56.0,-16.0,25.0,1644578188.71875,P01,D06,0,0,0
1157,53.0,-16.0,22.0,1644578188.75,P01,D06,0,0,0
1158,55.0,-16.0,22.0,1644578188.78125,P01,D06,0,0,0
1159,59.0,-16.0,23.0,1644578188.8125,P01,D06,0,0,0
1160,59.0,-15.0,22.0,1644578188.84375,P01,D06,0,0,0
1161,57.0,-15.0,22.0,1644578188.875,P01,D06,0,0,0
1162,55.0,-14.0,23.0,1644578188.90625,P01,D06,0,0,0
1163,55.0,-14.0,23.0,1644578188.9375,P01,D06,0,0,0
1164,54.0,-13.0,24.0,1644578188.96875,P01,D06,0,0,0
1165,56.0,-14.0,24.0,1644578189.0,P01,D06,0,0,0
1166,56.0,-14.0,22.0,1644578189.03125,P01,D06,0,0,0
1167,56.0,-15.0,23.0,1644578189.0625,P01,D06,0,0,0
1168,56.0,-14.0,24.0,1644578189.09375,P01,D06,0,0,0
1169,55.0,-15.0,24.0,1644578189.125,P01,D06,0,0,0
1170,55.0,-15.0,23.0,1644578189.15625,P01,D06,0,0,0
1171,55.0,-14.0,24.0,1644578189.1875,P01,D06,0,0,0
1172,56.0,-15.0,24.0,1644578189.21875,P01,D06,0,0,0
1173,55.0,-15.0,24.0,1644578189.25,P01,D06,0,0,0
1174,57.0,-15.0,24.0,1644578189.28125,P01,D06,0,0,0
1175,55.0,-15.0,23.0,1644578189.3125,P01,D06,0,0,0
1176,54.0,-14.0,24.0,1644578189.34375,P01,D06,0,0,0
1177,56.0,-14.0,24.0,1644578189.375,P01,D06,0,0,0
1178,57.0,-13.0,22.0,1644578189.40625,P01,D06,0,0,0
1179,57.0,-13.0,22.0,1644578189.4375,P01,D06,0,0,0
1180,56.0,-14.0,23.0,1644578189.46875,P01,D06,0,0,0
1181,55.0,-14.0,24.0,1644578189.5,P01,D06,0,0,0
1182,56.0,-14.0,23.0,1644578189.53125,P01,D06,0,0,0
1183,57.0,-14.0,23.0,1644578189.5625,P01,D06,0,0,0
1184,56.0,-14.0,24.0,1644578189.59375,P01,D06,0,0,0
1185,55.0,-14.0,23.0,1644578189.625,P01,D06,0,0,0
1186,56.0,-14.0,24.0,1644578189.65625,P01,D06,0,0,0
1187,56.0,-14.0,24.0,1644578189.6875,P01,D06,0,0,0
1188,56.0,-14.0,22.0,1644578189.71875,P01,D06,0,0,0
1189,57.0,-15.0,23.0,1644578189.75,P01,D06,0,0,0
1190,55.0,-14.0,24.0,1644578189.78125,P01,D06,0,0,0
1191,55.0,-14.0,24.0,1644578189.8125,P01,D06,0,0,0
1192,57.0,-14.0,23.0,1644578189.84375,P01,D06,0,0,0
1193,57.0,-14.0,23.0,1644578189.875,P01,D06,0,0,0
1194,55.0,-13.0,24.0,1644578189.90625,P01,D06,0,0,0
1195,55.0,-13.0,24.0,1644578189.9375,P01,D06,0,0,0
1196,57.0,-13.0,24.0,1644578189.96875,P01,D06,0,0,0
1197,57.0,-13.0,25.0,1644578190.0,P01,D06,0,0,0
1198,55.0,-13.0,25.0,1644578190.03125,P01,D06,0,0,0
1199,55.0,-12.0,25.0,1644578190.0625,P01,D06,0,0,0
1200,55.0,-13.0,25.0,1644578190.09375,P01,D06,0,0,0
1201,57.0,-13.0,25.0,1644578190.125,P01,D06,0,0,0
1202,56.0,-12.0,25.0,1644578190.15625,P01,D06,0,0,0
1203,55.0,-12.0,25.0,1644578190.1875,P01,D06,0,0,0
1204,55.0,-12.0,25.0,1644578190.21875,P01,D06,0,0,0
1205,56.0,-12.0,25.0,1644578190.25,P01,D06,0,0,0
1206,56.0,-12.0,25.0,1644578190.28125,P01,D06,0,0,0
1207,56.0,-12.0,25.0,1644578190.3125,P01,D06,0,0,0
1208,55.0,-12.0,25.0,1644578190.34375,P01,D06,0,0,0
1209,56.0,-13.0,25.0,1644578190.375,P01,D06,0,0,0
1210,56.0,-12.0,25.0,1644578190.40625,P01,D06,0,0,0
1211,55.0,-12.0,26.0,1644578190.4375,P01,D06,0,0,0
1212,55.0,-12.0,25.0,1644578190.46875,P01,D06,0,0,0
1213,55.0,-12.0,25.0,1644578190.5,P01,D06,0,0,0
1214,55.0,-12.0,24.0,1644578190.53125,P01,D06,0,0,0
1215,55.0,-12.0,24.0,1644578190.5625,P01,D06,0,0,0
1216,55.0,-14.0,24.0,1644578190.59375,P01,D06,0,0,0
1217,59.0,-16.0,22.0,1644578190.625,P01,D06,0,0,0
1218,56.0,-14.0,25.0,1644578190.65625,P01,D06,0,0,0
1219,55.0,-14.0,24.0,1644578190.6875,P01,D06,0,0,0
1220,56.0,-14.0,21.0,1644578190.71875,P01,D06,0,0,0
1221,57.0,-14.0,23.0,1644578190.75,P01,D06,0,0,0
1222,57.0,-14.0,25.0,1644578190.78125,P01,D06,0,0,0
1223,55.0,-15.0,22.0,1644578190.8125,P01,D06,0,0,0
1224,56.0,-15.0,21.0,1644578190.84375,P01,D06,0,0,0
1225,59.0,-15.0,23.0,1644578190.875,P01,D06,0,0,0
1226,59.0,-16.0,23.0,1644578190.90625,P01,D06,0,0,0
1227,53.0,-15.0,24.0,1644578190.9375,P01,D06,0,0,0
1228,56.0,-16.0,22.0,1644578190.96875,P01,D06,0,0,0
1229,57.0,-16.0,22.0,1644578191.0,P01,D06,0,0,0
1230,57.0,-17.0,23.0,1644578191.03125,P01,D06,0,0,0
1231,56.0,-18.0,23.0,1644578191.0625,P01,D06,0,0,0
1232,57.0,-17.0,21.0,1644578191.09375,P01,D06,0,0,0
1233,52.0,-18.0,22.0,1644578191.125,P01,D06,0,0,0
1234,55.0,-20.0,23.0,1644578191.15625,P01,D06,0,0,0
1235,57.0,-17.0,22.0,1644578191.1875,P01,D06,0,0,0
1236,54.0,-18.0,21.0,1644578191.21875,P01,D06,0,0,0
1237,57.0,-18.0,20.0,1644578191.25,P01,D06,0,0,0
1238,55.0,-17.0,20.0,1644578191.28125,P01,D06,0,0,0
1239,58.0,-17.0,19.0,1644578191.3125,P01,D06,0,0,0
1240,55.0,-18.0,22.0,1644578191.34375,P01,D06,0,0,0
1241,54.0,-18.0,22.0,1644578191.375,P01,D06,0,0,0
1242,60.0,-17.0,19.0,1644578191.40625,P01,D06,0,0,0
1243,55.0,-17.0,21.0,1644578191.4375,P01,D06,0,0,0
1244,56.0,-18.0,22.0,1644578191.46875,P01,D06,0,0,0
1245,57.0,-17.0,21.0,1644578191.5,P01,D06,0,0,0
1246,56.0,-17.0,21.0,1644578191.53125,P01,D06,0,0,0
1247,57.0,-16.0,21.0,1644578191.5625,P01,D06,0,0,0
1248,58.0,-16.0,19.0,1644578191.59375,P01,D06,0,0,0
1249,54.0,-16.0,21.0,1644578191.625,P01,D06,0,0,0
1250,52.0,-15.0,22.0,1644578191.65625,P01,D06,0,0,0
1251,58.0,-15.0,20.0,1644578191.6875,P01,D06,0,0,0
1252,62.0,-16.0,19.0,1644578191.71875,P01,D06,0,0,0
1253,54.0,-15.0,19.0,1644578191.75,P01,D06,0,0,0
1254,49.0,-15.0,21.0,1644578191.78125,P01,D06,0,0,0
1255,56.0,-17.0,23.0,1644578191.8125,P01,D06,0,0,0
1256,50.0,-16.0,21.0,1644578191.84375,P01,D06,0,0,0
1257,49.0,-18.0,16.0,1644578191.875,P01,D06,0,0,0
1258,69.0,-23.0,29.0,1644578191.90625,P01,D06,0,0,0
1259,55.0,-19.0,24.0,1644578191.9375,P01,D06,0,0,0
1260,53.0,-15.0,17.0,1644578191.96875,P01,D06,0,0,0
1261,56.0,-16.0,20.0,1644578192.0,P01,D06,0,0,0
1262,58.0,-16.0,20.0,1644578192.03125,P01,D06,0,0,0
1263,56.0,-16.0,20.0,1644578192.0625,P01,D06,0,0,0
1264,58.0,-17.0,18.0,1644578192.09375,P01,D06,0,0,0
1265,60.0,-18.0,19.0,1644578192.125,P01,D06,0,0,0
1266,55.0,-17.0,21.0,1644578192.15625,P01,D06,0,0,0
1267,55.0,-16.0,19.0,1644578192.1875,P01,D06,0,0,0
1268,57.0,-16.0,18.0,1644578192.21875,P01,D06,0,0,0
1269,58.0,-17.0,19.0,1644578192.25,P01,D06,0,0,0
1270,59.0,-17.0,18.0,1644578192.28125,P01,D06,0,0,0
1271,55.0,-17.0,20.0,1644578192.3125,P01,D06,0,0,0
1272,56.0,-17.0,20.0,1644578192.34375,P01,D06,0,0,0
1273,57.0,-17.0,20.0,1644578192.375,P01,D06,0,0,0
1274,57.0,-17.0,19.0,1644578192.40625,P01,D06,0,0,0
1275,57.0,-17.0,20.0,1644578192.4375,P01,D06,0,0,0
1276,57.0,-17.0,20.0,1644578192.46875,P01,D06,0,0,0
1277,57.0,-17.0,20.0,1644578192.5,P01,D06,0,0,0
1278,58.0,-17.0,21.0,1644578192.53125,P01,D06,0,0,0
1279,54.0,-17.0,22.0,1644578192.5625,P01,D06,0,0,0
1280,56.0,-17.0,21.0,1644578192.59375,P01,D06,0,0,0
1281,57.0,-17.0,20.0,1644578192.625,P01,D06,0,0,0
1282,56.0,-17.0,21.0,1644578192.65625,P01,D06,0,0,0
1283,56.0,-16.0,21.0,1644578192.6875,P01,D06,0,0,0
1284,57.0,-16.0,20.0,1644578192.71875,P01,D06,0,0,0
1285,57.0,-16.0,20.0,1644578192.75,P01,D06,0,0,0
1286,54.0,-17.0,21.0,1644578192.78125,P01,D06,0,0,0
1287,54.0,-16.0,20.0,1644578192.8125,P01,D06,0,0,0
1288,58.0,-17.0,20.0,1644578192.84375,P01,D06,0,0,0
1289,57.0,-17.0,21.0,1644578192.875,P01,D06,0,0,0
1290,56.0,-18.0,21.0,1644578192.90625,P01,D06,0,0,0
1291,55.0,-16.0,21.0,1644578192.9375,P01,D06,0,0,0
1292,56.0,-17.0,20.0,1644578192.96875,P01,D06,0,0,0
1293,57.0,-20.0,20.0,1644578193.0,P01,D06,0,0,0
1294,55.0,-15.0,22.0,1644578193.03125,P01,D06,0,0,0
1295,58.0,-16.0,18.0,1644578193.0625,P01,D06,0,0,0
1296,58.0,-17.0,20.0,1644578193.09375,P01,D06,0,0,0
1297,59.0,-16.0,17.0,1644578193.125,P01,D06,0,0,0
1298,57.0,-16.0,18.0,1644578193.15625,P01,D06,0,0,0
1299,55.0,-16.0,20.0,1644578193.1875,P01,D06,0,0,0
1300,58.0,-15.0,18.0,1644578193.21875,P01,D06,0,0,0
1301,57.0,-16.0,20.0,1644578193.25,P01,D06,0,0,0
1302,56.0,-16.0,21.0,1644578193.28125,P01,D06,0,0,0
1303,56.0,-15.0,20.0,1644578193.3125,P01,D06,0,0,0
1304,56.0,-16.0,19.0,1644578193.34375,P01,D06,0,0,0
1305,57.0,-16.0,20.0,1644578193.375,P01,D06,0,0,0
1306,57.0,-15.0,19.0,1644578193.40625,P01,D06,0,0,0
1307,58.0,-16.0,18.0,1644578193.4375,P01,D06,0,0,0
1308,57.0,-17.0,17.0,1644578193.46875,P01,D06,0,0,0
1309,57.0,-16.0,17.0,1644578193.5,P01,D06,0,0,0
1310,56.0,-16.0,19.0,1644578193.53125,P01,D06,0,0,0
1311,58.0,-17.0,21.0,1644578193.5625,P01,D06,0,0,0
1312,56.0,-19.0,19.0,1644578193.59375,P01,D06,0,0,0
1313,56.0,-18.0,20.0,1644578193.625,P01,D06,0,0,0
1314,56.0,-17.0,20.0,1644578193.65625,P01,D06,0,0,0
1315,59.0,-17.0,17.0,1644578193.6875,P01,D06,0,0,0
1316,58.0,-18.0,17.0,1644578193.71875,P01,D06,0,0,0
1317,58.0,-17.0,18.0,1644578193.75,P01,D06,0,0,0
1318,56.0,-17.0,18.0,1644578193.78125,P01,D06,0,0,0
1319,56.0,-16.0,17.0,1644578193.8125,P01,D06,0,0,0
1320,59.0,-17.0,17.0,1644578193.84375,P01,D06,0,0,0
1321,58.0,-18.0,17.0,1644578193.875,P01,D06,0,0,0
1322,59.0,-17.0,17.0,1644578193.90625,P01,D06,0,0,0
1323,58.0,-16.0,16.0,1644578193.9375,P01,D06,0,0,0
1324,58.0,-16.0,16.0,1644578193.96875,P01,D06,0,0,0
1325,57.0,-17.0,17.0,1644578194.0,P01,D06,0,0,0
1326,59.0,-17.0,16.0,1644578194.03125,P01,D06,0,0,0
1327,59.0,-16.0,16.0,1644578194.0625,P01,D06,0,0,0
1328,58.0,-16.0,15.0,1644578194.09375,P01,D06,0,0,0
1329,57.0,-16.0,16.0,1644578194.125,P01,D06,0,0,0
1330,57.0,-16.0,17.0,1644578194.15625,P01,D06,0,0,0
1331,58.0,-17.0,17.0,1644578194.1875,P01,D06,0,0,0
1332,58.0,-17.0,17.0,1644578194.21875,P01,D06,0,0,0
1333,58.0,-17.0,16.0,1644578194.25,P01,D06,0,0,0
1334,57.0,-16.0,18.0,1644578194.28125,P01,D06,0,0,0
1335,58.0,-16.0,17.0,1644578194.3125,P01,D06,0,0,0
1336,58.0,-16.0,17.0,1644578194.34375,P01,D06,0,0,0
1337,57.0,-16.0,18.0,1644578194.375,P01,D06,0,0,0
1338,57.0,-17.0,18.0,1644578194.40625,P01,D06,0,0,0
1339,58.0,-16.0,17.0,1644578194.4375,P01,D06,0,0,0
1340,58.0,-17.0,17.0,1644578194.46875,P01,D06,0,0,0
1341,57.0,-17.0,17.0,1644578194.5,P01,D06,0,0,0
1342,57.0,-17.0,17.0,1644578194.53125,P01,D06,0,0,0
1343,58.0,-16.0,17.0,1644578194.5625,P01,D06,0,0,0
1344,57.0,-16.0,17.0,1644578194.59375,P01,D06,0,0,0
1345,58.0,-16.0,17.0,1644578194.625,P01,D06,0,0,0
1346,57.0,-16.0,18.0,1644578194.65625,P01,D06,0,0,0
1347,57.0,-16.0,18.0,1644578194.6875,P01,D06,0,0,0
1348,57.0,-17.0,18.0,1644578194.71875,P01,D06,0,0,0
1349,57.0,-17.0,18.0,1644578194.75,P01,D06,0,0,0
1350,57.0,-17.0,18.0,1644578194.78125,P01,D06,0,0,0
1351,57.0,-17.0,17.0,1644578194.8125,P01,D06,0,0,0
1352,57.0,-17.0,18.0,1644578194.84375,P01,D06,0,0,0
1353,57.0,-16.0,18.0,1644578194.875,P01,D06,0,0,0
1354,57.0,-17.0,18.0,1644578194.90625,P01,D06,0,0,0
1355,58.0,-16.0,18.0,1644578194.9375,P01,D06,0,0,0
1356,57.0,-17.0,18.0,1644578194.96875,P01,D06,0,0,0
1357,57.0,-16.0,18.0,1644578195.0,P01,D06,0,0,0
1358,58.0,-17.0,18.0,1644578195.03125,P01,D06,0,0,0
1359,57.0,-16.0,18.0,1644578195.0625,P01,D06,0,0,0
1360,57.0,-16.0,18.0,1644578195.09375,P01,D06,0,0,0
1361,58.0,-16.0,17.0,1644578195.125,P01,D06,0,0,0
1362,58.0,-17.0,18.0,1644578195.15625,P01,D06,0,0,0
1363,57.0,-17.0,18.0,1644578195.1875,P01,D06,0,0,0
1364,58.0,-17.0,18.0,1644578195.21875,P01,D06,0,0,0
1365,57.0,-16.0,18.0,1644578195.25,P01,D06,0,0,0
1366,57.0,-16.0,18.0,1644578195.28125,P01,D06,0,0,0
1367,57.0,-17.0,18.0,1644578195.3125,P01,D06,0,0,0
1368,56.0,-16.0,18.0,1644578195.34375,P01,D06,0,0,0
1369,59.0,-16.0,18.0,1644578195.375,P01,D06,0,0,0
1370,58.0,-17.0,17.0,1644578195.40625,P01,D06,0,0,0
1371,57.0,-16.0,17.0,1644578195.4375,P01,D06,0,0,0
1372,56.0,-17.0,19.0,1644578195.46875,P01,D06,0,0,0
1373,56.0,-16.0,19.0,1644578195.5,P01,D06,0,0,0
1374,57.0,-17.0,18.0,1644578195.53125,P01,D06,0,0,0
1375,56.0,-17.0,19.0,1644578195.5625,P01,D06,0,0,0
1376,58.0,-17.0,18.0,1644578195.59375,P01,D06,0,0,0
1377,60.0,-17.0,17.0,1644578195.625,P01,D06,0,0,0
1378,55.0,-17.0,17.0,1644578195.65625,P01,D06,0,0,0
1379,55.0,-16.0,18.0,1644578195.6875,P01,D06,0,0,0
1380,57.0,-16.0,17.0,1644578195.71875,P01,D06,0,0,0
1381,60.0,-17.0,16.0,1644578195.75,P01,D06,0,0,0
1382,59.0,-18.0,16.0,1644578195.78125,P01,D06,0,0,0
1383,57.0,-17.0,17.0,1644578195.8125,P01,D06,0,0,0
1384,58.0,-17.0,17.0,1644578195.84375,P01,D06,0,0,0
1385,58.0,-17.0,16.0,1644578195.875,P01,D06,0,0,0
1386,58.0,-17.0,15.0,1644578195.90625,P01,D06,0,0,0
1387,58.0,-17.0,16.0,1644578195.9375,P01,D06,0,0,0
1388,56.0,-17.0,17.0,1644578195.96875,P01,D06,0,0,0
1389,59.0,-17.0,15.0,1644578196.0,P01,D06,0,0,0
1390,59.0,-17.0,15.0,1644578196.03125,P01,D06,0,0,0
1391,58.0,-17.0,16.0,1644578196.0625,P01,D06,0,0,0
1392,57.0,-17.0,16.0,1644578196.09375,P01,D06,0,0,0
1393,57.0,-17.0,17.0,1644578196.125,P01,D06,0,0,0
1394,58.0,-17.0,16.0,1644578196.15625,P01,D06,0,0,0
1395,58.0,-17.0,16.0,1644578196.1875,P01,D06,0,0,0
1396,58.0,-17.0,16.0,1644578196.21875,P01,D06,0,0,0
1397,57.0,-16.0,17.0,1644578196.25,P01,D06,0,0,0
1398,57.0,-17.0,17.0,1644578196.28125,P01,D06,0,0,0
1399,57.0,-17.0,17.0,1644578196.3125,P01,D06,0,0,0
1400,58.0,-17.0,16.0,1644578196.34375,P01,D06,0,0,0
1401,58.0,-17.0,16.0,1644578196.375,P01,D06,0,0,0
1402,57.0,-17.0,17.0,1644578196.40625,P01,D06,0,0,0
1403,57.0,-17.0,17.0,1644578196.4375,P01,D06,0,0,0
1404,58.0,-17.0,17.0,1644578196.46875,P01,D06,0,0,0
1405,58.0,-17.0,17.0,1644578196.5,P01,D06,0,0,0
1406,57.0,-17.0,17.0,1644578196.53125,P01,D06,0,0,0
1407,58.0,-17.0,17.0,1644578196.5625,P01,D06,0,0,0
1408,58.0,-17.0,17.0,1644578196.59375,P01,D06,0,0,0
1409,57.0,-17.0,17.0,1644578196.625,P01,D06,0,0,0
1410,57.0,-17.0,17.0,1644578196.65625,P01,D06,0,0,0
1411,57.0,-17.0,18.0,1644578196.6875,P01,D06,0,0,0
1412,57.0,-17.0,18.0,1644578196.71875,P01,D06,0,0,0
1413,57.0,-17.0,18.0,1644578196.75,P01,D06,0,0,0
1414,57.0,-17.0,18.0,1644578196.78125,P01,D06,0,0,0
1415,57.0,-17.0,18.0,1644578196.8125,P01,D06,0,0,0
1416,57.0,-17.0,17.0,1644578196.84375,P01,D06,0,0,0
1417,57.0,-17.0,17.0,1644578196.875,P01,D06,0,0,0
1418,58.0,-16.0,17.0,1644578196.90625,P01,D06,0,0,0
1419,58.0,-17.0,18.0,1644578196.9375,P01,D06,0,0,0
1420,58.0,-17.0,18.0,1644578196.96875,P01,D06,0,0,0
1421,57.0,-17.0,18.0,1644578197.0,P01,D06,0,0,0
1422,57.0,-17.0,18.0,1644578197.03125,P01,D06,0,0,0
1423,57.0,-17.0,18.0,1644578197.0625,P01,D06,0,0,0
1424,57.0,-17.0,18.0,1644578197.09375,P01,D06,0,0,0
1425,57.0,-17.0,18.0,1644578197.125,P01,D06,0,0,0
1426,57.0,-17.0,19.0,1644578197.15625,P01,D06,0,0,0
1427,57.0,-17.0,18.0,1644578197.1875,P01,D06,0,0,0
1428,57.0,-17.0,18.0,1644578197.21875,P01,D06,0,0,0
1429,57.0,-17.0,18.0,1644578197.25,P01,D06,0,0,0
1430,57.0,-17.0,18.0,1644578197.28125,P01,D06,0,0,0
1431,58.0,-17.0,18.0,1644578197.3125,P01,D06,0,0,0
1432,58.0,-17.0,19.0,1644578197.34375,P01,D06,0,0,0
1433,56.0,-17.0,19.0,1644578197.375,P01,D06,0,0,0
1434,55.0,-17.0,19.0,1644578197.40625,P01,D06,0,0,0
1435,58.0,-17.0,19.0,1644578197.4375,P01,D06,0,0,0
1436,57.0,-16.0,18.0,1644578197.46875,P01,D06,0,0,0
1437,57.0,-16.0,18.0,1644578197.5,P01,D06,0,0,0
1438,56.0,-17.0,20.0,1644578197.53125,P01,D06,0,0,0
1439,58.0,-17.0,19.0,1644578197.5625,P01,D06,0,0,0
1440,57.0,-16.0,18.0,1644578197.59375,P01,D06,0,0,0
1441,58.0,-16.0,18.0,1644578197.625,P01,D06,0,0,0
1442,57.0,-16.0,19.0,1644578197.65625,P01,D06,0,0,0
1443,57.0,-17.0,19.0,1644578197.6875,P01,D06,0,0,0
1444,57.0,-16.0,18.0,1644578197.71875,P01,D06,0,0,0
1445,57.0,-16.0,18.0,1644578197.75,P01,D06,0,0,0
1446,57.0,-16.0,19.0,1644578197.78125,P01,D06,0,0,0
1447,57.0,-16.0,18.0,1644578197.8125,P01,D06,0,0,0
1448,57.0,-17.0,18.0,1644578197.84375,P01,D06,0,0,0
1449,57.0,-16.0,18.0,1644578197.875,P01,D06,0,0,0
1450,58.0,-16.0,18.0,1644578197.90625,P01,D06,0,0,0
1451,57.0,-17.0,19.0,1644578197.9375,P01,D06,0,0,0
1452,57.0,-17.0,19.0,1644578197.96875,P01,D06,0,0,0
1453,57.0,-16.0,18.0,1644578198.0,P01,D06,0,0,0
1454,58.0,-16.0,18.0,1644578198.03125,P01,D06,0,0,0
1455,57.0,-16.0,18.0,1644578198.0625,P01,D06,0,0,0
1456,57.0,-17.0,18.0,1644578198.09375,P01,D06,0,0,0
1457,57.0,-17.0,19.0,1644578198.125,P01,D06,0,0,0
1458,57.0,-16.0,18.0,1644578198.15625,P01,D06,0,0,0
1459,57.0,-16.0,19.0,1644578198.1875,P01,D06,0,0,0
1460,57.0,-16.0,19.0,1644578198.21875,P01,D06,0,0,0
1461,57.0,-16.0,19.0,1644578198.25,P01,D06,0,0,0
1462,57.0,-16.0,19.0,1644578198.28125,P01,D06,0,0,0
1463,57.0,-17.0,19.0,1644578198.3125,P01,D06,0,0,0
1464,56.0,-16.0,18.0,1644578198.34375,P01,D06,0,0,0
1465,57.0,-17.0,18.0,1644578198.375,P01,D06,0,0,0
1466,52.0,-16.0,20.0,1644578198.40625,P01,D06,0,0,0
1467,60.0,-16.0,18.0,1644578198.4375,P01,D06,0,0,0
1468,60.0,-16.0,17.0,1644578198.46875,P01,D06,0,0,0
1469,58.0,-16.0,17.0,1644578198.5,P01,D06,0,0,0
1470,56.0,-16.0,20.0,1644578198.53125,P01,D06,0,0,0
1471,54.0,-17.0,22.0,1644578198.5625,P01,D06,0,0,0
1472,60.0,-18.0,20.0,1644578198.59375,P01,D06,0,0,0
1473,57.0,-18.0,20.0,1644578198.625,P01,D06,0,0,0
1474,54.0,-17.0,20.0,1644578198.65625,P01,D06,0,0,0
1475,55.0,-17.0,19.0,1644578198.6875,P01,D06,0,0,0
1476,55.0,-17.0,20.0,1644578198.71875,P01,D06,0,0,0
1477,58.0,-17.0,19.0,1644578198.75,P01,D06,0,0,0
1478,57.0,-17.0,19.0,1644578198.78125,P01,D06,0,0,0
1479,58.0,-16.0,17.0,1644578198.8125,P01,D06,0,0,0
1480,57.0,-16.0,18.0,1644578198.84375,P01,D06,0,0,0
1481,58.0,-17.0,18.0,1644578198.875,P01,D06,0,0,0
1482,58.0,-18.0,18.0,1644578198.90625,P01,D06,0,0,0
1483,56.0,-18.0,19.0,1644578198.9375,P01,D06,0,0,0
1484,57.0,-16.0,18.0,1644578198.96875,P01,D06,0,0,0
1485,56.0,-16.0,18.0,1644578199.0,P01,D06,0,0,0
1486,58.0,-16.0,17.0,1644578199.03125,P01,D06,0,0,0
1487,59.0,-17.0,17.0,1644578199.0625,P01,D06,0,0,0
1488,57.0,-17.0,18.0,1644578199.09375,P01,D06,0,0,0
1489,57.0,-17.0,18.0,1644578199.125,P01,D06,0,0,0
1490,58.0,-17.0,17.0,1644578199.15625,P01,D06,0,0,0
1491,57.0,-17.0,17.0,1644578199.1875,P01,D06,0,0,0
1492,57.0,-17.0,18.0,1644578199.21875,P01,D06,0,0,0
1493,56.0,-17.0,18.0,1644578199.25,P01,D06,0,0,0
1494,57.0,-17.0,18.0,1644578199.28125,P01,D06,0,0,0
1495,58.0,-16.0,17.0,1644578199.3125,P01,D06,0,0,0
1496,58.0,-17.0,17.0,1644578199.34375,P01,D06,0,0,0
1497,57.0,-17.0,17.0,1644578199.375,P01,D06,0,0,0
1498,57.0,-17.0,17.0,1644578199.40625,P01,D06,0,0,0
1499,58.0,-17.0,17.0,1644578199.4375,P01,D06,0,0,0
1500,57.0,-17.0,17.0,1644578199.46875,P01,D06,0,0,0
1501,57.0,-16.0,17.0,1644578199.5,P01,D06,0,0,0
1502,57.0,-17.0,17.0,1644578199.53125,P01,D06,0,0,0
1503,58.0,-17.0,17.0,1644578199.5625,P01,D06,0,0,0
1504,57.0,-17.0,17.0,1644578199.59375,P01,D06,0,0,0
1505,58.0,-16.0,17.0,1644578199.625,P01,D06,0,0,0
1506,58.0,-17.0,17.0,1644578199.65625,P01,D06,0,0,0
1507,57.0,-17.0,17.0,1644578199.6875,P01,D06,0,0,0
1508,57.0,-17.0,17.0,1644578199.71875,P01,D06,0,0,0
1509,58.0,-17.0,17.0,1644578199.75,P01,D06,0,0,0
1510,58.0,-16.0,17.0,1644578199.78125,P01,D06,0,0,0
1511,55.0,-17.0,18.0,1644578199.8125,P01,D06,0,0,0
1512,53.0,-16.0,18.0,1644578199.84375,P01,D06,0,0,0
1513,62.0,-17.0,17.0,1644578199.875,P01,D06,0,0,0
1514,59.0,-17.0,16.0,1644578199.90625,P01,D06,0,0,0
1515,58.0,-16.0,16.0,1644578199.9375,P01,D06,0,0,0
1516,56.0,-17.0,18.0,1644578199.96875,P01,D06,0,0,0
1517,56.0,-18.0,19.0,1644578200.0,P01,D06,0,0,0
1518,57.0,-17.0,18.0,1644578200.03125,P01,D06,0,0,0
1519,58.0,-17.0,17.0,1644578200.0625,P01,D06,0,0,0
1520,57.0,-17.0,18.0,1644578200.09375,P01,D06,0,0,0
1521,57.0,-17.0,19.0,1644578200.125,P01,D06,0,0,0
1522,56.0,-17.0,18.0,1644578200.15625,P01,D06,0,0,0
1523,56.0,-17.0,18.0,1644578200.1875,P01,D06,0,0,0
1524,57.0,-16.0,17.0,1644578200.21875,P01,D06,0,0,0
1525,59.0,-18.0,17.0,1644578200.25,P01,D06,0,0,0
1526,57.0,-17.0,18.0,1644578200.28125,P01,D06,0,0,0
1527,57.0,-16.0,17.0,1644578200.3125,P01,D06,0,0,0
1528,58.0,-16.0,17.0,1644578200.34375,P01,D06,0,0,0
1529,58.0,-16.0,17.0,1644578200.375,P01,D06,0,0,0
1530,58.0,-17.0,17.0,1644578200.40625,P01,D06,0,0,0
1531,58.0,-17.0,17.0,1644578200.4375,P01,D06,0,0,0
1532,57.0,-16.0,17.0,1644578200.46875,P01,D06,0,0,0
1533,56.0,-17.0,18.0,1644578200.5,P01,D06,0,0,0
1534,58.0,-17.0,17.0,1644578200.53125,P01,D06,0,0,0
1535,57.0,-17.0,17.0,1644578200.5625,P01,D06,0,0,0
1536,57.0,-17.0,17.0,1644578200.59375,P01,D06,0,0,0
1537,57.0,-17.0,17.0,1644578200.625,P01,D06,0,0,0
1538,57.0,-17.0,18.0,1644578200.65625,P01,D06,0,0,0
1539,58.0,-17.0,17.0,1644578200.6875,P01,D06,0,0,0
1540,58.0,-17.0,17.0,1644578200.71875,P01,D06,0,0,0
1541,58.0,-16.0,17.0,1644578200.75,P01,D06,0,0,0
1542,58.0,-16.0,17.0,1644578200.78125,P01,D06,0,0,0
1543,58.0,-16.0,17.0,1644578200.8125,P01,D06,0,0,0
1544,58.0,-17.0,17.0,1644578200.84375,P01,D06,0,0,0
1545,57.0,-17.0,17.0,1644578200.875,P01,D06,0,0,0
1546,58.0,-17.0,17.0,1644578200.90625,P01,D06,0,0,0
1547,58.0,-16.0,17.0,1644578200.9375,P01,D06,0,0,0
1548,57.0,-16.0,17.0,1644578200.96875,P01,D06,0,0,0
1549,57.0,-17.0,18.0,1644578201.0,P01,D06,0,0,0
1550,58.0,-16.0,18.0,1644578201.03125,P01,D06,0,0,0
1551,59.0,-16.0,16.0,1644578201.0625,P01,D06,0,0,0
1552,56.0,-16.0,18.0,1644578201.09375,P01,D06,0,0,0
1553,57.0,-16.0,17.0,1644578201.125,P01,D06,0,0,0
1554,59.0,-16.0,15.0,1644578201.15625,P01,D06,0,0,0
1555,58.0,-16.0,15.0,1644578201.1875,P01,D06,0,0,0
1556,55.0,-16.0,17.0,1644578201.21875,P01,D06,0,0,0
1557,57.0,-16.0,16.0,1644578201.25,P01,D06,0,0,0
1558,61.0,-16.0,13.0,1644578201.28125,P01,D06,0,0,0
1559,58.0,-15.0,14.0,1644578201.3125,P01,D06,0,0,0
1560,56.0,-15.0,13.0,1644578201.34375,P01,D06,0,0,0
1561,59.0,-17.0,12.0,1644578201.375,P01,D06,0,0,0
1562,63.0,-16.0,10.0,1644578201.40625,P01,D06,0,0,0
1563,63.0,-16.0,8.0,1644578201.4375,P01,D06,0,0,0
1564,61.0,-15.0,6.0,1644578201.46875,P01,D06,0,0,0
1565,58.0,-17.0,7.0,1644578201.5,P01,D06,0,0,0
1566,60.0,-19.0,10.0,1644578201.53125,P01,D06,0,0,0
1567,56.0,-17.0,11.0,1644578201.5625,P01,D06,0,0,0
1568,60.0,-19.0,9.0,1644578201.59375,P01,D06,0,0,0
1569,61.0,-18.0,8.0,1644578201.625,P01,D06,0,0,0
1570,58.0,-17.0,7.0,1644578201.65625,P01,D06,0,0,0
1571,60.0,-16.0,5.0,1644578201.6875,P01,D06,0,0,0
1572,61.0,-16.0,5.0,1644578201.71875,P01,D06,0,0,0
1573,62.0,-17.0,6.0,1644578201.75,P01,D06,0,0,0
1574,60.0,-16.0,7.0,1644578201.78125,P01,D06,0,0,0
1575,60.0,-16.0,4.0,1644578201.8125,P01,D06,0,0,0
1576,61.0,-17.0,5.0,1644578201.84375,P01,D06,0,0,0
1577,60.0,-16.0,5.0,1644578201.875,P01,D06,0,0,0
1578,60.0,-17.0,6.0,1644578201.90625,P01,D06,0,0,0
1579,61.0,-16.0,6.0,1644578201.9375,P01,D06,0,0,0
1580,59.0,-16.0,6.0,1644578201.96875,P01,D06,0,0,0
1581,59.0,-15.0,4.0,1644578202.0,P01,D06,0,0,0
1582,60.0,-15.0,5.0,1644578202.03125,P01,D06,0,0,0
1583,63.0,-16.0,5.0,1644578202.0625,P01,D06,0,0,0
1584,60.0,-14.0,5.0,1644578202.09375,P01,D06,0,0,0
1585,58.0,-15.0,5.0,1644578202.125,P01,D06,0,0,0
1586,59.0,-16.0,7.0,1644578202.15625,P01,D06,0,0,0
1587,61.0,-16.0,5.0,1644578202.1875,P01,D06,0,0,0
1588,61.0,-15.0,4.0,1644578202.21875,P01,D06,0,0,0
1589,60.0,-16.0,6.0,1644578202.25,P01,D06,0,0,0
1590,61.0,-16.0,6.0,1644578202.28125,P01,D06,0,0,0
1591,60.0,-16.0,6.0,1644578202.3125,P01,D06,0,0,0
1592,60.0,-15.0,6.0,1644578202.34375,P01,D06,0,0,0
1593,61.0,-16.0,7.0,1644578202.375,P01,D06,0,0,0
1594,60.0,-17.0,8.0,1644578202.40625,P01,D06,0,0,0
1595,58.0,-16.0,8.0,1644578202.4375,P01,D06,0,0,0
1596,60.0,-16.0,7.0,1644578202.46875,P01,D06,0,0,0
1597,61.0,-16.0,7.0,1644578202.5,P01,D06,0,0,0
1598,60.0,-16.0,9.0,1644578202.53125,P01,D06,0,0,0
1599,60.0,-16.0,9.0,1644578202.5625,P01,D06,0,0,0
1600,59.0,-16.0,10.0,1644578202.59375,P01,D06,0,0,0
1601,61.0,-17.0,10.0,1644578202.625,P01,D06,0,0,0
1602,58.0,-17.0,13.0,1644578202.65625,P01,D06,0,0,0
1603,51.0,-16.0,15.0,1644578202.6875,P01,D06,0,0,0
1604,62.0,-16.0,12.0,1644578202.71875,P01,D06,0,0,0
1605,60.0,-17.0,12.0,1644578202.75,P01,D06,0,0,0
1606,57.0,-17.0,14.0,1644578202.78125,P01,D06,0,0,0
1607,58.0,-17.0,13.0,1644578202.8125,P01,D06,0,0,0
1608,59.0,-17.0,13.0,1644578202.84375,P01,D06,0,0,0
1609,59.0,-17.0,14.0,1644578202.875,P01,D06,0,0,0
1610,58.0,-17.0,14.0,1644578202.90625,P01,D06,0,0,0
1611,58.0,-16.0,13.0,1644578202.9375,P01,D06,0,0,0
1612,58.0,-16.0,13.0,1644578202.96875,P01,D06,0,0,0
1613,58.0,-17.0,14.0,1644578203.0,P01,D06,0,0,0
1614,59.0,-17.0,14.0,1644578203.03125,P01,D06,0,0,0
1615,62.0,-17.0,13.0,1644578203.0625,P01,D06,0,0,0
1616,60.0,-17.0,13.0,1644578203.09375,P01,D06,0,0,0
1617,57.0,-17.0,14.0,1644578203.125,P01,D06,0,0,0
1618,58.0,-17.0,13.0,1644578203.15625,P01,D06,0,0,0
1619,58.0,-16.0,13.0,1644578203.1875,P01,D06,0,0,0
1620,57.0,-16.0,12.0,1644578203.21875,P01,D06,0,0,0
1621,59.0,-16.0,12.0,1644578203.25,P01,D06,0,0,0
1622,62.0,-17.0,11.0,1644578203.28125,P01,D06,0,0,0
1623,62.0,-17.0,11.0,1644578203.3125,P01,D06,0,0,0
1624,59.0,-17.0,12.0,1644578203.34375,P01,D06,0,0,0
1625,60.0,-18.0,12.0,1644578203.375,P01,D06,0,0,0
1626,56.0,-17.0,11.0,1644578203.40625,P01,D06,0,0,0
1627,54.0,-15.0,14.0,1644578203.4375,P01,D06,0,0,0
1628,66.0,-17.0,12.0,1644578203.46875,P01,D06,0,0,0
1629,63.0,-17.0,11.0,1644578203.5,P01,D06,0,0,0
1630,58.0,-17.0,11.0,1644578203.53125,P01,D06,0,0,0
1631,57.0,-16.0,12.0,1644578203.5625,P01,D06,0,0,0
1632,57.0,-16.0,13.0,1644578203.59375,P01,D06,0,0,0
1633,60.0,-16.0,13.0,1644578203.625,P01,D06,0,0,0
1634,60.0,-16.0,12.0,1644578203.65625,P01,D06,0,0,0
1635,59.0,-17.0,12.0,1644578203.6875,P01,D06,0,0,0
1636,58.0,-17.0,12.0,1644578203.71875,P01,D06,0,0,0
1637,58.0,-17.0,13.0,1644578203.75,P01,D06,0,0,0
1638,58.0,-17.0,14.0,1644578203.78125,P01,D06,0,0,0
1639,58.0,-16.0,14.0,1644578203.8125,P01,D06,0,0,0
1640,59.0,-16.0,13.0,1644578203.84375,P01,D06,0,0,0
1641,59.0,-15.0,12.0,1644578203.875,P01,D06,0,0,0
1642,59.0,-16.0,12.0,1644578203.90625,P01,D06,0,0,0
1643,59.0,-15.0,12.0,1644578203.9375,P01,D06,0,0,0
1644,59.0,-15.0,12.0,1644578203.96875,P01,D06,0,0,0
1645,59.0,-15.0,12.0,1644578204.0,P01,D06,0,0,0
1646,58.0,-16.0,12.0,1644578204.03125,P01,D06,0,0,0
1647,59.0,-17.0,12.0,1644578204.0625,P01,D06,0,0,0
1648,58.0,-18.0,12.0,1644578204.09375,P01,D06,0,0,0
1649,58.0,-18.0,13.0,1644578204.125,P01,D06,0,0,0
1650,58.0,-18.0,13.0,1644578204.15625,P01,D06,0,0,0
1651,58.0,-18.0,13.0,1644578204.1875,P01,D06,0,0,0
1652,58.0,-18.0,13.0,1644578204.21875,P01,D06,0,0,0
1653,58.0,-18.0,13.0,1644578204.25,P01,D06,0,0,0
1654,59.0,-18.0,13.0,1644578204.28125,P01,D06,0,0,0
1655,59.0,-18.0,13.0,1644578204.3125,P01,D06,0,0,0
1656,58.0,-18.0,13.0,1644578204.34375,P01,D06,0,0,0
1657,58.0,-18.0,14.0,1644578204.375,P01,D06,0,0,0
1658,58.0,-18.0,14.0,1644578204.40625,P01,D06,0,0,0
1659,58.0,-19.0,13.0,1644578204.4375,P01,D06,0,0,0
1660,58.0,-19.0,13.0,1644578204.46875,P01,D06,0,0,0
1661,58.0,-19.0,14.0,1644578204.5,P01,D06,0,0,0
1662,58.0,-19.0,14.0,1644578204.53125,P01,D06,0,0,0
1663,58.0,-19.0,14.0,1644578204.5625,P01,D06,0,0,0
1664,57.0,-19.0,15.0,1644578204.59375,P01,D06,0,0,0
1665,57.0,-19.0,14.0,1644578204.625,P01,D06,0,0,0
1666,58.0,-19.0,15.0,1644578204.65625,P01,D06,0,0,0
1667,57.0,-18.0,15.0,1644578204.6875,P01,D06,0,0,0
1668,58.0,-18.0,15.0,1644578204.71875,P01,D06,0,0,0
1669,58.0,-18.0,15.0,1644578204.75,P01,D06,0,0,0
1670,58.0,-18.0,14.0,1644578204.78125,P01,D06,0,0,0
1671,58.0,-18.0,14.0,1644578204.8125,P01,D06,0,0,0
1672,58.0,-18.0,14.0,1644578204.84375,P01,D06,0,0,0
1673,58.0,-19.0,14.0,1644578204.875,P01,D06,0,0,0
1674,58.0,-19.0,14.0,1644578204.90625,P01,D06,0,0,0
1675,58.0,-19.0,14.0,1644578204.9375,P01,D06,0,0,0
1676,58.0,-19.0,15.0,1644578204.96875,P01,D06,0,0,0
1677,58.0,-19.0,15.0,1644578205.0,P01,D06,0,0,0
1678,58.0,-19.0,15.0,1644578205.03125,P01,D06,0,0,0
1679,57.0,-19.0,15.0,1644578205.0625,P01,D06,0,0,0
1680,57.0,-20.0,15.0,1644578205.09375,P01,D06,0,0,0
1681,56.0,-20.0,16.0,1644578205.125,P01,D06,0,0,0
1682,57.0,-20.0,16.0,1644578205.15625,P01,D06,0,0,0
1683,56.0,-20.0,17.0,1644578205.1875,P01,D06,0,0,0
1684,56.0,-21.0,17.0,1644578205.21875,P01,D06,0,0,0
1685,56.0,-21.0,17.0,1644578205.25,P01,D06,0,0,0
1686,56.0,-21.0,17.0,1644578205.28125,P01,D06,0,0,0
1687,56.0,-21.0,17.0,1644578205.3125,P01,D06,0,0,0
1688,55.0,-22.0,18.0,1644578205.34375,P01,D06,0,0,0
1689,55.0,-22.0,18.0,1644578205.375,P01,D06,0,0,0
1690,56.0,-22.0,18.0,1644578205.40625,P01,D06,0,0,0
1691,56.0,-22.0,18.0,1644578205.4375,P01,D06,0,0,0
1692,55.0,-21.0,18.0,1644578205.46875,P01,D06,0,0,0
1693,56.0,-22.0,18.0,1644578205.5,P01,D06,0,0,0
1694,56.0,-22.0,18.0,1644578205.53125,P01,D06,0,0,0
1695,55.0,-22.0,18.0,1644578205.5625,P01,D06,0,0,0
1696,55.0,-22.0,18.0,1644578205.59375,P01,D06,0,0,0
1697,55.0,-22.0,18.0,1644578205.625,P01,D06,0,0,0
1698,55.0,-22.0,18.0,1644578205.65625,P01,D06,0,0,0
1699,55.0,-22.0,18.0,1644578205.6875,P01,D06,0,0,0
1700,55.0,-22.0,18.0,1644578205.71875,P01,D06,0,0,0
1701,55.0,-22.0,18.0,1644578205.75,P01,D06,0,0,0
1702,55.0,-22.0,18.0,1644578205.78125,P01,D06,0,0,0
1703,55.0,-22.0,18.0,1644578205.8125,P01,D06,0,0,0
1704,55.0,-23.0,18.0,1644578205.84375,P01,D06,0,0,0
1705,55.0,-22.0,18.0,1644578205.875,P01,D06,0,0,0
1706,55.0,-22.0,18.0,1644578205.90625,P01,D06,0,0,0
1707,55.0,-22.0,18.0,1644578205.9375,P01,D06,0,0,0
1708,55.0,-22.0,19.0,1644578205.96875,P01,D06,0,0,0
1709,55.0,-22.0,18.0,1644578206.0,P01,D06,0,0,0
1710,55.0,-23.0,18.0,1644578206.03125,P01,D06,0,0,0
1711,55.0,-23.0,18.0,1644578206.0625,P01,D06,0,0,0
1712,55.0,-22.0,18.0,1644578206.09375,P01,D06,0,0,0
1713,55.0,-22.0,19.0,1644578206.125,P01,D06,0,0,0
1714,55.0,-23.0,19.0,1644578206.15625,P01,D06,0,0,0
1715,55.0,-23.0,19.0,1644578206.1875,P01,D06,0,0,0
1716,55.0,-23.0,19.0,1644578206.21875,P01,D06,0,0,0
1717,55.0,-23.0,18.0,1644578206.25,P01,D06,0,0,0
1718,55.0,-23.0,18.0,1644578206.28125,P01,D06,0,0,0
1719,55.0,-23.0,18.0,1644578206.3125,P01,D06,0,0,0
1720,55.0,-23.0,18.0,1644578206.34375,P01,D06,0,0,0
1721,55.0,-23.0,18.0,1644578206.375,P01,D06,0,0,0
1722,55.0,-23.0,18.0,1644578206.40625,P01,D06,0,0,0
1723,55.0,-23.0,18.0,1644578206.4375,P01,D06,0,0,0
1724,55.0,-23.0,18.0,1644578206.46875,P01,D06,0,0,0
1725,55.0,-23.0,18.0,1644578206.5,P01,D06,0,0,0
1726,55.0,-23.0,18.0,1644578206.53125,P01,D06,0,0,0
1727,55.0,-23.0,18.0,1644578206.5625,P01,D06,0,0,0
1728,55.0,-23.0,19.0,1644578206.59375,P01,D06,0,0,0
1729,55.0,-23.0,18.0,1644578206.625,P01,D06,0,0,0
1730,55.0,-23.0,18.0,1644578206.65625,P01,D06,0,0,0
1731,55.0,-23.0,18.0,1644578206.6875,P01,D06,0,0,0
1732,55.0,-23.0,18.0,1644578206.71875,P01,D06,0,0,0
1733,55.0,-23.0,18.0,1644578206.75,P01,D06,0,0,0
1734,55.0,-23.0,19.0,1644578206.78125,P01,D06,0,0,0
1735,55.0,-23.0,19.0,1644578206.8125,P01,D06,0,0,0
1736,55.0,-23.0,18.0,1644578206.84375,P01,D06,0,0,0
1737,55.0,-23.0,18.0,1644578206.875,P01,D06,0,0,0
1738,55.0,-23.0,18.0,1644578206.90625,P01,D06,0,0,0
1739,55.0,-23.0,18.0,1644578206.9375,P01,D06,0,0,0
1740,55.0,-23.0,19.0,1644578206.96875,P01,D06,0,0,0
1741,55.0,-23.0,19.0,1644578207.0,P01,D06,0,0,0
1742,55.0,-22.0,19.0,1644578207.03125,P01,D06,0,0,0
1743,55.0,-22.0,19.0,1644578207.0625,P01,D06,0,0,0
1744,56.0,-21.0,19.0,1644578207.09375,P01,D06,0,0,0
1745,56.0,-22.0,18.0,1644578207.125,P01,D06,0,0,0
1746,55.0,-22.0,18.0,1644578207.15625,P01,D06,0,0,0
1747,55.0,-23.0,18.0,1644578207.1875,P01,D06,0,0,0
1748,55.0,-23.0,18.0,1644578207.21875,P01,D06,0,0,0
1749,55.0,-25.0,18.0,1644578207.25,P01,D06,0,0,0
1750,54.0,-26.0,19.0,1644578207.28125,P01,D06,0,0,0
1751,54.0,-25.0,20.0,1644578207.3125,P01,D06,0,0,0
1752,54.0,-24.0,21.0,1644578207.34375,P01,D06,0,0,0
1753,53.0,-22.0,20.0,1644578207.375,P01,D06,0,0,0
1754,53.0,-22.0,20.0,1644578207.40625,P01,D06,0,0,0
1755,55.0,-22.0,20.0,1644578207.4375,P01,D06,0,0,0
1756,55.0,-22.0,19.0,1644578207.46875,P01,D06,0,0,0
1757,55.0,-22.0,20.0,1644578207.5,P01,D06,0,0,0
1758,55.0,-23.0,20.0,1644578207.53125,P01,D06,0,0,0
1759,55.0,-23.0,20.0,1644578207.5625,P01,D06,0,0,0
1760,54.0,-24.0,20.0,1644578207.59375,P01,D06,0,0,0
1761,54.0,-24.0,20.0,1644578207.625,P01,D06,0,0,0
1762,54.0,-24.0,20.0,1644578207.65625,P01,D06,0,0,0
1763,54.0,-24.0,20.0,1644578207.6875,P01,D06,0,0,0
1764,54.0,-23.0,20.0,1644578207.71875,P01,D06,0,0,0
1765,54.0,-23.0,20.0,1644578207.75,P01,D06,0,0,0
1766,55.0,-23.0,20.0,1644578207.78125,P01,D06,0,0,0
1767,54.0,-23.0,21.0,1644578207.8125,P01,D06,0,0,0
1768,54.0,-23.0,20.0,1644578207.84375,P01,D06,0,0,0
1769,54.0,-23.0,20.0,1644578207.875,P01,D06,0,0,0
1770,55.0,-23.0,20.0,1644578207.90625,P01,D06,0,0,0
1771,55.0,-23.0,20.0,1644578207.9375,P01,D06,0,0,0
1772,54.0,-23.0,20.0,1644578207.96875,P01,D06,0,0,0
1773,54.0,-24.0,20.0,1644578208.0,P01,D06,0,0,0
1774,54.0,-24.0,20.0,1644578208.03125,P01,D06,0,0,0
1775,54.0,-24.0,20.0,1644578208.0625,P01,D06,0,0,0
1776,54.0,-23.0,20.0,1644578208.09375,P01,D06,0,0,0
1777,54.0,-23.0,20.0,1644578208.125,P01,D06,0,0,0
1778,54.0,-23.0,20.0,1644578208.15625,P01,D06,0,0,0
1779,54.0,-23.0,20.0,1644578208.1875,P01,D06,0,0,0
1780,54.0,-23.0,20.0,1644578208.21875,P01,D06,0,0,0
1781,54.0,-23.0,21.0,1644578208.25,P01,D06,0,0,0
1782,54.0,-23.0,21.0,1644578208.28125,P01,D06,0,0,0
1783,55.0,-22.0,20.0,1644578208.3125,P01,D06,0,0,0
1784,55.0,-22.0,19.0,1644578208.34375,P01,D06,0,0,0
1785,55.0,-22.0,19.0,1644578208.375,P01,D06,0,0,0
1786,55.0,-23.0,20.0,1644578208.40625,P01,D06,0,0,0
1787,55.0,-23.0,20.0,1644578208.4375,P01,D06,0,0,0
1788,54.0,-24.0,20.0,1644578208.46875,P01,D06,0,0,0
1789,54.0,-24.0,21.0,1644578208.5,P01,D06,0,0,0
1790,54.0,-24.0,21.0,1644578208.53125,P01,D06,0,0,0
1791,54.0,-24.0,20.0,1644578208.5625,P01,D06,0,0,0
1792,54.0,-23.0,20.0,1644578208.59375,P01,D06,0,0,0
1793,53.0,-23.0,20.0,1644578208.625,P01,D06,0,0,0
1794,54.0,-24.0,20.0,1644578208.65625,P01,D06,0,0,0
1795,55.0,-24.0,21.0,1644578208.6875,P01,D06,0,0,0
1796,54.0,-24.0,21.0,1644578208.71875,P01,D06,0,0,0
1797,54.0,-23.0,20.0,1644578208.75,P01,D06,0,0,0
1798,54.0,-23.0,20.0,1644578208.78125,P01,D06,0,0,0
1799,55.0,-22.0,20.0,1644578208.8125,P01,D06,0,0,0
1800,55.0,-22.0,20.0,1644578208.84375,P01,D06,0,0,0
1801,54.0,-23.0,20.0,1644578208.875,P01,D06,0,0,0
1802,54.0,-23.0,20.0,1644578208.90625,P01,D06,0,0,0
1803,54.0,-24.0,21.0,1644578208.9375,P01,D06,0,0,0
1804,54.0,-23.0,20.0,1644578208.96875,P01,D06,0,0,0
1805,55.0,-23.0,20.0,1644578209.0,P01,D06,0,0,0
1806,55.0,-23.0,19.0,1644578209.03125,P01,D06,0,0,0
1807,55.0,-23.0,20.0,1644578209.0625,P01,D06,0,0,0
1808,54.0,-23.0,20.0,1644578209.09375,P01,D06,0,0,0
1809,54.0,-23.0,20.0,1644578209.125,P01,D06,0,0,0
1810,54.0,-24.0,21.0,1644578209.15625,P01,D06,0,0,0
1811,54.0,-23.0,20.0,1644578209.1875,P01,D06,0,0,0
1812,54.0,-23.0,20.0,1644578209.21875,P01,D06,0,0,0
1813,54.0,-23.0,20.0,1644578209.25,P01,D06,0,0,0
1814,54.0,-23.0,20.0,1644578209.28125,P01,D06,0,0,0
1815,54.0,-24.0,20.0,1644578209.3125,P01,D06,0,0,0
1816,54.0,-24.0,20.0,1644578209.34375,P01,D06,0,0,0
1817,54.0,-24.0,20.0,1644578209.375,P01,D06,0,0,0
1818,54.0,-24.0,20.0,1644578209.40625,P01,D06,0,0,0
1819,54.0,-23.0,20.0,1644578209.4375,P01,D06,0,0,0
1820,54.0,-23.0,20.0,1644578209.46875,P01,D06,0,0,0
1821,54.0,-24.0,20.0,1644578209.5,P01,D06,0,0,0
1822,54.0,-24.0,20.0,1644578209.53125,P01,D06,0,0,0
1823,54.0,-24.0,20.0,1644578209.5625,P01,D06,0,0,0
1824,54.0,-24.0,20.0,1644578209.59375,P01,D06,0,0,0
1825,54.0,-24.0,20.0,1644578209.625,P01,D06,0,0,0
1826,54.0,-24.0,20.0,1644578209.65625,P01,D06,0,0,0
1827,54.0,-24.0,20.0,1644578209.6875,P01,D06,0,0,0
1828,54.0,-24.0,20.0,1644578209.71875,P01,D06,0,0,0
1829,54.0,-24.0,20.0,1644578209.75,P01,D06,0,0,0
1830,54.0,-24.0,20.0,1644578209.78125,P01,D06,0,0,0
1831,54.0,-24.0,20.0,1644578209.8125,P01,D06,0,0,0
1832,54.0,-24.0,20.0,1644578209.84375,P01,D06,0,0,0
1833,54.0,-24.0,20.0,1644578209.875,P01,D06,0,0,0
1834,54.0,-24.0,20.0,1644578209.90625,P01,D06,0,0,0
1835,54.0,-24.0,20.0,1644578209.9375,P01,D06,0,0,0
1836,54.0,-24.0,20.0,1644578209.96875,P01,D06,0,0,0
1837,54.0,-24.0,20.0,1644578210.0,P01,D06,0,0,0
1838,54.0,-24.0,20.0,1644578210.03125,P01,D06,0,0,0
1839,54.0,-24.0,20.0,1644578210.0625,P01,D06,0,0,0
1840,54.0,-24.0,20.0,1644578210.09375,P01,D06,0,0,0
1841,54.0,-24.0,20.0,1644578210.125,P01,D06,0,0,0
1842,54.0,-24.0,20.0,1644578210.15625,P01,D06,0,0,0
1843,54.0,-24.0,20.0,1644578210.1875,P01,D06,0,0,0
1844,54.0,-24.0,20.0,1644578210.21875,P01,D06,0,0,0
1845,54.0,-24.0,20.0,1644578210.25,P01,D06,0,0,0
1846,54.0,-24.0,20.0,1644578210.28125,P01,D06,0,0,0
1847,54.0,-23.0,20.0,1644578210.3125,P01,D06,0,0,0
1848,54.0,-24.0,20.0,1644578210.34375,P01,D06,0,0,0
1849,54.0,-24.0,20.0,1644578210.375,P01,D06,0,0,0
1850,54.0,-24.0,20.0,1644578210.40625,P01,D06,0,0,0
1851,54.0,-24.0,20.0,1644578210.4375,P01,D06,0,0,0
1852,54.0,-24.0,20.0,1644578210.46875,P01,D06,0,0,0
1853,54.0,-23.0,20.0,1644578210.5,P01,D06,0,0,0
1854,54.0,-24.0,20.0,1644578210.53125,P01,D06,0,0,0
1855,54.0,-24.0,20.0,1644578210.5625,P01,D06,0,0,0
1856,54.0,-24.0,20.0,1644578210.59375,P01,D06,0,0,0
1857,54.0,-24.0,20.0,1644578210.625,P01,D06,0,0,0
1858,54.0,-24.0,20.0,1644578210.65625,P01,D06,0,0,0
1859,54.0,-24.0,21.0,1644578210.6875,P01,D06,0,0,0
1860,54.0,-24.0,21.0,1644578210.71875,P01,D06,0,0,0
1861,54.0,-24.0,20.0,1644578210.75,P01,D06,0,0,0
1862,54.0,-24.0,20.0,1644578210.78125,P01,D06,0,0,0
1863,54.0,-24.0,20.0,1644578210.8125,P01,D06,0,0,0
1864,54.0,-24.0,21.0,1644578210.84375,P01,D06,0,0,0
1865,54.0,-24.0,21.0,1644578210.875,P01,D06,0,0,0
1866,54.0,-24.0,21.0,1644578210.90625,P01,D06,0,0,0
1867,54.0,-23.0,21.0,1644578210.9375,P01,D06,0,0,0
1868,54.0,-24.0,20.0,1644578210.96875,P01,D06,0,0,0
1869,54.0,-24.0,20.0,1644578211.0,P01,D06,0,0,0
1870,54.0,-24.0,20.0,1644578211.03125,P01,D06,0,0,0
1871,54.0,-24.0,20.0,1644578211.0625,P01,D06,0,0,0
1872,54.0,-24.0,21.0,1644578211.09375,P01,D06,0,0,0
1873,54.0,-23.0,20.0,1644578211.125,P01,D06,0,0,0
1874,54.0,-24.0,21.0,1644578211.15625,P01,D06,0,0,0
1875,54.0,-24.0,21.0,1644578211.1875,P01,D06,0,0,0
1876,54.0,-24.0,21.0,1644578211.21875,P01,D06,0,0,0
1877,54.0,-24.0,21.0,1644578211.25,P01,D06,0,0,0
1878,54.0,-24.0,21.0,1644578211.28125,P01,D06,0,0,0
1879,54.0,-23.0,21.0,1644578211.3125,P01,D06,0,0,0
1880,54.0,-23.0,21.0,1644578211.34375,P01,D06,0,0,0
1881,54.0,-23.0,21.0,1644578211.375,P01,D06,0,0,0
1882,54.0,-24.0,20.0,1644578211.40625,P01,D06,0,0,0
1883,54.0,-24.0,21.0,1644578211.4375,P01,D06,0,0,0
1884,54.0,-24.0,21.0,1644578211.46875,P01,D06,0,0,0
1885,54.0,-24.0,21.0,1644578211.5,P01,D06,0,0,0
1886,54.0,-24.0,21.0,1644578211.53125,P01,D06,0,0,0
1887,54.0,-24.0,21.0,1644578211.5625,P01,D06,0,0,0
1888,54.0,-24.0,21.0,1644578211.59375,P01,D06,0,0,0
1889,54.0,-24.0,21.0,1644578211.625,P01,D06,0,0,0
1890,54.0,-24.0,21.0,1644578211.65625,P01,D06,0,0,0
1891,54.0,-24.0,21.0,1644578211.6875,P01,D06,0,0,0
1892,54.0,-24.0,21.0,1644578211.71875,P01,D06,0,0,0
1893,54.0,-23.0,20.0,1644578211.75,P01,D06,0,0,0
1894,54.0,-24.0,21.0,1644578211.78125,P01,D06,0,0,0
1895,54.0,-24.0,21.0,1644578211.8125,P01,D06,0,0,0
1896,54.0,-24.0,21.0,1644578211.84375,P01,D06,0,0,0
1897,54.0,-24.0,21.0,1644578211.875,P01,D06,0,0,0
1898,54.0,-23.0,21.0,1644578211.90625,P01,D06,0,0,0
1899,54.0,-23.0,21.0,1644578211.9375,P01,D06,0,0,0
1900,54.0,-24.0,21.0,1644578211.96875,P01,D06,0,0,0
1901,54.0,-23.0,21.0,1644578212.0,P01,D06,0,0,0
1902,54.0,-24.0,21.0,1644578212.03125,P01,D06,0,0,0
1903,54.0,-24.0,21.0,1644578212.0625,P01,D06,0,0,0
1904,54.0,-24.0,21.0,1644578212.09375,P01,D06,0,0,0
1905,54.0,-24.0,21.0,1644578212.125,P01,D06,0,0,0
1906,54.0,-24.0,21.0,1644578212.15625,P01,D06,0,0,0
1907,54.0,-24.0,21.0,1644578212.1875,P01,D06,0,0,0
1908,54.0,-24.0,21.0,1644578212.21875,P01,D06,0,0,0
1909,54.0,-24.0,21.0,1644578212.25,P01,D06,0,0,0
1910,54.0,-24.0,21.0,1644578212.28125,P01,D06,0,0,0
1911,54.0,-24.0,21.0,1644578212.3125,P01,D06,0,0,0
1912,54.0,-24.0,21.0,1644578212.34375,P01,D06,0,0,0
1913,54.0,-24.0,21.0,1644578212.375,P01,D06,0,0,0
1914,54.0,-24.0,21.0,1644578212.40625,P01,D06,0,0,0
1915,54.0,-23.0,21.0,1644578212.4375,P01,D06,0,0,0
1916,54.0,-24.0,21.0,1644578212.46875,P01,D06,0,0,0
1917,54.0,-24.0,21.0,1644578212.5,P01,D06,0,0,0
1918,54.0,-24.0,21.0,1644578212.53125,P01,D06,0,0,0
1919,54.0,-24.0,21.0,1644578212.5625,P01,D06,0,0,0
1920,54.0,-24.0,21.0,1644578212.59375,P01,D06,0,0,0
1921,54.0,-24.0,21.0,1644578212.625,P01,D06,0,0,0
1922,54.0,-23.0,21.0,1644578212.65625,P01,D06,0,0,0
1923,54.0,-24.0,21.0,1644578212.6875,P01,D06,0,0,0
1924,54.0,-24.0,21.0,1644578212.71875,P01,D06,0,0,0
1925,54.0,-24.0,21.0,1644578212.75,P01,D06,0,0,0
1926,54.0,-24.0,21.0,1644578212.78125,P01,D06,0,0,0
1927,54.0,-24.0,21.0,1644578212.8125,P01,D06,0,0,0
1928,54.0,-24.0,21.0,1644578212.84375,P01,D06,0,0,0
1929,54.0,-24.0,21.0,1644578212.875,P01,D06,0,0,0
1930,54.0,-24.0,21.0,1644578212.90625,P01,D06,0,0,0
1931,54.0,-24.0,21.0,1644578212.9375,P01,D06,0,0,0
1932,54.0,-24.0,21.0,1644578212.96875,P01,D06,0,0,0
1933,54.0,-24.0,21.0,1644578213.0,P01,D06,0,0,0
1934,54.0,-23.0,21.0,1644578213.03125,P01,D06,0,0,0
1935,54.0,-24.0,21.0,1644578213.0625,P01,D06,0,0,0
1936,54.0,-24.0,21.0,1644578213.09375,P01,D06,0,0,0
1937,53.0,-24.0,21.0,1644578213.125,P01,D06,0,0,0
1938,53.0,-24.0,21.0,1644578213.15625,P01,D06,0,0,0
1939,54.0,-24.0,21.0,1644578213.1875,P01,D06,0,0,0
1940,54.0,-24.0,21.0,1644578213.21875,P01,D06,0,0,0
1941,54.0,-24.0,21.0,1644578213.25,P01,D06,0,0,0
1942,53.0,-24.0,21.0,1644578213.28125,P01,D06,0,0,0
1943,54.0,-24.0,21.0,1644578213.3125,P01,D06,0,0,0
1944,54.0,-24.0,21.0,1644578213.34375,P01,D06,0,0,0
1945,54.0,-24.0,21.0,1644578213.375,P01,D06,0,0,0
1946,54.0,-24.0,21.0,1644578213.40625,P01,D06,0,0,0
1947,54.0,-24.0,21.0,1644578213.4375,P01,D06,0,0,0
1948,54.0,-24.0,21.0,1644578213.46875,P01,D06,0,0,0
1949,54.0,-24.0,21.0,1644578213.5,P01,D06,0,0,0
1950,54.0,-24.0,21.0,1644578213.53125,P01,D06,0,0,0
1951,54.0,-24.0,21.0,1644578213.5625,P01,D06,0,0,0
1952,54.0,-24.0,21.0,1644578213.59375,P01,D06,0,0,0
1953,53.0,-24.0,21.0,1644578213.625,P01,D06,0,0,0
1954,53.0,-24.0,21.0,1644578213.65625,P01,D06,0,0,0
1955,54.0,-24.0,21.0,1644578213.6875,P01,D06,0,0,0
1956,54.0,-24.0,21.0,1644578213.71875,P01,D06,0,0,0
1957,54.0,-24.0,21.0,1644578213.75,P01,D06,0,0,0
1958,54.0,-24.0,21.0,1644578213.78125,P01,D06,0,0,0
1959,54.0,-24.0,21.0,1644578213.8125,P01,D06,0,0,0
1960,54.0,-24.0,21.0,1644578213.84375,P01,D06,0,0,0
1961,53.0,-24.0,21.0,1644578213.875,P01,D06,0,0,0
1962,53.0,-24.0,21.0,1644578213.90625,P01,D06,0,0,0
1963,54.0,-24.0,21.0,1644578213.9375,P01,D06,0,0,0
1964,53.0,-24.0,21.0,1644578213.96875,P01,D06,0,0,0
1965,53.0,-24.0,21.0,1644578214.0,P01,D06,0,0,0
1966,53.0,-24.0,21.0,1644578214.03125,P01,D06,0,0,0
1967,54.0,-24.0,21.0,1644578214.0625,P01,D06,0,0,0
1968,53.0,-24.0,21.0,1644578214.09375,P01,D06,0,0,0
1969,53.0,-24.0,21.0,1644578214.125,P01,D06,0,0,0
1970,54.0,-24.0,21.0,1644578214.15625,P01,D06,0,0,0
1971,54.0,-24.0,21.0,1644578214.1875,P01,D06,0,0,0
1972,54.0,-24.0,21.0,1644578214.21875,P01,D06,0,0,0
1973,54.0,-24.0,21.0,1644578214.25,P01,D06,0,0,0
1974,53.0,-24.0,21.0,1644578214.28125,P01,D06,0,0,0
1975,54.0,-24.0,21.0,1644578214.3125,P01,D06,0,0,0
1976,54.0,-24.0,21.0,1644578214.34375,P01,D06,0,0,0
1977,53.0,-24.0,21.0,1644578214.375,P01,D06,0,0,0
1978,53.0,-24.0,21.0,1644578214.40625,P01,D06,0,0,0
1979,54.0,-24.0,21.0,1644578214.4375,P01,D06,0,0,0
1980,54.0,-24.0,21.0,1644578214.46875,P01,D06,0,0,0
1981,54.0,-24.0,21.0,1644578214.5,P01,D06,0,0,0
1982,54.0,-24.0,21.0,1644578214.53125,P01,D06,0,0,0
1983,53.0,-24.0,21.0,1644578214.5625,P01,D06,0,0,0
1984,53.0,-24.0,21.0,1644578214.59375,P01,D06,0,0,0
1985,54.0,-24.0,21.0,1644578214.625,P01,D06,0,0,0
1986,54.0,-24.0,21.0,1644578214.65625,P01,D06,0,0,0
1987,54.0,-24.0,21.0,1644578214.6875,P01,D06,0,0,0
1988,53.0,-24.0,21.0,1644578214.71875,P01,D06,0,0,0
1989,53.0,-24.0,21.0,1644578214.75,P01,D06,0,0,0
1990,54.0,-24.0,21.0,1644578214.78125,P01,D06,0,0,0
1991,53.0,-24.0,21.0,1644578214.8125,P01,D06,0,0,0
1992,54.0,-24.0,21.0,1644578214.84375,P01,D06,0,0,0
1993,54.0,-24.0,21.0,1644578214.875,P01,D06,0,0,0
1994,54.0,-24.0,21.0,1644578214.90625,P01,D06,0,0,0
1995,54.0,-24.0,21.0,1644578214.9375,P01,D06,0,0,0
1996,53.0,-24.0,21.0,1644578214.96875,P01,D06,0,0,0
1997,53.0,-24.0,21.0,1644578215.0,P01,D06,0,0,0
1998,54.0,-24.0,21.0,1644578215.03125,P01,D06,0,0,0
1999,54.0,-24.0,21.0,1644578215.0625,P01,D06,0,0,0
2000,54.0,-24.0,21.0,1644578215.09375,P01,D06,0,0,0
2001,53.0,-24.0,21.0,1644578215.125,P01,D06,0,0,0
2002,54.0,-24.0,21.0,1644578215.15625,P01,D06,0,0,0
2003,54.0,-24.0,21.0,1644578215.1875,P01,D06,0,0,0
2004,54.0,-24.0,21.0,1644578215.21875,P01,D06,0,0,0
2005,53.0,-24.0,21.0,1644578215.25,P01,D06,0,0,0
2006,53.0,-24.0,21.0,1644578215.28125,P01,D06,0,0,0
2007,54.0,-24.0,21.0,1644578215.3125,P01,D06,0,0,0
2008,54.0,-24.0,21.0,1644578215.34375,P01,D06,0,0,0
2009,53.0,-24.0,21.0,1644578215.375,P01,D06,0,0,0
2010,53.0,-24.0,21.0,1644578215.40625,P01,D06,0,0,0
2011,53.0,-24.0,21.0,1644578215.4375,P01,D06,0,0,0
2012,53.0,-24.0,21.0,1644578215.46875,P01,D06,0,0,0
2013,53.0,-24.0,21.0,1644578215.5,P01,D06,0,0,0
2014,54.0,-24.0,21.0,1644578215.53125,P01,D06,0,0,0
2015,54.0,-24.0,21.0,1644578215.5625,P01,D06,0,0,0
2016,53.0,-24.0,21.0,1644578215.59375,P01,D06,0,0,0
2017,53.0,-24.0,21.0,1644578215.625,P01,D06,0,0,0
2018,53.0,-24.0,21.0,1644578215.65625,P01,D06,0,0,0
2019,53.0,-24.0,22.0,1644578215.6875,P01,D06,0,0,0
2020,53.0,-24.0,22.0,1644578215.71875,P01,D06,0,0,0
2021,53.0,-24.0,22.0,1644578215.75,P01,D06,0,0,0
2022,53.0,-24.0,22.0,1644578215.78125,P01,D06,0,0,0
2023,53.0,-24.0,22.0,1644578215.8125,P01,D06,0,0,0
2024,53.0,-24.0,22.0,1644578215.84375,P01,D06,0,0,0
2025,53.0,-24.0,22.0,1644578215.875,P01,D06,0,0,0
2026,53.0,-25.0,22.0,1644578215.90625,P01,D06,0,0,0
2027,53.0,-24.0,22.0,1644578215.9375,P01,D06,0,0,0
2028,53.0,-24.0,22.0,1644578215.96875,P01,D06,0,0,0
2029,53.0,-24.0,22.0,1644578216.0,P01,D06,0,0,0
2030,53.0,-24.0,22.0,1644578216.03125,P01,D06,0,0,0
2031,53.0,-24.0,22.0,1644578216.0625,P01,D06,0,0,0
2032,53.0,-24.0,22.0,1644578216.09375,P01,D06,0,0,0
2033,53.0,-25.0,22.0,1644578216.125,P01,D06,0,0,0
2034,53.0,-25.0,22.0,1644578216.15625,P01,D06,0,0,0
2035,53.0,-24.0,22.0,1644578216.1875,P01,D06,0,0,0
2036,53.0,-25.0,22.0,1644578216.21875,P01,D06,0,0,0
2037,53.0,-25.0,22.0,1644578216.25,P01,D06,0,0,0
2038,53.0,-25.0,22.0,1644578216.28125,P01,D06,0,0,0
2039,53.0,-25.0,22.0,1644578216.3125,P01,D06,0,0,0
2040,53.0,-25.0,22.0,1644578216.34375,P01,D06,0,0,0
2041,53.0,-25.0,22.0,1644578216.375,P01,D06,0,0,0
2042,53.0,-25.0,22.0,1644578216.40625,P01,D06,0,0,0
2043,53.0,-25.0,22.0,1644578216.4375,P01,D06,0,0,0
2044,53.0,-25.0,22.0,1644578216.46875,P01,D06,0,0,0
2045,52.0,-25.0,23.0,1644578216.5,P01,D06,0,0,0
2046,53.0,-25.0,22.0,1644578216.53125,P01,D06,0,0,0
2047,53.0,-24.0,22.0,1644578216.5625,P01,D06,0,0,0
2048,53.0,-25.0,22.0,1644578216.59375,P01,D06,0,0,0
2049,53.0,-25.0,22.0,1644578216.625,P01,D06,0,0,0
2050,53.0,-24.0,22.0,1644578216.65625,P01,D06,0,0,0
2051,53.0,-24.0,22.0,1644578216.6875,P01,D06,0,0,0
2052,53.0,-25.0,22.0,1644578216.71875,P01,D06,0,0,0
2053,53.0,-25.0,22.0,1644578216.75,P01,D06,0,0,0
2054,52.0,-25.0,22.0,1644578216.78125,P01,D06,0,0,0
2055,53.0,-25.0,22.0,1644578216.8125,P01,D06,0,0,0
2056,53.0,-25.0,23.0,1644578216.84375,P01,D06,0,0,0
2057,53.0,-24.0,23.0,1644578216.875,P01,D06,0,0,0
2058,52.0,-24.0,23.0,1644578216.90625,P01,D06,0,0,0
2059,53.0,-25.0,22.0,1644578216.9375,P01,D06,0,0,0
2060,53.0,-24.0,23.0,1644578216.96875,P01,D06,0,0,0
2061,53.0,-25.0,22.0,1644578217.0,P01,D06,0,0,0
2062,53.0,-25.0,22.0,1644578217.03125,P01,D06,0,0,0
2063,53.0,-25.0,22.0,1644578217.0625,P01,D06,0,0,0
2064,52.0,-24.0,23.0,1644578217.09375,P01,D06,0,0,0
2065,53.0,-24.0,22.0,1644578217.125,P01,D06,0,0,0
2066,53.0,-25.0,23.0,1644578217.15625,P01,D06,0,0,0
2067,53.0,-24.0,22.0,1644578217.1875,P01,D06,0,0,0
2068,53.0,-25.0,22.0,1644578217.21875,P01,D06,0,0,0
2069,53.0,-24.0,22.0,1644578217.25,P01,D06,0,0,0
2070,53.0,-24.0,22.0,1644578217.28125,P01,D06,0,0,0
2071,53.0,-25.0,23.0,1644578217.3125,P01,D06,0,0,0
2072,53.0,-25.0,23.0,1644578217.34375,P01,D06,0,0,0
2073,52.0,-25.0,23.0,1644578217.375,P01,D06,0,0,0
2074,52.0,-24.0,23.0,1644578217.40625,P01,D06,0,0,0
2075,53.0,-25.0,23.0,1644578217.4375,P01,D06,0,0,0
2076,53.0,-24.0,23.0,1644578217.46875,P01,D06,0,0,0
2077,53.0,-25.0,22.0,1644578217.5,P01,D06,0,0,0
2078,52.0,-25.0,23.0,1644578217.53125,P01,D06,0,0,0
2079,53.0,-25.0,23.0,1644578217.5625,P01,D06,0,0,0
2080,53.0,-24.0,23.0,1644578217.59375,P01,D06,0,0,0
2081,53.0,-25.0,23.0,1644578217.625,P01,D06,0,0,0
2082,52.0,-25.0,23.0,1644578217.65625,P01,D06,0,0,0
2083,53.0,-25.0,23.0,1644578217.6875,P01,D06,0,0,0
2084,53.0,-24.0,23.0,1644578217.71875,P01,D06,0,0,0
2085,53.0,-25.0,22.0,1644578217.75,P01,D06,0,0,0
2086,53.0,-25.0,22.0,1644578217.78125,P01,D06,0,0,0
2087,53.0,-25.0,23.0,1644578217.8125,P01,D06,0,0,0
2088,53.0,-25.0,23.0,1644578217.84375,P01,D06,0,0,0
2089,53.0,-25.0,23.0,1644578217.875,P01,D06,0,0,0
2090,53.0,-25.0,23.0,1644578217.90625,P01,D06,0,0,0
2091,52.0,-25.0,23.0,1644578217.9375,P01,D06,0,0,0
2092,52.0,-25.0,23.0,1644578217.96875,P01,D06,0,0,0
2093,53.0,-24.0,23.0,1644578218.0,P01,D06,0,0,0
2094,53.0,-25.0,23.0,1644578218.03125,P01,D06,0,0,0
2095,53.0,-25.0,23.0,1644578218.0625,P01,D06,0,0,0
2096,52.0,-25.0,23.0,1644578218.09375,P01,D06,0,0,0
2097,52.0,-24.0,23.0,1644578218.125,P01,D06,0,0,0
2098,52.0,-25.0,23.0,1644578218.15625,P01,D06,0,0,0
2099,53.0,-25.0,23.0,1644578218.1875,P01,D06,0,0,0
2100,52.0,-24.0,23.0,1644578218.21875,P01,D06,0,0,0
2101,53.0,-24.0,23.0,1644578218.25,P01,D06,0,0,0
2102,53.0,-25.0,23.0,1644578218.28125,P01,D06,0,0,0
2103,53.0,-25.0,23.0,1644578218.3125,P01,D06,0,0,0
2104,53.0,-25.0,23.0,1644578218.34375,P01,D06,0,0,0
2105,53.0,-24.0,23.0,1644578218.375,P01,D06,0,0,0
2106,52.0,-25.0,23.0,1644578218.40625,P01,D06,0,0,0
2107,53.0,-25.0,23.0,1644578218.4375,P01,D06,0,0,0
2108,53.0,-25.0,23.0,1644578218.46875,P01,D06,0,0,0
2109,52.0,-25.0,23.0,1644578218.5,P01,D06,0,0,0
2110,53.0,-25.0,23.0,1644578218.53125,P01,D06,0,0,0
2111,52.0,-25.0,23.0,1644578218.5625,P01,D06,0,0,0
2112,53.0,-25.0,23.0,1644578218.59375,P01,D06,0,0,0
2113,52.0,-25.0,23.0,1644578218.625,P01,D06,0,0,0
2114,52.0,-25.0,23.0,1644578218.65625,P01,D06,0,0,0
2115,52.0,-25.0,23.0,1644578218.6875,P01,D06,0,0,0
2116,53.0,-25.0,23.0,1644578218.71875,P01,D06,0,0,0
2117,53.0,-25.0,23.0,1644578218.75,P01,D06,0,0,0
2118,53.0,-25.0,23.0,1644578218.78125,P01,D06,0,0,0
2119,53.0,-25.0,23.0,1644578218.8125,P01,D06,0,0,0
2120,52.0,-25.0,23.0,1644578218.84375,P01,D06,0,0,0
2121,52.0,-25.0,23.0,1644578218.875,P01,D06,0,0,0
2122,53.0,-25.0,22.0,1644578218.90625,P01,D06,0,0,0
2123,53.0,-25.0,23.0,1644578218.9375,P01,D06,0,0,0
2124,52.0,-25.0,23.0,1644578218.96875,P01,D06,0,0,0
2125,52.0,-25.0,23.0,1644578219.0,P01,D06,0,0,0
2126,52.0,-25.0,23.0,1644578219.03125,P01,D06,0,0,0
2127,52.0,-25.0,23.0,1644578219.0625,P01,D06,0,0,0
2128,52.0,-25.0,23.0,1644578219.09375,P01,D06,0,0,0
2129,52.0,-25.0,23.0,1644578219.125,P01,D06,0,0,0
2130,52.0,-25.0,23.0,1644578219.15625,P01,D06,0,0,0
2131,52.0,-25.0,23.0,1644578219.1875,P01,D06,0,0,0
2132,52.0,-25.0,23.0,1644578219.21875,P01,D06,0,0,0
2133,52.0,-25.0,23.0,1644578219.25,P01,D06,0,0,0
2134,53.0,-25.0,23.0,1644578219.28125,P01,D06,0,0,0
2135,52.0,-25.0,23.0,1644578219.3125,P01,D06,0,0,0
2136,52.0,-25.0,23.0,1644578219.34375,P01,D06,0,0,0
2137,52.0,-25.0,23.0,1644578219.375,P01,D06,0,0,0
2138,52.0,-25.0,23.0,1644578219.40625,P01,D06,0,0,0
2139,52.0,-25.0,23.0,1644578219.4375,P01,D06,0,0,0
2140,52.0,-25.0,23.0,1644578219.46875,P01,D06,0,0,0
2141,53.0,-25.0,23.0,1644578219.5,P01,D06,0,0,0
2142,52.0,-25.0,23.0,1644578219.53125,P01,D06,0,0,0
2143,52.0,-25.0,23.0,1644578219.5625,P01,D06,0,0,0
2144,52.0,-25.0,23.0,1644578219.59375,P01,D06,0,0,0
2145,52.0,-25.0,23.0,1644578219.625,P01,D06,0,0,0
2146,53.0,-25.0,23.0,1644578219.65625,P01,D06,0,0,0
2147,52.0,-25.0,23.0,1644578219.6875,P01,D06,0,0,0
2148,52.0,-25.0,23.0,1644578219.71875,P01,D06,0,0,0
2149,52.0,-25.0,23.0,1644578219.75,P01,D06,0,0,0
2150,52.0,-25.0,23.0,1644578219.78125,P01,D06,0,0,0
2151,52.0,-25.0,23.0,1644578219.8125,P01,D06,0,0,0
2152,52.0,-25.0,23.0,1644578219.84375,P01,D06,0,0,0
2153,52.0,-25.0,23.0,1644578219.875,P01,D06,0,0,0
2154,52.0,-25.0,23.0,1644578219.90625,P01,D06,0,0,0
2155,52.0,-25.0,23.0,1644578219.9375,P01,D06,0,0,0
2156,52.0,-25.0,23.0,1644578219.96875,P01,D06,0,0,0
2157,52.0,-25.0,23.0,1644578220.0,P01,D06,0,0,0
2158,52.0,-25.0,23.0,1644578220.03125,P01,D06,0,0,0
2159,52.0,-25.0,23.0,1644578220.0625,P01,D06,0,0,0
2160,52.0,-25.0,23.0,1644578220.09375,P01,D06,0,0,0
2161,52.0,-25.0,23.0,1644578220.125,P01,D06,0,0,0
2162,52.0,-25.0,23.0,1644578220.15625,P01,D06,0,0,0
2163,52.0,-24.0,23.0,1644578220.1875,P01,D06,0,0,0
2164,52.0,-25.0,23.0,1644578220.21875,P01,D06,0,0,0
2165,53.0,-25.0,23.0,1644578220.25,P01,D06,0,0,0
2166,52.0,-25.0,23.0,1644578220.28125,P01,D06,0,0,0
2167,52.0,-25.0,23.0,1644578220.3125,P01,D06,0,0,0
2168,52.0,-25.0,23.0,1644578220.34375,P01,D06,0,0,0
2169,53.0,-25.0,23.0,1644578220.375,P01,D06,0,0,0
2170,52.0,-25.0,23.0,1644578220.40625,P01,D06,0,0,0
2171,52.0,-25.0,23.0,1644578220.4375,P01,D06,0,0,0
2172,52.0,-25.0,23.0,1644578220.46875,P01,D06,0,0,0
2173,52.0,-25.0,23.0,1644578220.5,P01,D06,0,0,0
2174,53.0,-25.0,23.0,1644578220.53125,P01,D06,0,0,0
2175,52.0,-25.0,23.0,1644578220.5625,P01,D06,0,0,0
2176,52.0,-25.0,23.0,1644578220.59375,P01,D06,0,0,0
2177,52.0,-25.0,23.0,1644578220.625,P01,D06,0,0,0
2178,52.0,-25.0,23.0,1644578220.65625,P01,D06,0,0,0
2179,52.0,-25.0,23.0,1644578220.6875,P01,D06,0,0,0
2180,52.0,-25.0,23.0,1644578220.71875,P01,D06,0,0,0
2181,52.0,-25.0,23.0,1644578220.75,P01,D06,0,0,0
2182,52.0,-25.0,23.0,1644578220.78125,P01,D06,0,0,0
2183,52.0,-25.0,23.0,1644578220.8125,P01,D06,0,0,0
2184,52.0,-25.0,23.0,1644578220.84375,P01,D06,0,0,0
2185,52.0,-25.0,23.0,1644578220.875,P01,D06,0,0,0
2186,52.0,-25.0,23.0,1644578220.90625,P01,D06,0,0,0
2187,52.0,-25.0,23.0,1644578220.9375,P01,D06,0,0,0
2188,53.0,-25.0,23.0,1644578220.96875,P01,D06,0,0,0
2189,52.0,-25.0,23.0,1644578221.0,P01,D06,0,0,0
2190,52.0,-25.0,23.0,1644578221.03125,P01,D06,0,0,0
2191,52.0,-25.0,23.0,1644578221.0625,P01,D06,0,0,0
2192,53.0,-25.0,23.0,1644578221.09375,P01,D06,0,0,0
2193,52.0,-25.0,23.0,1644578221.125,P01,D06,0,0,0
2194,52.0,-25.0,23.0,1644578221.15625,P01,D06,0,0,0
2195,52.0,-25.0,23.0,1644578221.1875,P01,D06,0,0,0
2196,52.0,-25.0,23.0,1644578221.21875,P01,D06,0,0,0
2197,52.0,-25.0,23.0,1644578221.25,P01,D06,0,0,0
2198,52.0,-25.0,23.0,1644578221.28125,P01,D06,0,0,0
2199,52.0,-25.0,23.0,1644578221.3125,P01,D06,0,0,0
2200,52.0,-25.0,23.0,1644578221.34375,P01,D06,0,0,0
2201,52.0,-25.0,23.0,1644578221.375,P01,D06,0,0,0
2202,52.0,-25.0,23.0,1644578221.40625,P01,D06,0,0,0
2203,52.0,-25.0,23.0,1644578221.4375,P01,D06,0,0,0
2204,52.0,-25.0,23.0,1644578221.46875,P01,D06,0,0,0
2205,52.0,-25.0,23.0,1644578221.5,P01,D06,0,0,0
2206,52.0,-25.0,24.0,1644578221.53125,P01,D06,0,0,0
2207,52.0,-25.0,23.0,1644578221.5625,P01,D06,0,0,0
2208,52.0,-25.0,23.0,1644578221.59375,P01,D06,0,0,0
2209,52.0,-25.0,23.0,1644578221.625,P01,D06,0,0,0
2210,52.0,-25.0,23.0,1644578221.65625,P01,D06,0,0,0
2211,52.0,-25.0,23.0,1644578221.6875,P01,D06,0,0,0
2212,52.0,-25.0,23.0,1644578221.71875,P01,D06,0,0,0
2213,52.0,-25.0,23.0,1644578221.75,P01,D06,0,0,0
2214,52.0,-25.0,23.0,1644578221.78125,P01,D06,0,0,0
2215,52.0,-25.0,23.0,1644578221.8125,P01,D06,0,0,0
2216,53.0,-25.0,23.0,1644578221.84375,P01,D06,0,0,0
2217,53.0,-25.0,23.0,1644578221.875,P01,D06,0,0,0
2218,52.0,-25.0,23.0,1644578221.90625,P01,D06,0,0,0
2219,52.0,-25.0,23.0,1644578221.9375,P01,D06,0,0,0
2220,52.0,-25.0,23.0,1644578221.96875,P01,D06,0,0,0
2221,52.0,-25.0,23.0,1644578222.0,P01,D06,0,0,0
2222,52.0,-25.0,23.0,1644578222.03125,P01,D06,0,0,0
2223,52.0,-25.0,23.0,1644578222.0625,P01,D06,0,0,0
2224,52.0,-25.0,23.0,1644578222.09375,P01,D06,0,0,0
2225,52.0,-25.0,23.0,1644578222.125,P01,D06,0,0,0
2226,52.0,-25.0,23.0,1644578222.15625,P01,D06,0,0,0
2227,52.0,-25.0,23.0,1644578222.1875,P01,D06,0,0,0
2228,52.0,-25.0,23.0,1644578222.21875,P01,D06,0,0,0
2229,52.0,-25.0,23.0,1644578222.25,P01,D06,0,0,0
2230,52.0,-25.0,23.0,1644578222.28125,P01,D06,0,0,0
2231,52.0,-26.0,23.0,1644578222.3125,P01,D06,0,0,0
2232,52.0,-25.0,23.0,1644578222.34375,P01,D06,0,0,0
2233,52.0,-25.0,23.0,1644578222.375,P01,D06,0,0,0
2234,52.0,-25.0,23.0,1644578222.40625,P01,D06,0,0,0
2235,52.0,-25.0,23.0,1644578222.4375,P01,D06,0,0,0
2236,52.0,-25.0,23.0,1644578222.46875,P01,D06,0,0,0
2237,52.0,-25.0,23.0,1644578222.5,P01,D06,0,0,0
2238,52.0,-25.0,23.0,1644578222.53125,P01,D06,0,0,0
2239,52.0,-25.0,23.0,1644578222.5625,P01,D06,0,0,0
2240,52.0,-25.0,23.0,1644578222.59375,P01,D06,0,0,0
2241,52.0,-25.0,23.0,1644578222.625,P01,D06,0,0,0
2242,52.0,-25.0,23.0,1644578222.65625,P01,D06,0,0,0
2243,52.0,-25.0,23.0,1644578222.6875,P01,D06,0,0,0
2244,52.0,-26.0,23.0,1644578222.71875,P01,D06,0,0,0
2245,52.0,-25.0,23.0,1644578222.75,P01,D06,0,0,0
2246,52.0,-25.0,24.0,1644578222.78125,P01,D06,0,0,0
2247,52.0,-25.0,23.0,1644578222.8125,P01,D06,0,0,0
2248,52.0,-25.0,23.0,1644578222.84375,P01,D06,0,0,0
2249,52.0,-25.0,23.0,1644578222.875,P01,D06,0,0,0
2250,52.0,-25.0,23.0,1644578222.90625,P01,D06,0,0,0
2251,52.0,-25.0,23.0,1644578222.9375,P01,D06,0,0,0
2252,52.0,-25.0,23.0,1644578222.96875,P01,D06,0,0,0
2253,52.0,-25.0,23.0,1644578223.0,P01,D06,0,0,0
2254,52.0,-25.0,23.0,1644578223.03125,P01,D06,0,0,0
2255,52.0,-26.0,24.0,1644578223.0625,P01,D06,0,0,0
2256,52.0,-26.0,24.0,1644578223.09375,P01,D06,0,0,0
2257,51.0,-26.0,24.0,1644578223.125,P01,D06,0,0,0
2258,52.0,-26.0,23.0,1644578223.15625,P01,D06,0,0,0
2259,52.0,-25.0,23.0,1644578223.1875,P01,D06,0,0,0
2260,52.0,-25.0,23.0,1644578223.21875,P01,D06,0,0,0
2261,52.0,-25.0,23.0,1644578223.25,P01,D06,0,0,0
2262,52.0,-26.0,24.0,1644578223.28125,P01,D06,0,0,0
2263,52.0,-26.0,24.0,1644578223.3125,P01,D06,0,0,0
2264,52.0,-25.0,24.0,1644578223.34375,P01,D06,0,0,0
2265,52.0,-25.0,24.0,1644578223.375,P01,D06,0,0,0
2266,52.0,-25.0,23.0,1644578223.40625,P01,D06,0,0,0
2267,52.0,-25.0,24.0,1644578223.4375,P01,D06,0,0,0
2268,51.0,-25.0,24.0,1644578223.46875,P01,D06,0,0,0
2269,52.0,-25.0,24.0,1644578223.5,P01,D06,0,0,0
2270,52.0,-25.0,23.0,1644578223.53125,P01,D06,0,0,0
2271,52.0,-25.0,24.0,1644578223.5625,P01,D06,0,0,0
2272,52.0,-25.0,23.0,1644578223.59375,P01,D06,0,0,0
2273,52.0,-25.0,24.0,1644578223.625,P01,D06,0,0,0
2274,52.0,-25.0,24.0,1644578223.65625,P01,D06,0,0,0
2275,52.0,-25.0,24.0,1644578223.6875,P01,D06,0,0,0
2276,52.0,-25.0,24.0,1644578223.71875,P01,D06,0,0,0
2277,52.0,-25.0,24.0,1644578223.75,P01,D06,0,0,0
2278,52.0,-25.0,24.0,1644578223.78125,P01,D06,0,0,0
2279,52.0,-25.0,24.0,1644578223.8125,P01,D06,0,0,0
2280,52.0,-25.0,23.0,1644578223.84375,P01,D06,0,0,0
2281,52.0,-25.0,24.0,1644578223.875,P01,D06,0,0,0
2282,52.0,-25.0,24.0,1644578223.90625,P01,D06,0,0,0
2283,52.0,-25.0,24.0,1644578223.9375,P01,D06,0,0,0
2284,52.0,-25.0,24.0,1644578223.96875,P01,D06,0,0,0
2285,52.0,-25.0,24.0,1644578224.0,P01,D06,0,0,0
2286,52.0,-25.0,24.0,1644578224.03125,P01,D06,0,0,0
2287,52.0,-25.0,24.0,1644578224.0625,P01,D06,0,0,0
2288,52.0,-25.0,24.0,1644578224.09375,P01,D06,0,0,0
2289,52.0,-25.0,24.0,1644578224.125,P01,D06,0,0,0
2290,52.0,-25.0,24.0,1644578224.15625,P01,D06,0,0,0
2291,52.0,-26.0,24.0,1644578224.1875,P01,D06,0,0,0
2292,52.0,-26.0,24.0,1644578224.21875,P01,D06,0,0,0
2293,52.0,-25.0,24.0,1644578224.25,P01,D06,0,0,0
2294,51.0,-25.0,23.0,1644578224.28125,P01,D06,0,0,0
2295,52.0,-25.0,24.0,1644578224.3125,P01,D06,0,0,0
2296,52.0,-25.0,24.0,1644578224.34375,P01,D06,0,0,0
2297,51.0,-25.0,24.0,1644578224.375,P01,D06,0,0,0
2298,52.0,-25.0,24.0,1644578224.40625,P01,D06,0,0,0
2299,52.0,-25.0,24.0,1644578224.4375,P01,D06,0,0,0
2300,52.0,-25.0,24.0,1644578224.46875,P01,D06,0,0,0
2301,52.0,-25.0,24.0,1644578224.5,P01,D06,0,0,0
2302,52.0,-25.0,24.0,1644578224.53125,P01,D06,0,0,0
2303,52.0,-25.0,24.0,1644578224.5625,P01,D06,0,0,0
2304,52.0,-25.0,24.0,1644578224.59375,P01,D06,0,0,0
2305,52.0,-25.0,24.0,1644578224.625,P01,D06,0,0,0
2306,52.0,-25.0,24.0,1644578224.65625,P01,D06,0,0,0
2307,52.0,-25.0,24.0,1644578224.6875,P01,D06,0,0,0
2308,52.0,-25.0,24.0,1644578224.71875,P01,D06,0,0,0
2309,52.0,-25.0,24.0,1644578224.75,P01,D06,0,0,0
2310,52.0,-25.0,24.0,1644578224.78125,P01,D06,0,0,0
2311,52.0,-25.0,24.0,1644578224.8125,P01,D06,0,0,0
2312,52.0,-25.0,24.0,1644578224.84375,P01,D06,0,0,0
2313,52.0,-25.0,24.0,1644578224.875,P01,D06,0,0,0
2314,52.0,-25.0,24.0,1644578224.90625,P01,D06,0,0,0
2315,52.0,-25.0,24.0,1644578224.9375,P01,D06,0,0,0
2316,52.0,-25.0,24.0,1644578224.96875,P01,D06,0,0,0
2317,52.0,-26.0,24.0,1644578225.0,P01,D06,0,0,0
2318,52.0,-26.0,24.0,1644578225.03125,P01,D06,0,0,0
2319,52.0,-25.0,24.0,1644578225.0625,P01,D06,0,0,0
2320,51.0,-25.0,24.0,1644578225.09375,P01,D06,0,0,0
2321,52.0,-25.0,24.0,1644578225.125,P01,D06,0,0,0
2322,53.0,-25.0,24.0,1644578225.15625,P01,D06,0,0,0
2323,52.0,-25.0,24.0,1644578225.1875,P01,D06,0,0,0
2324,52.0,-25.0,24.0,1644578225.21875,P01,D06,0,0,0
2325,52.0,-25.0,24.0,1644578225.25,P01,D06,0,0,0
2326,52.0,-25.0,24.0,1644578225.28125,P01,D06,0,0,0
2327,52.0,-25.0,24.0,1644578225.3125,P01,D06,0,0,0
2328,52.0,-25.0,24.0,1644578225.34375,P01,D06,0,0,0
2329,52.0,-25.0,24.0,1644578225.375,P01,D06,0,0,0
2330,52.0,-25.0,24.0,1644578225.40625,P01,D06,0,0,0
2331,52.0,-25.0,24.0,1644578225.4375,P01,D06,0,0,0
2332,52.0,-25.0,24.0,1644578225.46875,P01,D06,0,0,0
2333,52.0,-25.0,24.0,1644578225.5,P01,D06,0,0,0
2334,52.0,-25.0,24.0,1644578225.53125,P01,D06,0,0,0
2335,52.0,-25.0,24.0,1644578225.5625,P01,D06,0,0,0
2336,52.0,-25.0,24.0,1644578225.59375,P01,D06,0,0,0
2337,52.0,-25.0,24.0,1644578225.625,P01,D06,0,0,0
2338,52.0,-25.0,24.0,1644578225.65625,P01,D06,0,0,0
2339,52.0,-25.0,24.0,1644578225.6875,P01,D06,0,0,0
2340,52.0,-25.0,24.0,1644578225.71875,P01,D06,0,0,0
2341,52.0,-25.0,24.0,1644578225.75,P01,D06,0,0,0
2342,52.0,-25.0,23.0,1644578225.78125,P01,D06,0,0,0
2343,52.0,-26.0,24.0,1644578225.8125,P01,D06,0,0,0
2344,52.0,-25.0,24.0,1644578225.84375,P01,D06,0,0,0
2345,52.0,-25.0,24.0,1644578225.875,P01,D06,0,0,0
2346,52.0,-26.0,24.0,1644578225.90625,P01,D06,0,0,0
2347,52.0,-26.0,24.0,1644578225.9375,P01,D06,0,0,0
2348,52.0,-25.0,24.0,1644578225.96875,P01,D06,0,0,0
2349,51.0,-25.0,24.0,1644578226.0,P01,D06,0,0,0
2350,52.0,-25.0,24.0,1644578226.03125,P01,D06,0,0,0
2351,52.0,-25.0,24.0,1644578226.0625,P01,D06,0,0,0
2352,52.0,-26.0,24.0,1644578226.09375,P01,D06,0,0,0
2353,52.0,-26.0,24.0,1644578226.125,P01,D06,0,0,0
2354,52.0,-25.0,24.0,1644578226.15625,P01,D06,0,0,0
2355,52.0,-26.0,24.0,1644578226.1875,P01,D06,0,0,0
2356,52.0,-25.0,24.0,1644578226.21875,P01,D06,0,0,0
2357,51.0,-25.0,24.0,1644578226.25,P01,D06,0,0,0
2358,52.0,-26.0,24.0,1644578226.28125,P01,D06,0,0,0
2359,52.0,-26.0,23.0,1644578226.3125,P01,D06,0,0,0
2360,52.0,-26.0,24.0,1644578226.34375,P01,D06,0,0,0
2361,52.0,-26.0,23.0,1644578226.375,P01,D06,0,0,0
2362,52.0,-26.0,24.0,1644578226.40625,P01,D06,0,0,0
2363,52.0,-26.0,24.0,1644578226.4375,P01,D06,0,0,0
2364,52.0,-26.0,24.0,1644578226.46875,P01,D06,0,0,0
2365,52.0,-25.0,24.0,1644578226.5,P01,D06,0,0,0
2366,52.0,-25.0,24.0,1644578226.53125,P01,D06,0,0,0
2367,52.0,-26.0,24.0,1644578226.5625,P01,D06,0,0,0
2368,52.0,-25.0,24.0,1644578226.59375,P01,D06,0,0,0
2369,52.0,-25.0,24.0,1644578226.625,P01,D06,0,0,0
2370,52.0,-25.0,24.0,1644578226.65625,P01,D06,0,0,0
2371,52.0,-25.0,24.0,1644578226.6875,P01,D06,0,0,0
2372,52.0,-26.0,24.0,1644578226.71875,P01,D06,0,0,0
