,acc_x,acc_y,acc_z,timestamp,participant,document,val,arou,eng
0,-8.0,61.0,20.0,1644593136.71875,P04,D07,0,0,0
1,-8.0,61.0,20.0,1644593136.75,P04,D07,0,0,0
2,-8.0,61.0,19.0,1644593136.78125,P04,D07,0,0,0
3,-8.0,61.0,20.0,1644593136.8125,P04,D07,0,0,0
4,-8.0,61.0,20.0,1644593136.84375,P04,D07,0,0,0
5,-8.0,61.0,20.0,1644593136.875,P04,D07,0,0,0
6,-8.0,61.0,20.0,1644593136.90625,P04,D07,0,0,0
7,-8.0,61.0,20.0,1644593136.9375,P04,D07,0,0,0
8,-8.0,61.0,19.0,1644593136.96875,P04,D07,0,0,0
9,-8.0,61.0,20.0,1644593137.0,P04,D07,0,0,0
10,-8.0,61.0,20.0,1644593137.03125,P04,D07,0,0,0
11,-8.0,61.0,20.0,1644593137.0625,P04,D07,0,0,0
12,-8.0,61.0,20.0,1644593137.09375,P04,D07,0,0,0
13,-9.0,61.0,20.0,1644593137.125,P04,D07,0,0,0
14,-8.0,61.0,20.0,1644593137.15625,P04,D07,0,0,0
15,-8.0,61.0,20.0,1644593137.1875,P04,D07,0,0,0
16,-8.0,61.0,19.0,1644593137.21875,P04,D07,0,0,0
17,-8.0,61.0,19.0,1644593137.25,P04,D07,0,0,0
18,-8.0,61.0,19.0,1644593137.28125,P04,D07,0,0,0
19,-8.0,61.0,20.0,1644593137.3125,P04,D07,0,0,0
20,-9.0,61.0,20.0,1644593137.34375,P04,D07,0,0,0
21,-8.0,61.0,20.0,1644593137.375,P04,D07,0,0,0
22,-8.0,61.0,20.0,1644593137.40625,P04,D07,0,0,0
23,-8.0,61.0,20.0,1644593137.4375,P04,D07,0,0,0
24,-8.0,61.0,20.0,1644593137.46875,P04,D07,0,0,0
25,-8.0,61.0,20.0,1644593137.5,P04,D07,0,0,0
26,-8.0,61.0,20.0,1644593137.53125,P04,D07,0,0,0
27,-8.0,61.0,19.0,1644593137.5625,P04,D07,0,0,0
28,-8.0,61.0,20.0,1644593137.59375,P04,D07,0,0,0
29,-8.0,61.0,20.0,1644593137.625,P04,D07,0,0,0
30,-8.0,61.0,19.0,1644593137.65625,P04,D07,0,0,0
31,-8.0,61.0,20.0,1644593137.6875,P04,D07,0,0,0
32,-8.0,61.0,19.0,1644593137.71875,P04,D07,0,0,0
33,-8.0,61.0,20.0,1644593137.75,P04,D07,0,0,0
34,-8.0,61.0,20.0,1644593137.78125,P04,D07,0,0,0
35,-8.0,61.0,20.0,1644593137.8125,P04,D07,0,0,0
36,-8.0,61.0,20.0,1644593137.84375,P04,D07,0,0,0
37,-8.0,61.0,20.0,1644593137.875,P04,D07,0,0,0
38,-8.0,61.0,20.0,1644593137.90625,P04,D07,0,0,0
39,-8.0,61.0,20.0,1644593137.9375,P04,D07,0,0,0
40,-8.0,61.0,19.0,1644593137.96875,P04,D07,0,0,0
41,-8.0,61.0,20.0,1644593138.0,P04,D07,0,0,0
42,-8.0,61.0,20.0,1644593138.03125,P04,D07,0,0,0
43,-8.0,61.0,20.0,1644593138.0625,P04,D07,0,0,0
44,-8.0,61.0,20.0,1644593138.09375,P04,D07,0,0,0
45,-8.0,61.0,20.0,1644593138.125,P04,D07,0,0,0
46,-9.0,61.0,20.0,1644593138.15625,P04,D07,0,0,0
47,-9.0,61.0,20.0,1644593138.1875,P04,D07,0,0,0
48,-8.0,61.0,20.0,1644593138.21875,P04,D07,0,0,0
49,-8.0,61.0,20.0,1644593138.25,P04,D07,0,0,0
50,-8.0,61.0,20.0,1644593138.28125,P04,D07,0,0,0
51,-8.0,61.0,20.0,1644593138.3125,P04,D07,0,0,0
52,-8.0,61.0,20.0,1644593138.34375,P04,D07,0,0,0
53,-8.0,61.0,20.0,1644593138.375,P04,D07,0,0,0
54,-8.0,61.0,20.0,1644593138.40625,P04,D07,0,0,0
55,-8.0,61.0,20.0,1644593138.4375,P04,D07,0,0,0
56,-8.0,61.0,20.0,1644593138.46875,P04,D07,0,0,0
57,-8.0,61.0,20.0,1644593138.5,P04,D07,0,0,0
58,-8.0,61.0,20.0,1644593138.53125,P04,D07,0,0,0
59,-8.0,61.0,20.0,1644593138.5625,P04,D07,0,0,0
60,-8.0,61.0,20.0,1644593138.59375,P04,D07,0,0,0
61,-8.0,61.0,20.0,1644593138.625,P04,D07,0,0,0
62,-8.0,60.0,20.0,1644593138.65625,P04,D07,0,0,0
63,-8.0,61.0,20.0,1644593138.6875,P04,D07,0,0,0
64,-8.0,61.0,20.0,1644593138.71875,P04,D07,0,0,0
65,-8.0,61.0,20.0,1644593138.75,P04,D07,0,0,0
66,-8.0,61.0,20.0,1644593138.78125,P04,D07,0,0,0
67,-8.0,61.0,20.0,1644593138.8125,P04,D07,0,0,0
68,-8.0,61.0,20.0,1644593138.84375,P04,D07,0,0,0
69,-8.0,61.0,20.0,1644593138.875,P04,D07,0,0,0
70,-8.0,61.0,20.0,1644593138.90625,P04,D07,0,0,0
71,-8.0,61.0,20.0,1644593138.9375,P04,D07,0,0,0
72,-8.0,61.0,20.0,1644593138.96875,P04,D07,0,0,0
73,-8.0,61.0,20.0,1644593139.0,P04,D07,0,0,0
74,-8.0,61.0,20.0,1644593139.03125,P04,D07,0,0,0
75,-8.0,61.0,20.0,1644593139.0625,P04,D07,0,0,0
76,-8.0,61.0,20.0,1644593139.09375,P04,D07,0,0,0
77,-8.0,61.0,20.0,1644593139.125,P04,D07,0,0,0
78,-8.0,61.0,20.0,1644593139.15625,P04,D07,0,0,0
79,-8.0,61.0,20.0,1644593139.1875,P04,D07,0,0,0
80,-8.0,61.0,20.0,1644593139.21875,P04,D07,0,0,0
81,-8.0,61.0,20.0,1644593139.25,P04,D07,0,0,0
82,-8.0,61.0,20.0,1644593139.28125,P04,D07,0,0,0
83,-8.0,61.0,20.0,1644593139.3125,P04,D07,0,0,0
84,-8.0,61.0,19.0,1644593139.34375,P04,D07,0,0,0
85,-8.0,61.0,20.0,1644593139.375,P04,D07,0,0,0
86,-8.0,61.0,20.0,1644593139.40625,P04,D07,0,0,0
87,-8.0,61.0,19.0,1644593139.4375,P04,D07,0,0,0
88,-8.0,61.0,19.0,1644593139.46875,P04,D07,0,0,0
89,-8.0,61.0,20.0,1644593139.5,P04,D07,0,0,0
90,-8.0,61.0,20.0,1644593139.53125,P04,D07,0,0,0
91,-8.0,61.0,20.0,1644593139.5625,P04,D07,0,0,0
92,-8.0,61.0,20.0,1644593139.59375,P04,D07,0,0,0
93,-9.0,61.0,19.0,1644593139.625,P04,D07,0,0,0
94,-8.0,61.0,19.0,1644593139.65625,P04,D07,0,0,0
95,-8.0,61.0,20.0,1644593139.6875,P04,D07,0,0,0
96,-8.0,61.0,20.0,1644593139.71875,P04,D07,0,0,0
97,-9.0,61.0,19.0,1644593139.75,P04,D07,0,0,0
98,-8.0,61.0,20.0,1644593139.78125,P04,D07,0,0,0
99,-8.0,61.0,20.0,1644593139.8125,P04,D07,0,0,0
100,-8.0,61.0,20.0,1644593139.84375,P04,D07,0,0,0
101,-8.0,61.0,20.0,1644593139.875,P04,D07,0,0,0
102,-8.0,61.0,20.0,1644593139.90625,P04,D07,0,0,0
103,-8.0,61.0,20.0,1644593139.9375,P04,D07,0,0,0
104,-8.0,61.0,20.0,1644593139.96875,P04,D07,0,0,0
105,-8.0,61.0,20.0,1644593140.0,P04,D07,0,0,0
106,-8.0,61.0,20.0,1644593140.03125,P04,D07,0,0,0
107,-8.0,61.0,19.0,1644593140.0625,P04,D07,0,0,0
108,-8.0,61.0,20.0,1644593140.09375,P04,D07,0,0,0
109,-8.0,61.0,20.0,1644593140.125,P04,D07,0,0,0
110,-8.0,61.0,20.0,1644593140.15625,P04,D07,0,0,0
111,-8.0,61.0,19.0,1644593140.1875,P04,D07,0,0,0
112,-8.0,61.0,19.0,1644593140.21875,P04,D07,0,0,0
113,-8.0,61.0,20.0,1644593140.25,P04,D07,0,0,0
114,-8.0,61.0,20.0,1644593140.28125,P04,D07,0,0,0
115,-8.0,61.0,20.0,1644593140.3125,P04,D07,0,0,0
116,-8.0,61.0,20.0,1644593140.34375,P04,D07,0,0,0
117,-8.0,61.0,19.0,1644593140.375,P04,D07,0,0,0
118,-8.0,61.0,20.0,1644593140.40625,P04,D07,0,0,0
119,-8.0,61.0,20.0,1644593140.4375,P04,D07,0,0,0
120,-8.0,61.0,20.0,1644593140.46875,P04,D07,0,0,0
121,-8.0,61.0,19.0,1644593140.5,P04,D07,0,0,0
122,-8.0,61.0,19.0,1644593140.53125,P04,D07,0,0,0
123,-8.0,61.0,20.0,1644593140.5625,P04,D07,0,0,0
124,-8.0,61.0,19.0,1644593140.59375,P04,D07,0,0,0
125,-8.0,61.0,20.0,1644593140.625,P04,D07,0,0,0
126,-8.0,61.0,19.0,1644593140.65625,P04,D07,0,0,0
127,-8.0,61.0,19.0,1644593140.6875,P04,D07,0,0,0
128,-8.0,61.0,19.0,1644593140.71875,P04,D07,0,0,0
129,-8.0,61.0,20.0,1644593140.75,P04,D07,0,0,0
130,-8.0,61.0,20.0,1644593140.78125,P04,D07,0,0,0
131,-8.0,61.0,20.0,1644593140.8125,P04,D07,0,0,0
132,-8.0,61.0,20.0,1644593140.84375,P04,D07,0,0,0
133,-8.0,61.0,19.0,1644593140.875,P04,D07,0,0,0
134,-8.0,61.0,20.0,1644593140.90625,P04,D07,0,0,0
135,-8.0,61.0,20.0,1644593140.9375,P04,D07,0,0,0
136,-8.0,61.0,19.0,1644593140.96875,P04,D07,0,0,0
137,-9.0,61.0,20.0,1644593141.0,P04,D07,0,0,0
138,-8.0,61.0,19.0,1644593141.03125,P04,D07,0,0,0
139,-8.0,61.0,19.0,1644593141.0625,P04,D07,0,0,0
140,-8.0,61.0,20.0,1644593141.09375,P04,D07,0,0,0
141,-8.0,61.0,19.0,1644593141.125,P04,D07,0,0,0
142,-8.0,61.0,20.0,1644593141.15625,P04,D07,0,0,0
143,-8.0,61.0,19.0,1644593141.1875,P04,D07,0,0,0
144,-8.0,61.0,19.0,1644593141.21875,P04,D07,0,0,0
145,-8.0,61.0,20.0,1644593141.25,P04,D07,0,0,0
146,-8.0,61.0,19.0,1644593141.28125,P04,D07,0,0,0
147,-9.0,61.0,20.0,1644593141.3125,P04,D07,0,0,0
148,-8.0,61.0,20.0,1644593141.34375,P04,D07,0,0,0
149,-8.0,61.0,19.0,1644593141.375,P04,D07,0,0,0
150,-9.0,61.0,19.0,1644593141.40625,P04,D07,0,0,0
151,-8.0,61.0,20.0,1644593141.4375,P04,D07,0,0,0
152,-8.0,61.0,19.0,1644593141.46875,P04,D07,0,0,0
153,-8.0,61.0,19.0,1644593141.5,P04,D07,0,0,0
154,-8.0,61.0,19.0,1644593141.53125,P04,D07,0,0,0
155,-8.0,61.0,20.0,1644593141.5625,P04,D07,0,0,0
156,-8.0,61.0,20.0,1644593141.59375,P04,D07,0,0,0
157,-8.0,61.0,20.0,1644593141.625,P04,D07,0,0,0
158,-8.0,61.0,20.0,1644593141.65625,P04,D07,0,0,0
159,-8.0,61.0,20.0,1644593141.6875,P04,D07,0,0,0
160,-8.0,61.0,19.0,1644593141.71875,P04,D07,0,0,0
161,-8.0,61.0,19.0,1644593141.75,P04,D07,0,0,0
162,-8.0,61.0,19.0,1644593141.78125,P04,D07,0,0,0
163,-8.0,61.0,19.0,1644593141.8125,P04,D07,0,0,0
164,-8.0,61.0,19.0,1644593141.84375,P04,D07,0,0,0
165,-8.0,61.0,20.0,1644593141.875,P04,D07,0,0,0
166,-8.0,61.0,19.0,1644593141.90625,P04,D07,0,0,0
167,-8.0,61.0,19.0,1644593141.9375,P04,D07,0,0,0
168,-8.0,61.0,19.0,1644593141.96875,P04,D07,0,0,0
169,-8.0,61.0,19.0,1644593142.0,P04,D07,0,0,0
170,-8.0,61.0,19.0,1644593142.03125,P04,D07,0,0,0
171,-9.0,61.0,19.0,1644593142.0625,P04,D07,0,0,0
172,-8.0,61.0,20.0,1644593142.09375,P04,D07,0,0,0
173,-8.0,61.0,19.0,1644593142.125,P04,D07,0,0,0
174,-8.0,61.0,18.0,1644593142.15625,P04,D07,0,0,0
175,-9.0,61.0,17.0,1644593142.1875,P04,D07,0,0,0
176,-10.0,61.0,16.0,1644593142.21875,P04,D07,0,0,0
177,-10.0,61.0,16.0,1644593142.25,P04,D07,0,0,0
178,-11.0,62.0,15.0,1644593142.28125,P04,D07,0,0,0
179,-10.0,62.0,15.0,1644593142.3125,P04,D07,0,0,0
180,-10.0,62.0,16.0,1644593142.34375,P04,D07,0,0,0
181,-8.0,61.0,19.0,1644593142.375,P04,D07,0,0,0
182,-8.0,61.0,19.0,1644593142.40625,P04,D07,0,0,0
183,-8.0,61.0,22.0,1644593142.4375,P04,D07,0,0,0
184,-8.0,60.0,23.0,1644593142.46875,P04,D07,0,0,0
185,-8.0,60.0,20.0,1644593142.5,P04,D07,0,0,0
186,-8.0,61.0,19.0,1644593142.53125,P04,D07,0,0,0
187,-8.0,61.0,19.0,1644593142.5625,P04,D07,0,0,0
188,-7.0,61.0,19.0,1644593142.59375,P04,D07,0,0,0
189,-9.0,61.0,18.0,1644593142.625,P04,D07,0,0,0
190,-4.0,62.0,18.0,1644593142.65625,P04,D07,0,0,0
191,-4.0,61.0,16.0,1644593142.6875,P04,D07,0,0,0
192,-11.0,62.0,17.0,1644593142.71875,P04,D07,0,0,0
193,-12.0,62.0,17.0,1644593142.75,P04,D07,0,0,0
194,-5.0,61.0,17.0,1644593142.78125,P04,D07,0,0,0
195,-6.0,62.0,17.0,1644593142.8125,P04,D07,0,0,0
196,-8.0,62.0,16.0,1644593142.84375,P04,D07,0,0,0
197,-6.0,62.0,17.0,1644593142.875,P04,D07,0,0,0
198,-4.0,60.0,22.0,1644593142.90625,P04,D07,0,0,0
199,-7.0,60.0,22.0,1644593142.9375,P04,D07,0,0,0
200,-8.0,60.0,21.0,1644593142.96875,P04,D07,0,0,0
201,-6.0,60.0,23.0,1644593143.0,P04,D07,0,0,0
202,-5.0,61.0,22.0,1644593143.03125,P04,D07,0,0,0
203,-4.0,60.0,22.0,1644593143.0625,P04,D07,0,0,0
204,-5.0,61.0,20.0,1644593143.09375,P04,D07,0,0,0
205,-10.0,62.0,15.0,1644593143.125,P04,D07,0,0,0
206,-5.0,61.0,16.0,1644593143.15625,P04,D07,0,0,0
207,1.0,62.0,17.0,1644593143.1875,P04,D07,0,0,0
208,-6.0,62.0,16.0,1644593143.21875,P04,D07,0,0,0
209,-9.0,61.0,17.0,1644593143.25,P04,D07,0,0,0
210,-9.0,60.0,20.0,1644593143.28125,P04,D07,0,0,0
211,-7.0,58.0,26.0,1644593143.3125,P04,D07,0,0,0
212,-6.0,59.0,27.0,1644593143.34375,P04,D07,0,0,0
213,-7.0,58.0,27.0,1644593143.375,P04,D07,0,0,0
214,-6.0,59.0,27.0,1644593143.40625,P04,D07,0,0,0
215,-5.0,59.0,25.0,1644593143.4375,P04,D07,0,0,0
216,-7.0,59.0,23.0,1644593143.46875,P04,D07,0,0,0
217,-9.0,60.0,21.0,1644593143.5,P04,D07,0,0,0
218,-8.0,61.0,19.0,1644593143.53125,P04,D07,0,0,0
219,-7.0,61.0,18.0,1644593143.5625,P04,D07,0,0,0
220,-8.0,61.0,19.0,1644593143.59375,P04,D07,0,0,0
221,-8.0,61.0,21.0,1644593143.625,P04,D07,0,0,0
222,-5.0,60.0,22.0,1644593143.65625,P04,D07,0,0,0
223,-7.0,60.0,22.0,1644593143.6875,P04,D07,0,0,0
224,-7.0,60.0,22.0,1644593143.71875,P04,D07,0,0,0
225,-7.0,60.0,22.0,1644593143.75,P04,D07,0,0,0
226,-7.0,60.0,22.0,1644593143.78125,P04,D07,0,0,0
227,-6.0,59.0,23.0,1644593143.8125,P04,D07,0,0,0
228,-6.0,60.0,23.0,1644593143.84375,P04,D07,0,0,0
229,-6.0,59.0,24.0,1644593143.875,P04,D07,0,0,0
230,-5.0,59.0,24.0,1644593143.90625,P04,D07,0,0,0
231,-4.0,59.0,23.0,1644593143.9375,P04,D07,0,0,0
232,-5.0,60.0,22.0,1644593143.96875,P04,D07,0,0,0
233,-6.0,60.0,22.0,1644593144.0,P04,D07,0,0,0
234,-5.0,60.0,23.0,1644593144.03125,P04,D07,0,0,0
235,-5.0,60.0,21.0,1644593144.0625,P04,D07,0,0,0
236,-6.0,60.0,23.0,1644593144.09375,P04,D07,0,0,0
237,-6.0,60.0,23.0,1644593144.125,P04,D07,0,0,0
238,-3.0,59.0,22.0,1644593144.15625,P04,D07,0,0,0
239,-6.0,60.0,22.0,1644593144.1875,P04,D07,0,0,0
240,-8.0,59.0,24.0,1644593144.21875,P04,D07,0,0,0
241,-6.0,60.0,23.0,1644593144.25,P04,D07,0,0,0
242,-5.0,60.0,22.0,1644593144.28125,P04,D07,0,0,0
243,-5.0,60.0,22.0,1644593144.3125,P04,D07,0,0,0
244,-4.0,60.0,23.0,1644593144.34375,P04,D07,0,0,0
245,-4.0,59.0,24.0,1644593144.375,P04,D07,0,0,0
246,-5.0,59.0,24.0,1644593144.40625,P04,D07,0,0,0
247,-6.0,60.0,23.0,1644593144.4375,P04,D07,0,0,0
248,-4.0,60.0,22.0,1644593144.46875,P04,D07,0,0,0
249,-4.0,60.0,23.0,1644593144.5,P04,D07,0,0,0
250,-3.0,59.0,24.0,1644593144.53125,P04,D07,0,0,0
251,-3.0,59.0,25.0,1644593144.5625,P04,D07,0,0,0
252,-5.0,59.0,24.0,1644593144.59375,P04,D07,0,0,0
253,-13.0,60.0,21.0,1644593144.625,P04,D07,0,0,0
254,-13.0,60.0,20.0,1644593144.65625,P04,D07,0,0,0
255,-13.0,61.0,19.0,1644593144.6875,P04,D07,0,0,0
256,-14.0,60.0,18.0,1644593144.71875,P04,D07,0,0,0
257,-12.0,60.0,20.0,1644593144.75,P04,D07,0,0,0
258,-9.0,60.0,21.0,1644593144.78125,P04,D07,0,0,0
259,-8.0,60.0,21.0,1644593144.8125,P04,D07,0,0,0
260,-7.0,60.0,22.0,1644593144.84375,P04,D07,0,0,0
261,-7.0,60.0,22.0,1644593144.875,P04,D07,0,0,0
262,-7.0,60.0,22.0,1644593144.90625,P04,D07,0,0,0
263,-8.0,60.0,22.0,1644593144.9375,P04,D07,0,0,0
264,-7.0,60.0,22.0,1644593144.96875,P04,D07,0,0,0
265,-7.0,60.0,22.0,1644593145.0,P04,D07,0,0,0
266,-7.0,60.0,21.0,1644593145.03125,P04,D07,0,0,0
267,-7.0,60.0,20.0,1644593145.0625,P04,D07,0,0,0
268,-8.0,61.0,20.0,1644593145.09375,P04,D07,0,0,0
269,-8.0,61.0,20.0,1644593145.125,P04,D07,0,0,0
270,-7.0,60.0,21.0,1644593145.15625,P04,D07,0,0,0
271,-8.0,60.0,21.0,1644593145.1875,P04,D07,0,0,0
272,-8.0,60.0,21.0,1644593145.21875,P04,D07,0,0,0
273,-7.0,60.0,21.0,1644593145.25,P04,D07,0,0,0
274,-7.0,60.0,21.0,1644593145.28125,P04,D07,0,0,0
275,-8.0,60.0,22.0,1644593145.3125,P04,D07,0,0,0
276,-8.0,60.0,21.0,1644593145.34375,P04,D07,0,0,0
277,-8.0,60.0,22.0,1644593145.375,P04,D07,0,0,0
278,-7.0,60.0,22.0,1644593145.40625,P04,D07,0,0,0
279,-7.0,60.0,22.0,1644593145.4375,P04,D07,0,0,0
280,-7.0,60.0,22.0,1644593145.46875,P04,D07,0,0,0
281,-8.0,60.0,22.0,1644593145.5,P04,D07,0,0,0
282,-7.0,60.0,23.0,1644593145.53125,P04,D07,0,0,0
283,-7.0,60.0,22.0,1644593145.5625,P04,D07,0,0,0
284,-7.0,60.0,22.0,1644593145.59375,P04,D07,0,0,0
285,-7.0,60.0,21.0,1644593145.625,P04,D07,0,0,0
286,-8.0,60.0,22.0,1644593145.65625,P04,D07,0,0,0
287,-7.0,60.0,22.0,1644593145.6875,P04,D07,0,0,0
288,-7.0,60.0,22.0,1644593145.71875,P04,D07,0,0,0
289,-7.0,60.0,22.0,1644593145.75,P04,D07,0,0,0
290,-7.0,60.0,22.0,1644593145.78125,P04,D07,0,0,0
291,-7.0,60.0,22.0,1644593145.8125,P04,D07,0,0,0
292,-7.0,60.0,22.0,1644593145.84375,P04,D07,0,0,0
293,-7.0,60.0,22.0,1644593145.875,P04,D07,0,0,0
294,-6.0,60.0,22.0,1644593145.90625,P04,D07,0,0,0
295,-7.0,60.0,22.0,1644593145.9375,P04,D07,0,0,0
296,-6.0,60.0,22.0,1644593145.96875,P04,D07,0,0,0
297,-7.0,61.0,22.0,1644593146.0,P04,D07,0,0,0
298,-7.0,60.0,22.0,1644593146.03125,P04,D07,0,0,0
299,-7.0,60.0,22.0,1644593146.0625,P04,D07,0,0,0
300,-7.0,60.0,22.0,1644593146.09375,P04,D07,0,0,0
301,-7.0,60.0,22.0,1644593146.125,P04,D07,0,0,0
302,-7.0,60.0,22.0,1644593146.15625,P04,D07,0,0,0
303,-7.0,60.0,22.0,1644593146.1875,P04,D07,0,0,0
304,-7.0,60.0,22.0,1644593146.21875,P04,D07,0,0,0
305,-7.0,60.0,22.0,1644593146.25,P04,D07,0,0,0
306,-7.0,60.0,22.0,1644593146.28125,P04,D07,0,0,0
307,-7.0,60.0,22.0,1644593146.3125,P04,D07,0,0,0
308,-7.0,60.0,22.0,1644593146.34375,P04,D07,0,0,0
309,-7.0,60.0,22.0,1644593146.375,P04,D07,0,0,0
310,-7.0,60.0,22.0,1644593146.40625,P04,D07,0,0,0
311,-7.0,60.0,22.0,1644593146.4375,P04,D07,0,0,0
312,-7.0,60.0,22.0,1644593146.46875,P04,D07,0,0,0
313,-7.0,60.0,22.0,1644593146.5,P04,D07,0,0,0
314,-7.0,60.0,22.0,1644593146.53125,P04,D07,0,0,0
315,-7.0,60.0,22.0,1644593146.5625,P04,D07,0,0,0
316,-6.0,60.0,22.0,1644593146.59375,P04,D07,0,0,0
317,-6.0,60.0,23.0,1644593146.625,P04,D07,0,0,0
318,-6.0,60.0,23.0,1644593146.65625,P04,D07,0,0,0
319,-6.0,60.0,23.0,1644593146.6875,P04,D07,0,0,0
320,-6.0,60.0,23.0,1644593146.71875,P04,D07,0,0,0
321,-6.0,59.0,23.0,1644593146.75,P04,D07,0,0,0
322,-6.0,60.0,23.0,1644593146.78125,P04,D07,0,0,0
323,-6.0,60.0,23.0,1644593146.8125,P04,D07,0,0,0
324,-6.0,60.0,22.0,1644593146.84375,P04,D07,0,0,0
325,-6.0,59.0,23.0,1644593146.875,P04,D07,0,0,0
326,-6.0,60.0,23.0,1644593146.90625,P04,D07,0,0,0
327,-6.0,60.0,22.0,1644593146.9375,P04,D07,0,0,0
328,-6.0,60.0,22.0,1644593146.96875,P04,D07,0,0,0
329,-6.0,60.0,22.0,1644593147.0,P04,D07,0,0,0
330,-6.0,60.0,23.0,1644593147.03125,P04,D07,0,0,0
331,-7.0,59.0,23.0,1644593147.0625,P04,D07,0,0,0
332,-6.0,60.0,23.0,1644593147.09375,P04,D07,0,0,0
333,-6.0,60.0,23.0,1644593147.125,P04,D07,0,0,0
334,-6.0,60.0,23.0,1644593147.15625,P04,D07,0,0,0
335,-6.0,60.0,23.0,1644593147.1875,P04,D07,0,0,0
336,-6.0,59.0,23.0,1644593147.21875,P04,D07,0,0,0
337,-6.0,59.0,23.0,1644593147.25,P04,D07,0,0,0
338,-6.0,59.0,23.0,1644593147.28125,P04,D07,0,0,0
339,-6.0,59.0,23.0,1644593147.3125,P04,D07,0,0,0
340,-6.0,60.0,23.0,1644593147.34375,P04,D07,0,0,0
341,-6.0,59.0,23.0,1644593147.375,P04,D07,0,0,0
342,-6.0,60.0,23.0,1644593147.40625,P04,D07,0,0,0
343,-6.0,60.0,23.0,1644593147.4375,P04,D07,0,0,0
344,-6.0,59.0,23.0,1644593147.46875,P04,D07,0,0,0
345,-6.0,60.0,23.0,1644593147.5,P04,D07,0,0,0
346,-6.0,60.0,22.0,1644593147.53125,P04,D07,0,0,0
347,-6.0,60.0,22.0,1644593147.5625,P04,D07,0,0,0
348,-7.0,60.0,22.0,1644593147.59375,P04,D07,0,0,0
349,-6.0,60.0,23.0,1644593147.625,P04,D07,0,0,0
350,-6.0,59.0,23.0,1644593147.65625,P04,D07,0,0,0
351,-6.0,59.0,23.0,1644593147.6875,P04,D07,0,0,0
352,-6.0,59.0,23.0,1644593147.71875,P04,D07,0,0,0
353,-6.0,59.0,23.0,1644593147.75,P04,D07,0,0,0
354,-5.0,59.0,23.0,1644593147.78125,P04,D07,0,0,0
355,-7.0,59.0,23.0,1644593147.8125,P04,D07,0,0,0
356,-6.0,59.0,23.0,1644593147.84375,P04,D07,0,0,0
357,-6.0,59.0,23.0,1644593147.875,P04,D07,0,0,0
358,-6.0,59.0,24.0,1644593147.90625,P04,D07,0,0,0
359,-6.0,59.0,23.0,1644593147.9375,P04,D07,0,0,0
360,-6.0,59.0,23.0,1644593147.96875,P04,D07,0,0,0
361,-6.0,59.0,23.0,1644593148.0,P04,D07,0,0,0
362,-6.0,59.0,23.0,1644593148.03125,P04,D07,0,0,0
363,-6.0,59.0,23.0,1644593148.0625,P04,D07,0,0,0
364,-6.0,59.0,23.0,1644593148.09375,P04,D07,0,0,0
365,-6.0,60.0,23.0,1644593148.125,P04,D07,0,0,0
366,-6.0,59.0,23.0,1644593148.15625,P04,D07,0,0,0
367,-6.0,59.0,23.0,1644593148.1875,P04,D07,0,0,0
368,-6.0,59.0,23.0,1644593148.21875,P04,D07,0,0,0
369,-6.0,59.0,23.0,1644593148.25,P04,D07,0,0,0
370,-6.0,59.0,23.0,1644593148.28125,P04,D07,0,0,0
371,-6.0,59.0,23.0,1644593148.3125,P04,D07,0,0,0
372,-6.0,59.0,23.0,1644593148.34375,P04,D07,0,0,0
373,-6.0,60.0,23.0,1644593148.375,P04,D07,0,0,0
374,-6.0,59.0,23.0,1644593148.40625,P04,D07,0,0,0
375,-6.0,59.0,23.0,1644593148.4375,P04,D07,0,0,0
376,-6.0,59.0,23.0,1644593148.46875,P04,D07,0,0,0
377,-6.0,59.0,23.0,1644593148.5,P04,D07,0,0,0
378,-6.0,59.0,23.0,1644593148.53125,P04,D07,0,0,0
379,-6.0,59.0,23.0,1644593148.5625,P04,D07,0,0,0
380,-6.0,59.0,23.0,1644593148.59375,P04,D07,0,0,0
381,-6.0,59.0,23.0,1644593148.625,P04,D07,0,0,0
382,-6.0,59.0,23.0,1644593148.65625,P04,D07,0,0,0
383,-7.0,60.0,23.0,1644593148.6875,P04,D07,0,0,0
384,-6.0,60.0,23.0,1644593148.71875,P04,D07,0,0,0
385,-6.0,59.0,23.0,1644593148.75,P04,D07,0,0,0
386,-6.0,59.0,23.0,1644593148.78125,P04,D07,0,0,0
387,-7.0,59.0,23.0,1644593148.8125,P04,D07,0,0,0
388,-6.0,59.0,23.0,1644593148.84375,P04,D07,0,0,0
389,-6.0,59.0,23.0,1644593148.875,P04,D07,0,0,0
390,-6.0,59.0,23.0,1644593148.90625,P04,D07,0,0,0
391,-6.0,59.0,23.0,1644593148.9375,P04,D07,0,0,0
392,-6.0,59.0,23.0,1644593148.96875,P04,D07,0,0,0
393,-6.0,60.0,23.0,1644593149.0,P04,D07,0,0,0
394,-6.0,59.0,23.0,1644593149.03125,P04,D07,0,0,0
395,-6.0,59.0,23.0,1644593149.0625,P04,D07,0,0,0
396,-6.0,59.0,23.0,1644593149.09375,P04,D07,0,0,0
397,-6.0,59.0,23.0,1644593149.125,P04,D07,0,0,0
398,-6.0,59.0,23.0,1644593149.15625,P04,D07,0,0,0
399,-6.0,59.0,23.0,1644593149.1875,P04,D07,0,0,0
400,-6.0,59.0,23.0,1644593149.21875,P04,D07,0,0,0
401,-6.0,59.0,23.0,1644593149.25,P04,D07,0,0,0
402,-6.0,59.0,23.0,1644593149.28125,P04,D07,0,0,0
403,-6.0,59.0,23.0,1644593149.3125,P04,D07,0,0,0
404,-6.0,59.0,23.0,1644593149.34375,P04,D07,0,0,0
405,-6.0,59.0,23.0,1644593149.375,P04,D07,0,0,0
406,-6.0,60.0,24.0,1644593149.40625,P04,D07,0,0,0
407,-6.0,59.0,24.0,1644593149.4375,P04,D07,0,0,0
408,-6.0,59.0,23.0,1644593149.46875,P04,D07,0,0,0
409,-6.0,59.0,23.0,1644593149.5,P04,D07,0,0,0
410,-6.0,59.0,23.0,1644593149.53125,P04,D07,0,0,0
411,-6.0,59.0,23.0,1644593149.5625,P04,D07,0,0,0
412,-6.0,60.0,23.0,1644593149.59375,P04,D07,0,0,0
413,-6.0,59.0,23.0,1644593149.625,P04,D07,0,0,0
414,-6.0,59.0,23.0,1644593149.65625,P04,D07,0,0,0
415,-6.0,59.0,23.0,1644593149.6875,P04,D07,0,0,0
416,-6.0,59.0,23.0,1644593149.71875,P04,D07,0,0,0
417,-6.0,59.0,23.0,1644593149.75,P04,D07,0,0,0
418,-6.0,59.0,23.0,1644593149.78125,P04,D07,0,0,0
419,-6.0,59.0,23.0,1644593149.8125,P04,D07,0,0,0
420,-6.0,59.0,23.0,1644593149.84375,P04,D07,0,0,0
421,-6.0,59.0,23.0,1644593149.875,P04,D07,0,0,0
422,-6.0,59.0,23.0,1644593149.90625,P04,D07,0,0,0
423,-7.0,59.0,23.0,1644593149.9375,P04,D07,0,0,0
424,-6.0,59.0,23.0,1644593149.96875,P04,D07,0,0,0
425,-6.0,60.0,23.0,1644593150.0,P04,D07,0,0,0
426,-6.0,59.0,23.0,1644593150.03125,P04,D07,0,0,0
427,-7.0,60.0,23.0,1644593150.0625,P04,D07,0,0,0
428,-6.0,59.0,23.0,1644593150.09375,P04,D07,0,0,0
429,-6.0,59.0,23.0,1644593150.125,P04,D07,0,0,0
430,-7.0,59.0,23.0,1644593150.15625,P04,D07,0,0,0
431,-6.0,59.0,24.0,1644593150.1875,P04,D07,0,0,0
432,-6.0,59.0,23.0,1644593150.21875,P04,D07,0,0,0
433,-6.0,59.0,23.0,1644593150.25,P04,D07,0,0,0
434,-6.0,59.0,23.0,1644593150.28125,P04,D07,0,0,0
435,-6.0,59.0,23.0,1644593150.3125,P04,D07,0,0,0
436,-6.0,59.0,23.0,1644593150.34375,P04,D07,0,0,0
437,-6.0,59.0,23.0,1644593150.375,P04,D07,0,0,0
438,-6.0,59.0,23.0,1644593150.40625,P04,D07,0,0,0
439,-6.0,59.0,23.0,1644593150.4375,P04,D07,0,0,0
440,-6.0,60.0,23.0,1644593150.46875,P04,D07,0,0,0
441,-6.0,60.0,23.0,1644593150.5,P04,D07,0,0,0
442,-6.0,59.0,24.0,1644593150.53125,P04,D07,0,0,0
443,-6.0,59.0,23.0,1644593150.5625,P04,D07,0,0,0
444,-6.0,60.0,23.0,1644593150.59375,P04,D07,0,0,0
445,-6.0,59.0,23.0,1644593150.625,P04,D07,0,0,0
446,-6.0,59.0,23.0,1644593150.65625,P04,D07,0,0,0
447,-7.0,59.0,23.0,1644593150.6875,P04,D07,0,0,0
448,-6.0,59.0,23.0,1644593150.71875,P04,D07,0,0,0
449,-6.0,59.0,23.0,1644593150.75,P04,D07,0,0,0
450,-6.0,60.0,23.0,1644593150.78125,P04,D07,0,0,0
451,-6.0,59.0,23.0,1644593150.8125,P04,D07,0,0,0
452,-7.0,59.0,23.0,1644593150.84375,P04,D07,0,0,0
453,-7.0,59.0,23.0,1644593150.875,P04,D07,0,0,0
454,-6.0,59.0,23.0,1644593150.90625,P04,D07,0,0,0
455,-6.0,59.0,23.0,1644593150.9375,P04,D07,0,0,0
456,-7.0,59.0,24.0,1644593150.96875,P04,D07,0,0,0
457,-7.0,59.0,23.0,1644593151.0,P04,D07,0,0,0
458,-6.0,59.0,24.0,1644593151.03125,P04,D07,0,0,0
459,-7.0,59.0,23.0,1644593151.0625,P04,D07,0,0,0
460,-7.0,59.0,23.0,1644593151.09375,P04,D07,0,0,0
461,-7.0,59.0,23.0,1644593151.125,P04,D07,0,0,0
462,-7.0,59.0,23.0,1644593151.15625,P04,D07,0,0,0
463,-7.0,59.0,23.0,1644593151.1875,P04,D07,0,0,0
464,-6.0,59.0,23.0,1644593151.21875,P04,D07,0,0,0
465,-7.0,59.0,23.0,1644593151.25,P04,D07,0,0,0
466,-7.0,59.0,23.0,1644593151.28125,P04,D07,0,0,0
467,-7.0,59.0,24.0,1644593151.3125,P04,D07,0,0,0
468,-6.0,59.0,23.0,1644593151.34375,P04,D07,0,0,0
469,-7.0,59.0,23.0,1644593151.375,P04,D07,0,0,0
470,-6.0,59.0,23.0,1644593151.40625,P04,D07,0,0,0
471,-7.0,59.0,23.0,1644593151.4375,P04,D07,0,0,0
472,-7.0,59.0,23.0,1644593151.46875,P04,D07,0,0,0
473,-7.0,59.0,23.0,1644593151.5,P04,D07,0,0,0
474,-6.0,59.0,23.0,1644593151.53125,P04,D07,0,0,0
475,-7.0,59.0,24.0,1644593151.5625,P04,D07,0,0,0
476,-7.0,59.0,23.0,1644593151.59375,P04,D07,0,0,0
477,-7.0,59.0,23.0,1644593151.625,P04,D07,0,0,0
478,-7.0,59.0,23.0,1644593151.65625,P04,D07,0,0,0
479,-7.0,59.0,23.0,1644593151.6875,P04,D07,0,0,0
480,-7.0,59.0,23.0,1644593151.71875,P04,D07,0,0,0
481,-6.0,59.0,23.0,1644593151.75,P04,D07,0,0,0
482,-6.0,59.0,23.0,1644593151.78125,P04,D07,0,0,0
483,-7.0,59.0,23.0,1644593151.8125,P04,D07,0,0,0
484,-7.0,59.0,23.0,1644593151.84375,P04,D07,0,0,0
485,-6.0,59.0,23.0,1644593151.875,P04,D07,0,0,0
486,-6.0,59.0,23.0,1644593151.90625,P04,D07,0,0,0
487,-7.0,59.0,23.0,1644593151.9375,P04,D07,0,0,0
488,-7.0,59.0,23.0,1644593151.96875,P04,D07,0,0,0
489,-7.0,59.0,23.0,1644593152.0,P04,D07,0,0,0
490,-7.0,59.0,23.0,1644593152.03125,P04,D07,0,0,0
491,-7.0,59.0,24.0,1644593152.0625,P04,D07,0,0,0
492,-6.0,59.0,24.0,1644593152.09375,P04,D07,0,0,0
493,-6.0,59.0,24.0,1644593152.125,P04,D07,0,0,0
494,-7.0,59.0,23.0,1644593152.15625,P04,D07,0,0,0
495,-6.0,59.0,23.0,1644593152.1875,P04,D07,0,0,0
496,-7.0,59.0,23.0,1644593152.21875,P04,D07,0,0,0
497,-7.0,59.0,23.0,1644593152.25,P04,D07,0,0,0
498,-6.0,59.0,23.0,1644593152.28125,P04,D07,0,0,0
499,-7.0,59.0,23.0,1644593152.3125,P04,D07,0,0,0
500,-6.0,59.0,24.0,1644593152.34375,P04,D07,0,0,0
501,-6.0,59.0,23.0,1644593152.375,P04,D07,0,0,0
502,-6.0,59.0,23.0,1644593152.40625,P04,D07,0,0,0
503,-7.0,59.0,23.0,1644593152.4375,P04,D07,0,0,0
504,-6.0,59.0,23.0,1644593152.46875,P04,D07,0,0,0
505,-6.0,59.0,23.0,1644593152.5,P04,D07,0,0,0
506,-7.0,59.0,23.0,1644593152.53125,P04,D07,0,0,0
507,-6.0,59.0,24.0,1644593152.5625,P04,D07,0,0,0
508,-7.0,59.0,23.0,1644593152.59375,P04,D07,0,0,0
509,-7.0,59.0,23.0,1644593152.625,P04,D07,0,0,0
510,-7.0,59.0,23.0,1644593152.65625,P04,D07,0,0,0
511,-7.0,59.0,23.0,1644593152.6875,P04,D07,0,0,0
512,-7.0,59.0,23.0,1644593152.71875,P04,D07,0,0,0
513,-7.0,59.0,23.0,1644593152.75,P04,D07,0,0,0
514,-7.0,59.0,24.0,1644593152.78125,P04,D07,0,0,0
515,-6.0,59.0,24.0,1644593152.8125,P04,D07,0,0,0
516,-7.0,59.0,23.0,1644593152.84375,P04,D07,0,0,0
517,-7.0,59.0,23.0,1644593152.875,P04,D07,0,0,0
518,-6.0,59.0,23.0,1644593152.90625,P04,D07,0,0,0
519,-6.0,59.0,23.0,1644593152.9375,P04,D07,0,0,0
520,-7.0,59.0,24.0,1644593152.96875,P04,D07,0,0,0
521,-6.0,59.0,23.0,1644593153.0,P04,D07,0,0,0
522,-7.0,59.0,23.0,1644593153.03125,P04,D07,0,0,0
523,-7.0,59.0,23.0,1644593153.0625,P04,D07,0,0,0
524,-6.0,59.0,23.0,1644593153.09375,P04,D07,0,0,0
525,-7.0,59.0,23.0,1644593153.125,P04,D07,0,0,0
526,-7.0,59.0,23.0,1644593153.15625,P04,D07,0,0,0
527,-6.0,59.0,23.0,1644593153.1875,P04,D07,0,0,0
528,-6.0,59.0,23.0,1644593153.21875,P04,D07,0,0,0
529,-7.0,60.0,23.0,1644593153.25,P04,D07,0,0,0
530,-7.0,59.0,23.0,1644593153.28125,P04,D07,0,0,0
531,-7.0,59.0,23.0,1644593153.3125,P04,D07,0,0,0
532,-6.0,59.0,23.0,1644593153.34375,P04,D07,0,0,0
533,-7.0,59.0,23.0,1644593153.375,P04,D07,0,0,0
534,-7.0,59.0,23.0,1644593153.40625,P04,D07,0,0,0
535,-7.0,59.0,23.0,1644593153.4375,P04,D07,0,0,0
536,-7.0,59.0,23.0,1644593153.46875,P04,D07,0,0,0
537,-7.0,59.0,23.0,1644593153.5,P04,D07,0,0,0
538,-7.0,59.0,23.0,1644593153.53125,P04,D07,0,0,0
539,-6.0,59.0,23.0,1644593153.5625,P04,D07,0,0,0
540,-7.0,60.0,23.0,1644593153.59375,P04,D07,0,0,0
541,-6.0,59.0,23.0,1644593153.625,P04,D07,0,0,0
542,-7.0,59.0,23.0,1644593153.65625,P04,D07,0,0,0
543,-7.0,59.0,23.0,1644593153.6875,P04,D07,0,0,0
544,-7.0,59.0,23.0,1644593153.71875,P04,D07,0,0,0
545,-7.0,59.0,23.0,1644593153.75,P04,D07,0,0,0
546,-7.0,59.0,23.0,1644593153.78125,P04,D07,0,0,0
547,-7.0,59.0,23.0,1644593153.8125,P04,D07,0,0,0
548,-6.0,59.0,23.0,1644593153.84375,P04,D07,0,0,0
549,-7.0,59.0,23.0,1644593153.875,P04,D07,0,0,0
550,-7.0,60.0,23.0,1644593153.90625,P04,D07,0,0,0
551,-7.0,59.0,24.0,1644593153.9375,P04,D07,0,0,0
552,-6.0,59.0,23.0,1644593153.96875,P04,D07,0,0,0
553,-7.0,59.0,23.0,1644593154.0,P04,D07,0,0,0
554,-7.0,59.0,23.0,1644593154.03125,P04,D07,0,0,0
555,-7.0,59.0,23.0,1644593154.0625,P04,D07,0,0,0
556,-6.0,59.0,23.0,1644593154.09375,P04,D07,0,0,0
557,-6.0,59.0,23.0,1644593154.125,P04,D07,0,0,0
558,-7.0,59.0,23.0,1644593154.15625,P04,D07,0,0,0
559,-6.0,59.0,23.0,1644593154.1875,P04,D07,0,0,0
560,-6.0,59.0,23.0,1644593154.21875,P04,D07,0,0,0
561,-7.0,59.0,23.0,1644593154.25,P04,D07,0,0,0
562,-7.0,59.0,23.0,1644593154.28125,P04,D07,0,0,0
563,-6.0,60.0,23.0,1644593154.3125,P04,D07,0,0,0
564,-7.0,60.0,23.0,1644593154.34375,P04,D07,0,0,0
565,-6.0,59.0,23.0,1644593154.375,P04,D07,0,0,0
566,-6.0,59.0,23.0,1644593154.40625,P04,D07,0,0,0
567,-7.0,59.0,23.0,1644593154.4375,P04,D07,0,0,0
568,-7.0,59.0,23.0,1644593154.46875,P04,D07,0,0,0
569,-7.0,59.0,23.0,1644593154.5,P04,D07,0,0,0
570,-7.0,59.0,23.0,1644593154.53125,P04,D07,0,0,0
571,-7.0,59.0,23.0,1644593154.5625,P04,D07,0,0,0
572,-7.0,59.0,23.0,1644593154.59375,P04,D07,0,0,0
573,-7.0,59.0,23.0,1644593154.625,P04,D07,0,0,0
574,-7.0,59.0,24.0,1644593154.65625,P04,D07,0,0,0
575,-7.0,59.0,24.0,1644593154.6875,P04,D07,0,0,0
576,-7.0,59.0,23.0,1644593154.71875,P04,D07,0,0,0
577,-7.0,59.0,23.0,1644593154.75,P04,D07,0,0,0
578,-6.0,59.0,23.0,1644593154.78125,P04,D07,0,0,0
579,-6.0,59.0,23.0,1644593154.8125,P04,D07,0,0,0
580,-7.0,59.0,23.0,1644593154.84375,P04,D07,0,0,0
581,-6.0,59.0,23.0,1644593154.875,P04,D07,0,0,0
582,-6.0,60.0,23.0,1644593154.90625,P04,D07,0,0,0
583,-6.0,60.0,23.0,1644593154.9375,P04,D07,0,0,0
584,-6.0,59.0,23.0,1644593154.96875,P04,D07,0,0,0
585,-6.0,60.0,23.0,1644593155.0,P04,D07,0,0,0
586,-7.0,59.0,23.0,1644593155.03125,P04,D07,0,0,0
587,-6.0,59.0,23.0,1644593155.0625,P04,D07,0,0,0
588,-6.0,59.0,24.0,1644593155.09375,P04,D07,0,0,0
589,-7.0,59.0,23.0,1644593155.125,P04,D07,0,0,0
590,-7.0,59.0,23.0,1644593155.15625,P04,D07,0,0,0
591,-8.0,59.0,23.0,1644593155.1875,P04,D07,0,0,0
592,-8.0,59.0,24.0,1644593155.21875,P04,D07,0,0,0
593,-7.0,59.0,23.0,1644593155.25,P04,D07,0,0,0
594,-7.0,59.0,23.0,1644593155.28125,P04,D07,0,0,0
595,-8.0,59.0,23.0,1644593155.3125,P04,D07,0,0,0
596,-7.0,59.0,23.0,1644593155.34375,P04,D07,0,0,0
597,-7.0,59.0,24.0,1644593155.375,P04,D07,0,0,0
598,-7.0,59.0,23.0,1644593155.40625,P04,D07,0,0,0
599,-7.0,59.0,23.0,1644593155.4375,P04,D07,0,0,0
600,-6.0,59.0,23.0,1644593155.46875,P04,D07,0,0,0
601,-6.0,59.0,23.0,1644593155.5,P04,D07,0,0,0
602,-6.0,59.0,23.0,1644593155.53125,P04,D07,0,0,0
603,-6.0,59.0,23.0,1644593155.5625,P04,D07,0,0,0
604,-7.0,59.0,23.0,1644593155.59375,P04,D07,0,0,0
605,-6.0,59.0,23.0,1644593155.625,P04,D07,0,0,0
606,-7.0,59.0,24.0,1644593155.65625,P04,D07,0,0,0
607,-7.0,59.0,24.0,1644593155.6875,P04,D07,0,0,0
608,-7.0,59.0,23.0,1644593155.71875,P04,D07,0,0,0
609,-7.0,59.0,23.0,1644593155.75,P04,D07,0,0,0
610,-7.0,59.0,23.0,1644593155.78125,P04,D07,0,0,0
611,-7.0,59.0,23.0,1644593155.8125,P04,D07,0,0,0
612,-7.0,59.0,23.0,1644593155.84375,P04,D07,0,0,0
613,-7.0,59.0,23.0,1644593155.875,P04,D07,0,0,0
614,-7.0,59.0,23.0,1644593155.90625,P04,D07,0,0,0
615,-7.0,60.0,23.0,1644593155.9375,P04,D07,0,0,0
616,-7.0,59.0,23.0,1644593155.96875,P04,D07,0,0,0
617,-7.0,59.0,23.0,1644593156.0,P04,D07,0,0,0
618,-7.0,59.0,23.0,1644593156.03125,P04,D07,0,0,0
619,-7.0,59.0,23.0,1644593156.0625,P04,D07,0,0,0
620,-6.0,59.0,23.0,1644593156.09375,P04,D07,0,0,0
621,-7.0,59.0,23.0,1644593156.125,P04,D07,0,0,0
622,-7.0,59.0,23.0,1644593156.15625,P04,D07,0,0,0
623,-6.0,59.0,23.0,1644593156.1875,P04,D07,0,0,0
624,-7.0,59.0,23.0,1644593156.21875,P04,D07,0,0,0
625,-7.0,59.0,23.0,1644593156.25,P04,D07,0,0,0
626,-7.0,59.0,23.0,1644593156.28125,P04,D07,0,0,0
627,-7.0,59.0,23.0,1644593156.3125,P04,D07,0,0,0
628,-7.0,59.0,23.0,1644593156.34375,P04,D07,0,0,0
629,-7.0,59.0,23.0,1644593156.375,P04,D07,0,0,0
630,-6.0,59.0,24.0,1644593156.40625,P04,D07,0,0,0
631,-7.0,59.0,24.0,1644593156.4375,P04,D07,0,0,0
632,-7.0,59.0,23.0,1644593156.46875,P04,D07,0,0,0
633,-7.0,60.0,23.0,1644593156.5,P04,D07,0,0,0
634,-6.0,59.0,23.0,1644593156.53125,P04,D07,0,0,0
635,-6.0,59.0,23.0,1644593156.5625,P04,D07,0,0,0
636,-7.0,59.0,23.0,1644593156.59375,P04,D07,0,0,0
637,-6.0,60.0,23.0,1644593156.625,P04,D07,0,0,0
638,-6.0,59.0,23.0,1644593156.65625,P04,D07,0,0,0
639,-7.0,59.0,23.0,1644593156.6875,P04,D07,0,0,0
640,-7.0,59.0,23.0,1644593156.71875,P04,D07,0,0,0
641,-6.0,59.0,23.0,1644593156.75,P04,D07,0,0,0
642,-7.0,59.0,23.0,1644593156.78125,P04,D07,0,0,0
643,-7.0,59.0,23.0,1644593156.8125,P04,D07,0,0,0
644,-7.0,59.0,23.0,1644593156.84375,P04,D07,0,0,0
645,-7.0,59.0,23.0,1644593156.875,P04,D07,0,0,0
646,-7.0,59.0,23.0,1644593156.90625,P04,D07,0,0,0
647,-6.0,59.0,23.0,1644593156.9375,P04,D07,0,0,0
648,-6.0,59.0,23.0,1644593156.96875,P04,D07,0,0,0
649,-6.0,59.0,23.0,1644593157.0,P04,D07,0,0,0
650,-6.0,59.0,24.0,1644593157.03125,P04,D07,0,0,0
651,-7.0,59.0,23.0,1644593157.0625,P04,D07,0,0,0
652,-7.0,59.0,23.0,1644593157.09375,P04,D07,0,0,0
653,-6.0,59.0,23.0,1644593157.125,P04,D07,0,0,0
654,-7.0,59.0,23.0,1644593157.15625,P04,D07,0,0,0
655,-7.0,59.0,23.0,1644593157.1875,P04,D07,0,0,0
656,-6.0,59.0,23.0,1644593157.21875,P04,D07,0,0,0
657,-7.0,60.0,23.0,1644593157.25,P04,D07,0,0,0
658,-7.0,59.0,23.0,1644593157.28125,P04,D07,0,0,0
659,-6.0,59.0,23.0,1644593157.3125,P04,D07,0,0,0
660,-6.0,59.0,23.0,1644593157.34375,P04,D07,0,0,0
661,-7.0,59.0,23.0,1644593157.375,P04,D07,0,0,0
662,-6.0,59.0,23.0,1644593157.40625,P04,D07,0,0,0
663,-6.0,59.0,23.0,1644593157.4375,P04,D07,0,0,0
664,-6.0,59.0,24.0,1644593157.46875,P04,D07,0,0,0
665,-6.0,59.0,23.0,1644593157.5,P04,D07,0,0,0
666,-6.0,59.0,23.0,1644593157.53125,P04,D07,0,0,0
667,-7.0,59.0,24.0,1644593157.5625,P04,D07,0,0,0
668,-6.0,59.0,23.0,1644593157.59375,P04,D07,0,0,0
669,-6.0,59.0,23.0,1644593157.625,P04,D07,0,0,0
670,-6.0,59.0,24.0,1644593157.65625,P04,D07,0,0,0
671,-6.0,59.0,23.0,1644593157.6875,P04,D07,0,0,0
672,-6.0,59.0,23.0,1644593157.71875,P04,D07,0,0,0
673,-5.0,59.0,23.0,1644593157.75,P04,D07,0,0,0
674,-5.0,60.0,22.0,1644593157.78125,P04,D07,0,0,0
675,-6.0,59.0,23.0,1644593157.8125,P04,D07,0,0,0
676,-7.0,59.0,25.0,1644593157.84375,P04,D07,0,0,0
677,-8.0,59.0,24.0,1644593157.875,P04,D07,0,0,0
678,-7.0,59.0,24.0,1644593157.90625,P04,D07,0,0,0
679,-8.0,59.0,24.0,1644593157.9375,P04,D07,0,0,0
680,-7.0,59.0,24.0,1644593157.96875,P04,D07,0,0,0
681,-7.0,59.0,24.0,1644593158.0,P04,D07,0,0,0
682,-9.0,59.0,24.0,1644593158.03125,P04,D07,0,0,0
683,-9.0,59.0,24.0,1644593158.0625,P04,D07,0,0,0
684,-9.0,59.0,25.0,1644593158.09375,P04,D07,0,0,0
685,-9.0,58.0,24.0,1644593158.125,P04,D07,0,0,0
686,-9.0,59.0,24.0,1644593158.15625,P04,D07,0,0,0
687,-9.0,59.0,24.0,1644593158.1875,P04,D07,0,0,0
688,-9.0,59.0,24.0,1644593158.21875,P04,D07,0,0,0
689,-9.0,59.0,24.0,1644593158.25,P04,D07,0,0,0
690,-8.0,59.0,24.0,1644593158.28125,P04,D07,0,0,0
691,-9.0,59.0,24.0,1644593158.3125,P04,D07,0,0,0
692,-9.0,59.0,24.0,1644593158.34375,P04,D07,0,0,0
693,-9.0,59.0,24.0,1644593158.375,P04,D07,0,0,0
694,-8.0,59.0,24.0,1644593158.40625,P04,D07,0,0,0
695,-8.0,59.0,24.0,1644593158.4375,P04,D07,0,0,0
696,-8.0,59.0,24.0,1644593158.46875,P04,D07,0,0,0
697,-8.0,59.0,24.0,1644593158.5,P04,D07,0,0,0
698,-8.0,59.0,24.0,1644593158.53125,P04,D07,0,0,0
699,-8.0,59.0,24.0,1644593158.5625,P04,D07,0,0,0
700,-9.0,59.0,24.0,1644593158.59375,P04,D07,0,0,0
701,-9.0,59.0,24.0,1644593158.625,P04,D07,0,0,0
702,-9.0,58.0,25.0,1644593158.65625,P04,D07,0,0,0
703,-9.0,58.0,25.0,1644593158.6875,P04,D07,0,0,0
704,-9.0,58.0,25.0,1644593158.71875,P04,D07,0,0,0
705,-9.0,59.0,24.0,1644593158.75,P04,D07,0,0,0
706,-9.0,58.0,24.0,1644593158.78125,P04,D07,0,0,0
707,-9.0,58.0,26.0,1644593158.8125,P04,D07,0,0,0
708,-8.0,58.0,25.0,1644593158.84375,P04,D07,0,0,0
709,-8.0,58.0,24.0,1644593158.875,P04,D07,0,0,0
710,-8.0,59.0,25.0,1644593158.90625,P04,D07,0,0,0
711,-8.0,59.0,25.0,1644593158.9375,P04,D07,0,0,0
712,-7.0,59.0,25.0,1644593158.96875,P04,D07,0,0,0
713,-8.0,58.0,25.0,1644593159.0,P04,D07,0,0,0
714,-8.0,59.0,25.0,1644593159.03125,P04,D07,0,0,0
715,-8.0,58.0,26.0,1644593159.0625,P04,D07,0,0,0
716,-8.0,58.0,25.0,1644593159.09375,P04,D07,0,0,0
717,-8.0,58.0,25.0,1644593159.125,P04,D07,0,0,0
718,-8.0,59.0,24.0,1644593159.15625,P04,D07,0,0,0
719,-8.0,59.0,24.0,1644593159.1875,P04,D07,0,0,0
720,-8.0,59.0,23.0,1644593159.21875,P04,D07,0,0,0
721,-8.0,59.0,23.0,1644593159.25,P04,D07,0,0,0
722,-9.0,59.0,23.0,1644593159.28125,P04,D07,0,0,0
723,-8.0,59.0,23.0,1644593159.3125,P04,D07,0,0,0
724,-8.0,59.0,23.0,1644593159.34375,P04,D07,0,0,0
725,-9.0,59.0,23.0,1644593159.375,P04,D07,0,0,0
726,-9.0,59.0,24.0,1644593159.40625,P04,D07,0,0,0
727,-7.0,59.0,24.0,1644593159.4375,P04,D07,0,0,0
728,-7.0,59.0,24.0,1644593159.46875,P04,D07,0,0,0
729,-6.0,59.0,25.0,1644593159.5,P04,D07,0,0,0
730,-6.0,59.0,24.0,1644593159.53125,P04,D07,0,0,0
731,-6.0,59.0,24.0,1644593159.5625,P04,D07,0,0,0
732,-6.0,59.0,24.0,1644593159.59375,P04,D07,0,0,0
733,-6.0,59.0,24.0,1644593159.625,P04,D07,0,0,0
734,-7.0,59.0,24.0,1644593159.65625,P04,D07,0,0,0
735,-6.0,59.0,23.0,1644593159.6875,P04,D07,0,0,0
736,-7.0,59.0,23.0,1644593159.71875,P04,D07,0,0,0
737,-6.0,59.0,23.0,1644593159.75,P04,D07,0,0,0
738,-5.0,59.0,23.0,1644593159.78125,P04,D07,0,0,0
739,-6.0,59.0,23.0,1644593159.8125,P04,D07,0,0,0
740,-7.0,60.0,23.0,1644593159.84375,P04,D07,0,0,0
741,-7.0,60.0,23.0,1644593159.875,P04,D07,0,0,0
742,-6.0,59.0,23.0,1644593159.90625,P04,D07,0,0,0
743,-6.0,59.0,23.0,1644593159.9375,P04,D07,0,0,0
744,-6.0,60.0,23.0,1644593159.96875,P04,D07,0,0,0
745,-6.0,59.0,23.0,1644593160.0,P04,D07,0,0,0
746,-6.0,59.0,23.0,1644593160.03125,P04,D07,0,0,0
747,-6.0,59.0,23.0,1644593160.0625,P04,D07,0,0,0
748,-6.0,59.0,24.0,1644593160.09375,P04,D07,0,0,0
749,-6.0,60.0,23.0,1644593160.125,P04,D07,0,0,0
750,-6.0,59.0,23.0,1644593160.15625,P04,D07,0,0,0
751,-6.0,60.0,23.0,1644593160.1875,P04,D07,0,0,0
752,-6.0,59.0,23.0,1644593160.21875,P04,D07,0,0,0
753,-6.0,59.0,23.0,1644593160.25,P04,D07,0,0,0
754,-6.0,59.0,23.0,1644593160.28125,P04,D07,0,0,0
755,-6.0,59.0,24.0,1644593160.3125,P04,D07,0,0,0
756,-6.0,59.0,23.0,1644593160.34375,P04,D07,0,0,0
757,-6.0,59.0,23.0,1644593160.375,P04,D07,0,0,0
758,-6.0,59.0,23.0,1644593160.40625,P04,D07,0,0,0
759,-6.0,59.0,23.0,1644593160.4375,P04,D07,0,0,0
760,-6.0,59.0,23.0,1644593160.46875,P04,D07,0,0,0
761,-6.0,59.0,23.0,1644593160.5,P04,D07,0,0,0
762,-6.0,59.0,23.0,1644593160.53125,P04,D07,0,0,0
763,-6.0,59.0,24.0,1644593160.5625,P04,D07,0,0,0
764,-5.0,60.0,23.0,1644593160.59375,P04,D07,0,0,0
765,-5.0,60.0,23.0,1644593160.625,P04,D07,0,0,0
766,-6.0,59.0,23.0,1644593160.65625,P04,D07,0,0,0
767,-6.0,60.0,23.0,1644593160.6875,P04,D07,0,0,0
768,-5.0,59.0,24.0,1644593160.71875,P04,D07,0,0,0
769,-6.0,59.0,23.0,1644593160.75,P04,D07,0,0,0
770,-6.0,59.0,23.0,1644593160.78125,P04,D07,0,0,0
771,-6.0,59.0,23.0,1644593160.8125,P04,D07,0,0,0
772,-6.0,59.0,23.0,1644593160.84375,P04,D07,0,0,0
773,-6.0,59.0,23.0,1644593160.875,P04,D07,0,0,0
774,-6.0,59.0,23.0,1644593160.90625,P04,D07,0,0,0
775,-6.0,59.0,23.0,1644593160.9375,P04,D07,0,0,0
776,-6.0,59.0,23.0,1644593160.96875,P04,D07,0,0,0
777,-6.0,59.0,23.0,1644593161.0,P04,D07,0,0,0
778,-6.0,59.0,23.0,1644593161.03125,P04,D07,0,0,0
779,-6.0,59.0,24.0,1644593161.0625,P04,D07,0,0,0
780,-6.0,59.0,23.0,1644593161.09375,P04,D07,0,0,0
781,-6.0,60.0,23.0,1644593161.125,P04,D07,0,0,0
782,-5.0,59.0,23.0,1644593161.15625,P04,D07,0,0,0
783,-6.0,59.0,23.0,1644593161.1875,P04,D07,0,0,0
784,-6.0,59.0,23.0,1644593161.21875,P04,D07,0,0,0
785,-6.0,59.0,23.0,1644593161.25,P04,D07,0,0,0
786,-6.0,59.0,23.0,1644593161.28125,P04,D07,0,0,0
787,-6.0,59.0,23.0,1644593161.3125,P04,D07,0,0,0
788,-6.0,59.0,23.0,1644593161.34375,P04,D07,0,0,0
789,-6.0,59.0,23.0,1644593161.375,P04,D07,0,0,0
790,-6.0,59.0,23.0,1644593161.40625,P04,D07,0,0,0
791,-6.0,59.0,23.0,1644593161.4375,P04,D07,0,0,0
792,-6.0,59.0,24.0,1644593161.46875,P04,D07,0,0,0
793,-6.0,59.0,23.0,1644593161.5,P04,D07,0,0,0
794,-5.0,59.0,23.0,1644593161.53125,P04,D07,0,0,0
795,-6.0,59.0,23.0,1644593161.5625,P04,D07,0,0,0
796,-6.0,59.0,24.0,1644593161.59375,P04,D07,0,0,0
797,-6.0,59.0,23.0,1644593161.625,P04,D07,0,0,0
798,-6.0,59.0,23.0,1644593161.65625,P04,D07,0,0,0
799,-6.0,59.0,23.0,1644593161.6875,P04,D07,0,0,0
800,-6.0,59.0,23.0,1644593161.71875,P04,D07,0,0,0
801,-6.0,60.0,23.0,1644593161.75,P04,D07,0,0,0
802,-6.0,59.0,23.0,1644593161.78125,P04,D07,0,0,0
803,-6.0,60.0,24.0,1644593161.8125,P04,D07,0,0,0
804,-5.0,59.0,23.0,1644593161.84375,P04,D07,0,0,0
805,-6.0,59.0,23.0,1644593161.875,P04,D07,0,0,0
806,-6.0,59.0,23.0,1644593161.90625,P04,D07,0,0,0
807,-6.0,59.0,23.0,1644593161.9375,P04,D07,0,0,0
808,-6.0,59.0,23.0,1644593161.96875,P04,D07,0,0,0
809,-6.0,59.0,23.0,1644593162.0,P04,D07,0,0,0
810,-6.0,59.0,23.0,1644593162.03125,P04,D07,0,0,0
811,-6.0,59.0,23.0,1644593162.0625,P04,D07,0,0,0
812,-6.0,59.0,23.0,1644593162.09375,P04,D07,0,0,0
813,-6.0,59.0,23.0,1644593162.125,P04,D07,0,0,0
814,-6.0,59.0,23.0,1644593162.15625,P04,D07,0,0,0
815,-6.0,59.0,23.0,1644593162.1875,P04,D07,0,0,0
816,-6.0,59.0,23.0,1644593162.21875,P04,D07,0,0,0
817,-6.0,59.0,23.0,1644593162.25,P04,D07,0,0,0
818,-5.0,59.0,23.0,1644593162.28125,P04,D07,0,0,0
819,-6.0,60.0,23.0,1644593162.3125,P04,D07,0,0,0
820,-6.0,59.0,23.0,1644593162.34375,P04,D07,0,0,0
821,-6.0,59.0,23.0,1644593162.375,P04,D07,0,0,0
822,-6.0,59.0,23.0,1644593162.40625,P04,D07,0,0,0
823,-6.0,59.0,23.0,1644593162.4375,P04,D07,0,0,0
824,-6.0,59.0,23.0,1644593162.46875,P04,D07,0,0,0
825,-6.0,59.0,23.0,1644593162.5,P04,D07,0,0,0
826,-5.0,59.0,23.0,1644593162.53125,P04,D07,0,0,0
827,-6.0,59.0,23.0,1644593162.5625,P04,D07,0,0,0
828,-6.0,60.0,23.0,1644593162.59375,P04,D07,0,0,0
829,-6.0,59.0,23.0,1644593162.625,P04,D07,0,0,0
830,-6.0,59.0,23.0,1644593162.65625,P04,D07,0,0,0
831,-6.0,59.0,23.0,1644593162.6875,P04,D07,0,0,0
832,-6.0,59.0,23.0,1644593162.71875,P04,D07,0,0,0
833,-6.0,60.0,23.0,1644593162.75,P04,D07,0,0,0
834,-6.0,59.0,23.0,1644593162.78125,P04,D07,0,0,0
835,-5.0,59.0,23.0,1644593162.8125,P04,D07,0,0,0
836,-6.0,59.0,23.0,1644593162.84375,P04,D07,0,0,0
837,-6.0,59.0,23.0,1644593162.875,P04,D07,0,0,0
838,-6.0,59.0,23.0,1644593162.90625,P04,D07,0,0,0
839,-6.0,59.0,23.0,1644593162.9375,P04,D07,0,0,0
840,-6.0,59.0,23.0,1644593162.96875,P04,D07,0,0,0
841,-6.0,59.0,24.0,1644593163.0,P04,D07,0,0,0
842,-6.0,59.0,24.0,1644593163.03125,P04,D07,0,0,0
843,-5.0,59.0,24.0,1644593163.0625,P04,D07,0,0,0
844,-6.0,59.0,23.0,1644593163.09375,P04,D07,0,0,0
845,-6.0,59.0,23.0,1644593163.125,P04,D07,0,0,0
846,-6.0,59.0,23.0,1644593163.15625,P04,D07,0,0,0
847,-6.0,59.0,24.0,1644593163.1875,P04,D07,0,0,0
848,-6.0,59.0,23.0,1644593163.21875,P04,D07,0,0,0
849,-6.0,59.0,23.0,1644593163.25,P04,D07,0,0,0
850,-6.0,59.0,23.0,1644593163.28125,P04,D07,0,0,0
851,-6.0,59.0,23.0,1644593163.3125,P04,D07,0,0,0
852,-5.0,59.0,23.0,1644593163.34375,P04,D07,0,0,0
853,-6.0,59.0,24.0,1644593163.375,P04,D07,0,0,0
854,-5.0,59.0,23.0,1644593163.40625,P04,D07,0,0,0
855,-5.0,59.0,23.0,1644593163.4375,P04,D07,0,0,0
856,-6.0,59.0,23.0,1644593163.46875,P04,D07,0,0,0
857,-5.0,59.0,23.0,1644593163.5,P04,D07,0,0,0
858,-5.0,59.0,24.0,1644593163.53125,P04,D07,0,0,0
859,-6.0,60.0,23.0,1644593163.5625,P04,D07,0,0,0
860,-5.0,59.0,23.0,1644593163.59375,P04,D07,0,0,0
861,-5.0,59.0,23.0,1644593163.625,P04,D07,0,0,0
862,-6.0,60.0,23.0,1644593163.65625,P04,D07,0,0,0
863,-5.0,59.0,23.0,1644593163.6875,P04,D07,0,0,0
864,-5.0,59.0,23.0,1644593163.71875,P04,D07,0,0,0
865,-6.0,59.0,23.0,1644593163.75,P04,D07,0,0,0
866,-6.0,59.0,23.0,1644593163.78125,P04,D07,0,0,0
867,-5.0,59.0,24.0,1644593163.8125,P04,D07,0,0,0
868,-6.0,59.0,24.0,1644593163.84375,P04,D07,0,0,0
869,-5.0,60.0,23.0,1644593163.875,P04,D07,0,0,0
870,-6.0,59.0,23.0,1644593163.90625,P04,D07,0,0,0
871,-6.0,60.0,23.0,1644593163.9375,P04,D07,0,0,0
872,-5.0,59.0,23.0,1644593163.96875,P04,D07,0,0,0
873,-6.0,59.0,23.0,1644593164.0,P04,D07,0,0,0
874,-6.0,59.0,23.0,1644593164.03125,P04,D07,0,0,0
875,-5.0,59.0,24.0,1644593164.0625,P04,D07,0,0,0
876,-6.0,59.0,23.0,1644593164.09375,P04,D07,0,0,0
877,-6.0,59.0,23.0,1644593164.125,P04,D07,0,0,0
878,-5.0,59.0,24.0,1644593164.15625,P04,D07,0,0,0
879,-5.0,59.0,23.0,1644593164.1875,P04,D07,0,0,0
880,-6.0,59.0,23.0,1644593164.21875,P04,D07,0,0,0
881,-6.0,59.0,23.0,1644593164.25,P04,D07,0,0,0
882,-5.0,59.0,23.0,1644593164.28125,P04,D07,0,0,0
883,-5.0,59.0,24.0,1644593164.3125,P04,D07,0,0,0
884,-6.0,59.0,23.0,1644593164.34375,P04,D07,0,0,0
885,-5.0,59.0,23.0,1644593164.375,P04,D07,0,0,0
886,-6.0,59.0,23.0,1644593164.40625,P04,D07,0,0,0
887,-6.0,59.0,23.0,1644593164.4375,P04,D07,0,0,0
888,-6.0,59.0,23.0,1644593164.46875,P04,D07,0,0,0
889,-6.0,59.0,23.0,1644593164.5,P04,D07,0,0,0
890,-6.0,59.0,24.0,1644593164.53125,P04,D07,0,0,0
891,-5.0,59.0,23.0,1644593164.5625,P04,D07,0,0,0
892,-5.0,59.0,23.0,1644593164.59375,P04,D07,0,0,0
893,-5.0,59.0,24.0,1644593164.625,P04,D07,0,0,0
894,-6.0,59.0,23.0,1644593164.65625,P04,D07,0,0,0
895,-5.0,59.0,23.0,1644593164.6875,P04,D07,0,0,0
896,-6.0,59.0,23.0,1644593164.71875,P04,D07,0,0,0
897,-6.0,59.0,23.0,1644593164.75,P04,D07,0,0,0
898,-5.0,59.0,23.0,1644593164.78125,P04,D07,0,0,0
899,-6.0,59.0,24.0,1644593164.8125,P04,D07,0,0,0
900,-6.0,59.0,23.0,1644593164.84375,P04,D07,0,0,0
901,-6.0,59.0,23.0,1644593164.875,P04,D07,0,0,0
902,-6.0,59.0,23.0,1644593164.90625,P04,D07,0,0,0
903,-5.0,59.0,23.0,1644593164.9375,P04,D07,0,0,0
904,-5.0,59.0,23.0,1644593164.96875,P04,D07,0,0,0
905,-6.0,59.0,23.0,1644593165.0,P04,D07,0,0,0
906,-5.0,59.0,23.0,1644593165.03125,P04,D07,0,0,0
907,-5.0,59.0,23.0,1644593165.0625,P04,D07,0,0,0
908,-6.0,59.0,23.0,1644593165.09375,P04,D07,0,0,0
909,-5.0,59.0,23.0,1644593165.125,P04,D07,0,0,0
910,-5.0,59.0,24.0,1644593165.15625,P04,D07,0,0,0
911,-6.0,59.0,23.0,1644593165.1875,P04,D07,0,0,0
912,-6.0,59.0,23.0,1644593165.21875,P04,D07,0,0,0
913,-5.0,59.0,23.0,1644593165.25,P04,D07,0,0,0
914,-6.0,59.0,23.0,1644593165.28125,P04,D07,0,0,0
915,-6.0,59.0,24.0,1644593165.3125,P04,D07,0,0,0
916,-5.0,59.0,24.0,1644593165.34375,P04,D07,0,0,0
917,-5.0,59.0,23.0,1644593165.375,P04,D07,0,0,0
918,-5.0,59.0,23.0,1644593165.40625,P04,D07,0,0,0
919,-6.0,59.0,23.0,1644593165.4375,P04,D07,0,0,0
920,-5.0,59.0,23.0,1644593165.46875,P04,D07,0,0,0
921,-6.0,59.0,23.0,1644593165.5,P04,D07,0,0,0
922,-6.0,59.0,23.0,1644593165.53125,P04,D07,0,0,0
923,-5.0,59.0,23.0,1644593165.5625,P04,D07,0,0,0
924,-6.0,59.0,23.0,1644593165.59375,P04,D07,0,0,0
925,-6.0,60.0,23.0,1644593165.625,P04,D07,0,0,0
926,-5.0,59.0,23.0,1644593165.65625,P04,D07,0,0,0
927,-6.0,59.0,23.0,1644593165.6875,P04,D07,0,0,0
928,-5.0,59.0,24.0,1644593165.71875,P04,D07,0,0,0
929,-5.0,59.0,23.0,1644593165.75,P04,D07,0,0,0
930,-5.0,59.0,23.0,1644593165.78125,P04,D07,0,0,0
931,-6.0,59.0,23.0,1644593165.8125,P04,D07,0,0,0
932,-5.0,59.0,23.0,1644593165.84375,P04,D07,0,0,0
933,-6.0,59.0,23.0,1644593165.875,P04,D07,0,0,0
934,-6.0,59.0,24.0,1644593165.90625,P04,D07,0,0,0
935,-5.0,59.0,24.0,1644593165.9375,P04,D07,0,0,0
936,-6.0,59.0,24.0,1644593165.96875,P04,D07,0,0,0
937,-6.0,59.0,23.0,1644593166.0,P04,D07,0,0,0
938,-6.0,59.0,24.0,1644593166.03125,P04,D07,0,0,0
939,-6.0,59.0,23.0,1644593166.0625,P04,D07,0,0,0
940,-6.0,59.0,24.0,1644593166.09375,P04,D07,0,0,0
941,-6.0,59.0,23.0,1644593166.125,P04,D07,0,0,0
942,-5.0,59.0,23.0,1644593166.15625,P04,D07,0,0,0
943,-5.0,59.0,24.0,1644593166.1875,P04,D07,0,0,0
944,-5.0,59.0,24.0,1644593166.21875,P04,D07,0,0,0
945,-6.0,59.0,24.0,1644593166.25,P04,D07,0,0,0
946,-6.0,59.0,23.0,1644593166.28125,P04,D07,0,0,0
947,-5.0,59.0,23.0,1644593166.3125,P04,D07,0,0,0
948,-5.0,59.0,24.0,1644593166.34375,P04,D07,0,0,0
949,-6.0,59.0,24.0,1644593166.375,P04,D07,0,0,0
950,-5.0,60.0,23.0,1644593166.40625,P04,D07,0,0,0
951,-5.0,59.0,23.0,1644593166.4375,P04,D07,0,0,0
952,-5.0,59.0,23.0,1644593166.46875,P04,D07,0,0,0
953,-5.0,59.0,24.0,1644593166.5,P04,D07,0,0,0
954,-5.0,59.0,23.0,1644593166.53125,P04,D07,0,0,0
955,-6.0,59.0,23.0,1644593166.5625,P04,D07,0,0,0
956,-5.0,59.0,23.0,1644593166.59375,P04,D07,0,0,0
957,-5.0,59.0,24.0,1644593166.625,P04,D07,0,0,0
958,-6.0,59.0,24.0,1644593166.65625,P04,D07,0,0,0
959,-5.0,59.0,24.0,1644593166.6875,P04,D07,0,0,0
960,-5.0,59.0,24.0,1644593166.71875,P04,D07,0,0,0
961,-6.0,59.0,23.0,1644593166.75,P04,D07,0,0,0
962,-6.0,59.0,24.0,1644593166.78125,P04,D07,0,0,0
963,-5.0,59.0,24.0,1644593166.8125,P04,D07,0,0,0
964,-5.0,59.0,24.0,1644593166.84375,P04,D07,0,0,0
965,-6.0,59.0,24.0,1644593166.875,P04,D07,0,0,0
966,-5.0,59.0,24.0,1644593166.90625,P04,D07,0,0,0
967,-5.0,59.0,23.0,1644593166.9375,P04,D07,0,0,0
968,-5.0,59.0,24.0,1644593166.96875,P04,D07,0,0,0
969,-5.0,59.0,23.0,1644593167.0,P04,D07,0,0,0
970,-5.0,59.0,24.0,1644593167.03125,P04,D07,0,0,0
971,-6.0,60.0,23.0,1644593167.0625,P04,D07,0,0,0
972,-6.0,59.0,23.0,1644593167.09375,P04,D07,0,0,0
973,-6.0,60.0,23.0,1644593167.125,P04,D07,0,0,0
974,-5.0,59.0,23.0,1644593167.15625,P04,D07,0,0,0
975,-5.0,59.0,23.0,1644593167.1875,P04,D07,0,0,0
976,-6.0,60.0,23.0,1644593167.21875,P04,D07,0,0,0
977,-5.0,59.0,24.0,1644593167.25,P04,D07,0,0,0
978,-5.0,59.0,24.0,1644593167.28125,P04,D07,0,0,0
979,-6.0,59.0,23.0,1644593167.3125,P04,D07,0,0,0
980,-5.0,59.0,23.0,1644593167.34375,P04,D07,0,0,0
981,-6.0,59.0,24.0,1644593167.375,P04,D07,0,0,0
982,-6.0,59.0,24.0,1644593167.40625,P04,D07,0,0,0
983,-5.0,59.0,24.0,1644593167.4375,P04,D07,0,0,0
984,-5.0,59.0,24.0,1644593167.46875,P04,D07,0,0,0
985,-6.0,59.0,23.0,1644593167.5,P04,D07,0,0,0
986,-5.0,60.0,24.0,1644593167.53125,P04,D07,0,0,0
987,-6.0,59.0,23.0,1644593167.5625,P04,D07,0,0,0
988,-5.0,59.0,23.0,1644593167.59375,P04,D07,0,0,0
989,-6.0,59.0,24.0,1644593167.625,P04,D07,0,0,0
990,-5.0,59.0,24.0,1644593167.65625,P04,D07,0,0,0
991,-5.0,59.0,24.0,1644593167.6875,P04,D07,0,0,0
992,-5.0,59.0,23.0,1644593167.71875,P04,D07,0,0,0
993,-5.0,59.0,23.0,1644593167.75,P04,D07,0,0,0
994,-6.0,59.0,23.0,1644593167.78125,P04,D07,0,0,0
995,-5.0,59.0,23.0,1644593167.8125,P04,D07,0,0,0
996,-6.0,59.0,23.0,1644593167.84375,P04,D07,0,0,0
997,-6.0,59.0,23.0,1644593167.875,P04,D07,0,0,0
998,-5.0,59.0,23.0,1644593167.90625,P04,D07,0,0,0
999,-5.0,59.0,23.0,1644593167.9375,P04,D07,0,0,0
1000,-6.0,59.0,23.0,1644593167.96875,P04,D07,0,0,0
1001,-5.0,59.0,23.0,1644593168.0,P04,D07,0,0,0
1002,-5.0,60.0,23.0,1644593168.03125,P04,D07,0,0,0
1003,-6.0,59.0,23.0,1644593168.0625,P04,D07,0,0,0
1004,-6.0,59.0,24.0,1644593168.09375,P04,D07,0,0,0
1005,-5.0,59.0,24.0,1644593168.125,P04,D07,0,0,0
1006,-6.0,59.0,23.0,1644593168.15625,P04,D07,0,0,0
1007,-5.0,59.0,24.0,1644593168.1875,P04,D07,0,0,0
1008,-5.0,59.0,23.0,1644593168.21875,P04,D07,0,0,0
1009,-6.0,59.0,23.0,1644593168.25,P04,D07,0,0,0
1010,-6.0,59.0,23.0,1644593168.28125,P04,D07,0,0,0
1011,-5.0,59.0,24.0,1644593168.3125,P04,D07,0,0,0
1012,-5.0,59.0,23.0,1644593168.34375,P04,D07,0,0,0
1013,-5.0,59.0,24.0,1644593168.375,P04,D07,0,0,0
1014,-5.0,59.0,23.0,1644593168.40625,P04,D07,0,0,0
1015,-5.0,59.0,23.0,1644593168.4375,P04,D07,0,0,0
1016,-5.0,59.0,24.0,1644593168.46875,P04,D07,0,0,0
1017,-6.0,59.0,23.0,1644593168.5,P04,D07,0,0,0
1018,-6.0,59.0,23.0,1644593168.53125,P04,D07,0,0,0
1019,-6.0,59.0,23.0,1644593168.5625,P04,D07,0,0,0
1020,-5.0,59.0,23.0,1644593168.59375,P04,D07,0,0,0
1021,-6.0,59.0,23.0,1644593168.625,P04,D07,0,0,0
1022,-6.0,60.0,24.0,1644593168.65625,P04,D07,0,0,0
1023,-5.0,59.0,23.0,1644593168.6875,P04,D07,0,0,0
1024,-5.0,59.0,23.0,1644593168.71875,P04,D07,0,0,0
1025,-6.0,59.0,24.0,1644593168.75,P04,D07,0,0,0
1026,-5.0,59.0,24.0,1644593168.78125,P04,D07,0,0,0
1027,-5.0,59.0,23.0,1644593168.8125,P04,D07,0,0,0
1028,-6.0,59.0,24.0,1644593168.84375,P04,D07,0,0,0
1029,-5.0,59.0,23.0,1644593168.875,P04,D07,0,0,0
1030,-5.0,59.0,24.0,1644593168.90625,P04,D07,0,0,0
1031,-5.0,59.0,24.0,1644593168.9375,P04,D07,0,0,0
1032,-5.0,59.0,24.0,1644593168.96875,P04,D07,0,0,0
1033,-5.0,59.0,24.0,1644593169.0,P04,D07,0,0,0
1034,-6.0,59.0,24.0,1644593169.03125,P04,D07,0,0,0
1035,-5.0,59.0,24.0,1644593169.0625,P04,D07,0,0,0
1036,-5.0,59.0,23.0,1644593169.09375,P04,D07,0,0,0
1037,-5.0,59.0,23.0,1644593169.125,P04,D07,0,0,0
1038,-5.0,59.0,24.0,1644593169.15625,P04,D07,0,0,0
1039,-5.0,59.0,24.0,1644593169.1875,P04,D07,0,0,0
1040,-6.0,59.0,23.0,1644593169.21875,P04,D07,0,0,0
1041,-6.0,59.0,24.0,1644593169.25,P04,D07,0,0,0
1042,-5.0,59.0,23.0,1644593169.28125,P04,D07,0,0,0
1043,-5.0,59.0,23.0,1644593169.3125,P04,D07,0,0,0
1044,-5.0,59.0,23.0,1644593169.34375,P04,D07,0,0,0
1045,-5.0,59.0,24.0,1644593169.375,P04,D07,0,0,0
1046,-5.0,59.0,24.0,1644593169.40625,P04,D07,0,0,0
1047,-5.0,59.0,23.0,1644593169.4375,P04,D07,0,0,0
1048,-6.0,59.0,23.0,1644593169.46875,P04,D07,0,0,0
1049,-5.0,59.0,24.0,1644593169.5,P04,D07,0,0,0
1050,-5.0,59.0,24.0,1644593169.53125,P04,D07,0,0,0
1051,-5.0,59.0,23.0,1644593169.5625,P04,D07,0,0,0
1052,-6.0,59.0,23.0,1644593169.59375,P04,D07,0,0,0
1053,-5.0,59.0,24.0,1644593169.625,P04,D07,0,0,0
1054,-5.0,59.0,24.0,1644593169.65625,P04,D07,0,0,0
1055,-6.0,59.0,24.0,1644593169.6875,P04,D07,0,0,0
1056,-5.0,59.0,24.0,1644593169.71875,P04,D07,0,0,0
1057,-5.0,59.0,23.0,1644593169.75,P04,D07,0,0,0
1058,-5.0,59.0,23.0,1644593169.78125,P04,D07,0,0,0
1059,-5.0,59.0,24.0,1644593169.8125,P04,D07,0,0,0
1060,-5.0,59.0,24.0,1644593169.84375,P04,D07,0,0,0
1061,-5.0,59.0,24.0,1644593169.875,P04,D07,0,0,0
1062,-5.0,59.0,24.0,1644593169.90625,P04,D07,0,0,0
1063,-5.0,59.0,24.0,1644593169.9375,P04,D07,0,0,0
1064,-5.0,59.0,24.0,1644593169.96875,P04,D07,0,0,0
1065,-5.0,59.0,23.0,1644593170.0,P04,D07,0,0,0
1066,-6.0,59.0,23.0,1644593170.03125,P04,D07,0,0,0
1067,-5.0,59.0,23.0,1644593170.0625,P04,D07,0,0,0
1068,-5.0,59.0,23.0,1644593170.09375,P04,D07,0,0,0
1069,-6.0,59.0,23.0,1644593170.125,P04,D07,0,0,0
1070,-5.0,59.0,24.0,1644593170.15625,P04,D07,0,0,0
1071,-5.0,59.0,23.0,1644593170.1875,P04,D07,0,0,0
1072,-5.0,59.0,23.0,1644593170.21875,P04,D07,0,0,0
1073,-5.0,59.0,24.0,1644593170.25,P04,D07,0,0,0
1074,-5.0,59.0,23.0,1644593170.28125,P04,D07,0,0,0
1075,-5.0,59.0,23.0,1644593170.3125,P04,D07,0,0,0
1076,-5.0,59.0,23.0,1644593170.34375,P04,D07,0,0,0
1077,-5.0,59.0,23.0,1644593170.375,P04,D07,0,0,0
1078,-5.0,59.0,23.0,1644593170.40625,P04,D07,0,0,0
1079,-5.0,59.0,24.0,1644593170.4375,P04,D07,0,0,0
1080,-5.0,59.0,23.0,1644593170.46875,P04,D07,0,0,0
1081,-5.0,59.0,23.0,1644593170.5,P04,D07,0,0,0
1082,-5.0,59.0,24.0,1644593170.53125,P04,D07,0,0,0
1083,-5.0,59.0,24.0,1644593170.5625,P04,D07,0,0,0
1084,-5.0,59.0,23.0,1644593170.59375,P04,D07,0,0,0
1085,-5.0,59.0,24.0,1644593170.625,P04,D07,0,0,0
1086,-5.0,59.0,24.0,1644593170.65625,P04,D07,0,0,0
1087,-5.0,59.0,24.0,1644593170.6875,P04,D07,0,0,0
1088,-5.0,59.0,23.0,1644593170.71875,P04,D07,0,0,0
1089,-5.0,59.0,23.0,1644593170.75,P04,D07,0,0,0
1090,-5.0,60.0,24.0,1644593170.78125,P04,D07,0,0,0
1091,-5.0,59.0,23.0,1644593170.8125,P04,D07,0,0,0
1092,-5.0,59.0,23.0,1644593170.84375,P04,D07,0,0,0
1093,-6.0,59.0,23.0,1644593170.875,P04,D07,0,0,0
1094,-5.0,59.0,23.0,1644593170.90625,P04,D07,0,0,0
1095,-5.0,59.0,23.0,1644593170.9375,P04,D07,0,0,0
1096,-6.0,59.0,23.0,1644593170.96875,P04,D07,0,0,0
1097,-5.0,59.0,24.0,1644593171.0,P04,D07,0,0,0
1098,-5.0,59.0,23.0,1644593171.03125,P04,D07,0,0,0
1099,-6.0,59.0,23.0,1644593171.0625,P04,D07,0,0,0
1100,-5.0,59.0,23.0,1644593171.09375,P04,D07,0,0,0
1101,-5.0,59.0,24.0,1644593171.125,P04,D07,0,0,0
1102,-6.0,59.0,24.0,1644593171.15625,P04,D07,0,0,0
1103,-5.0,59.0,24.0,1644593171.1875,P04,D07,0,0,0
1104,-5.0,59.0,23.0,1644593171.21875,P04,D07,0,0,0
1105,-5.0,59.0,23.0,1644593171.25,P04,D07,0,0,0
1106,-5.0,59.0,24.0,1644593171.28125,P04,D07,0,0,0
1107,-5.0,59.0,24.0,1644593171.3125,P04,D07,0,0,0
1108,-5.0,59.0,23.0,1644593171.34375,P04,D07,0,0,0
1109,-5.0,59.0,24.0,1644593171.375,P04,D07,0,0,0
1110,-5.0,59.0,24.0,1644593171.40625,P04,D07,0,0,0
1111,-5.0,59.0,23.0,1644593171.4375,P04,D07,0,0,0
1112,-5.0,59.0,23.0,1644593171.46875,P04,D07,0,0,0
1113,-5.0,59.0,23.0,1644593171.5,P04,D07,0,0,0
1114,-6.0,59.0,24.0,1644593171.53125,P04,D07,0,0,0
1115,-6.0,59.0,23.0,1644593171.5625,P04,D07,0,0,0
1116,-5.0,59.0,23.0,1644593171.59375,P04,D07,0,0,0
1117,-5.0,59.0,24.0,1644593171.625,P04,D07,0,0,0
1118,-5.0,59.0,23.0,1644593171.65625,P04,D07,0,0,0
1119,-5.0,59.0,23.0,1644593171.6875,P04,D07,0,0,0
1120,-5.0,59.0,23.0,1644593171.71875,P04,D07,0,0,0
1121,-6.0,59.0,24.0,1644593171.75,P04,D07,0,0,0
1122,-5.0,59.0,24.0,1644593171.78125,P04,D07,0,0,0
1123,-5.0,59.0,23.0,1644593171.8125,P04,D07,0,0,0
1124,-5.0,59.0,23.0,1644593171.84375,P04,D07,0,0,0
1125,-5.0,59.0,24.0,1644593171.875,P04,D07,0,0,0
1126,-5.0,59.0,24.0,1644593171.90625,P04,D07,0,0,0
1127,-5.0,59.0,24.0,1644593171.9375,P04,D07,0,0,0
1128,-5.0,59.0,23.0,1644593171.96875,P04,D07,0,0,0
1129,-5.0,59.0,23.0,1644593172.0,P04,D07,0,0,0
1130,-6.0,59.0,24.0,1644593172.03125,P04,D07,0,0,0
1131,-5.0,59.0,24.0,1644593172.0625,P04,D07,0,0,0
1132,-5.0,59.0,24.0,1644593172.09375,P04,D07,0,0,0
1133,-5.0,59.0,24.0,1644593172.125,P04,D07,0,0,0
1134,-5.0,59.0,24.0,1644593172.15625,P04,D07,0,0,0
1135,-5.0,59.0,24.0,1644593172.1875,P04,D07,0,0,0
1136,-5.0,59.0,24.0,1644593172.21875,P04,D07,0,0,0
1137,-5.0,59.0,24.0,1644593172.25,P04,D07,0,0,0
1138,-5.0,59.0,24.0,1644593172.28125,P04,D07,0,0,0
1139,-5.0,59.0,23.0,1644593172.3125,P04,D07,0,0,0
1140,-5.0,59.0,23.0,1644593172.34375,P04,D07,0,0,0
1141,-5.0,59.0,24.0,1644593172.375,P04,D07,0,0,0
1142,-6.0,59.0,24.0,1644593172.40625,P04,D07,0,0,0
1143,-5.0,60.0,23.0,1644593172.4375,P04,D07,0,0,0
1144,-5.0,59.0,23.0,1644593172.46875,P04,D07,0,0,0
1145,-5.0,59.0,24.0,1644593172.5,P04,D07,0,0,0
1146,-5.0,59.0,24.0,1644593172.53125,P04,D07,0,0,0
1147,-5.0,59.0,23.0,1644593172.5625,P04,D07,0,0,0
1148,-6.0,59.0,23.0,1644593172.59375,P04,D07,0,0,0
1149,-5.0,59.0,23.0,1644593172.625,P04,D07,0,0,0
1150,-5.0,59.0,24.0,1644593172.65625,P04,D07,0,0,0
1151,-6.0,59.0,24.0,1644593172.6875,P04,D07,0,0,0
1152,-5.0,59.0,23.0,1644593172.71875,P04,D07,0,0,0
1153,-5.0,59.0,23.0,1644593172.75,P04,D07,0,0,0
1154,-5.0,59.0,24.0,1644593172.78125,P04,D07,0,0,0
1155,-5.0,59.0,24.0,1644593172.8125,P04,D07,0,0,0
1156,-5.0,59.0,24.0,1644593172.84375,P04,D07,0,0,0
1157,-6.0,59.0,24.0,1644593172.875,P04,D07,0,0,0
1158,-5.0,59.0,24.0,1644593172.90625,P04,D07,0,0,0
1159,-5.0,59.0,24.0,1644593172.9375,P04,D07,0,0,0
1160,-5.0,59.0,23.0,1644593172.96875,P04,D07,0,0,0
1161,-5.0,59.0,24.0,1644593173.0,P04,D07,0,0,0
1162,-5.0,59.0,23.0,1644593173.03125,P04,D07,0,0,0
1163,-5.0,59.0,23.0,1644593173.0625,P04,D07,0,0,0
1164,-5.0,59.0,24.0,1644593173.09375,P04,D07,0,0,0
1165,-5.0,59.0,24.0,1644593173.125,P04,D07,0,0,0
1166,-5.0,59.0,24.0,1644593173.15625,P04,D07,0,0,0
1167,-5.0,59.0,23.0,1644593173.1875,P04,D07,0,0,0
1168,-5.0,59.0,23.0,1644593173.21875,P04,D07,0,0,0
1169,-5.0,59.0,24.0,1644593173.25,P04,D07,0,0,0
1170,-5.0,59.0,24.0,1644593173.28125,P04,D07,0,0,0
1171,-5.0,59.0,24.0,1644593173.3125,P04,D07,0,0,0
1172,-5.0,59.0,23.0,1644593173.34375,P04,D07,0,0,0
1173,-5.0,59.0,24.0,1644593173.375,P04,D07,0,0,0
1174,-5.0,59.0,24.0,1644593173.40625,P04,D07,0,0,0
1175,-5.0,59.0,24.0,1644593173.4375,P04,D07,0,0,0
1176,-5.0,59.0,24.0,1644593173.46875,P04,D07,0,0,0
1177,-5.0,59.0,24.0,1644593173.5,P04,D07,0,0,0
1178,-5.0,59.0,24.0,1644593173.53125,P04,D07,0,0,0
1179,-5.0,59.0,24.0,1644593173.5625,P04,D07,0,0,0
1180,-5.0,59.0,24.0,1644593173.59375,P04,D07,0,0,0
1181,-5.0,59.0,24.0,1644593173.625,P04,D07,0,0,0
1182,-5.0,59.0,24.0,1644593173.65625,P04,D07,0,0,0
1183,-5.0,59.0,24.0,1644593173.6875,P04,D07,0,0,0
1184,-5.0,59.0,24.0,1644593173.71875,P04,D07,0,0,0
1185,-5.0,59.0,23.0,1644593173.75,P04,D07,0,0,0
1186,-5.0,59.0,23.0,1644593173.78125,P04,D07,0,0,0
1187,-5.0,59.0,24.0,1644593173.8125,P04,D07,0,0,0
1188,-5.0,59.0,24.0,1644593173.84375,P04,D07,0,0,0
1189,-5.0,59.0,23.0,1644593173.875,P04,D07,0,0,0
1190,-5.0,59.0,24.0,1644593173.90625,P04,D07,0,0,0
1191,-5.0,59.0,24.0,1644593173.9375,P04,D07,0,0,0
1192,-5.0,59.0,23.0,1644593173.96875,P04,D07,0,0,0
1193,-5.0,59.0,23.0,1644593174.0,P04,D07,0,0,0
1194,-5.0,59.0,24.0,1644593174.03125,P04,D07,0,0,0
1195,-5.0,59.0,24.0,1644593174.0625,P04,D07,0,0,0
1196,-5.0,59.0,24.0,1644593174.09375,P04,D07,0,0,0
1197,-5.0,59.0,24.0,1644593174.125,P04,D07,0,0,0
1198,-5.0,59.0,23.0,1644593174.15625,P04,D07,0,0,0
1199,-5.0,59.0,23.0,1644593174.1875,P04,D07,0,0,0
1200,-5.0,59.0,24.0,1644593174.21875,P04,D07,0,0,0
1201,-5.0,59.0,24.0,1644593174.25,P04,D07,0,0,0
1202,-5.0,59.0,23.0,1644593174.28125,P04,D07,0,0,0
1203,-5.0,59.0,24.0,1644593174.3125,P04,D07,0,0,0
1204,-5.0,59.0,23.0,1644593174.34375,P04,D07,0,0,0
1205,-5.0,59.0,24.0,1644593174.375,P04,D07,0,0,0
1206,-5.0,59.0,24.0,1644593174.40625,P04,D07,0,0,0
1207,-5.0,59.0,24.0,1644593174.4375,P04,D07,0,0,0
1208,-5.0,59.0,24.0,1644593174.46875,P04,D07,0,0,0
1209,-5.0,59.0,24.0,1644593174.5,P04,D07,0,0,0
1210,-5.0,59.0,24.0,1644593174.53125,P04,D07,0,0,0
1211,-5.0,59.0,24.0,1644593174.5625,P04,D07,0,0,0
1212,-5.0,59.0,23.0,1644593174.59375,P04,D07,0,0,0
1213,-5.0,59.0,24.0,1644593174.625,P04,D07,0,0,0
1214,-5.0,59.0,24.0,1644593174.65625,P04,D07,0,0,0
1215,-5.0,59.0,24.0,1644593174.6875,P04,D07,0,0,0
1216,-5.0,59.0,24.0,1644593174.71875,P04,D07,0,0,0
1217,-5.0,60.0,23.0,1644593174.75,P04,D07,0,0,0
1218,-5.0,59.0,24.0,1644593174.78125,P04,D07,0,0,0
1219,-5.0,59.0,24.0,1644593174.8125,P04,D07,0,0,0
1220,-5.0,59.0,24.0,1644593174.84375,P04,D07,0,0,0
1221,-4.0,60.0,24.0,1644593174.875,P04,D07,0,0,0
1222,-4.0,59.0,24.0,1644593174.90625,P04,D07,0,0,0
1223,-4.0,59.0,24.0,1644593174.9375,P04,D07,0,0,0
1224,-4.0,59.0,24.0,1644593174.96875,P04,D07,0,0,0
1225,-4.0,59.0,24.0,1644593175.0,P04,D07,0,0,0
1226,-4.0,59.0,24.0,1644593175.03125,P04,D07,0,0,0
1227,-4.0,59.0,24.0,1644593175.0625,P04,D07,0,0,0
1228,-5.0,60.0,23.0,1644593175.09375,P04,D07,0,0,0
1229,-5.0,59.0,24.0,1644593175.125,P04,D07,0,0,0
1230,-5.0,59.0,24.0,1644593175.15625,P04,D07,0,0,0
1231,-5.0,59.0,23.0,1644593175.1875,P04,D07,0,0,0
1232,-5.0,59.0,24.0,1644593175.21875,P04,D07,0,0,0
1233,-4.0,59.0,24.0,1644593175.25,P04,D07,0,0,0
1234,-5.0,59.0,24.0,1644593175.28125,P04,D07,0,0,0
1235,-5.0,59.0,24.0,1644593175.3125,P04,D07,0,0,0
1236,-5.0,59.0,24.0,1644593175.34375,P04,D07,0,0,0
1237,-5.0,59.0,24.0,1644593175.375,P04,D07,0,0,0
1238,-5.0,59.0,24.0,1644593175.40625,P04,D07,0,0,0
1239,-5.0,59.0,24.0,1644593175.4375,P04,D07,0,0,0
1240,-5.0,59.0,24.0,1644593175.46875,P04,D07,0,0,0
1241,-5.0,59.0,24.0,1644593175.5,P04,D07,0,0,0
1242,-5.0,59.0,24.0,1644593175.53125,P04,D07,0,0,0
1243,-5.0,59.0,24.0,1644593175.5625,P04,D07,0,0,0
1244,-4.0,59.0,24.0,1644593175.59375,P04,D07,0,0,0
1245,-5.0,59.0,24.0,1644593175.625,P04,D07,0,0,0
1246,-5.0,59.0,24.0,1644593175.65625,P04,D07,0,0,0
1247,-5.0,59.0,23.0,1644593175.6875,P04,D07,0,0,0
1248,-5.0,59.0,24.0,1644593175.71875,P04,D07,0,0,0
1249,-5.0,59.0,24.0,1644593175.75,P04,D07,0,0,0
1250,-4.0,59.0,24.0,1644593175.78125,P04,D07,0,0,0
1251,-5.0,59.0,24.0,1644593175.8125,P04,D07,0,0,0
1252,-5.0,59.0,24.0,1644593175.84375,P04,D07,0,0,0
1253,-5.0,59.0,24.0,1644593175.875,P04,D07,0,0,0
1254,-5.0,59.0,24.0,1644593175.90625,P04,D07,0,0,0
1255,-5.0,59.0,24.0,1644593175.9375,P04,D07,0,0,0
1256,-5.0,59.0,23.0,1644593175.96875,P04,D07,0,0,0
1257,-4.0,59.0,24.0,1644593176.0,P04,D07,0,0,0
1258,-5.0,59.0,24.0,1644593176.03125,P04,D07,0,0,0
1259,-5.0,59.0,24.0,1644593176.0625,P04,D07,0,0,0
1260,-5.0,59.0,23.0,1644593176.09375,P04,D07,0,0,0
1261,-5.0,59.0,24.0,1644593176.125,P04,D07,0,0,0
1262,-5.0,59.0,24.0,1644593176.15625,P04,D07,0,0,0
1263,-5.0,59.0,24.0,1644593176.1875,P04,D07,0,0,0
1264,-5.0,59.0,23.0,1644593176.21875,P04,D07,0,0,0
1265,-5.0,59.0,24.0,1644593176.25,P04,D07,0,0,0
1266,-5.0,59.0,24.0,1644593176.28125,P04,D07,0,0,0
1267,-5.0,59.0,24.0,1644593176.3125,P04,D07,0,0,0
1268,-5.0,59.0,24.0,1644593176.34375,P04,D07,0,0,0
1269,-5.0,59.0,24.0,1644593176.375,P04,D07,0,0,0
1270,-5.0,60.0,23.0,1644593176.40625,P04,D07,0,0,0
1271,-4.0,59.0,23.0,1644593176.4375,P04,D07,0,0,0
1272,-5.0,59.0,24.0,1644593176.46875,P04,D07,0,0,0
1273,-5.0,59.0,24.0,1644593176.5,P04,D07,0,0,0
1274,-5.0,59.0,24.0,1644593176.53125,P04,D07,0,0,0
1275,-5.0,59.0,24.0,1644593176.5625,P04,D07,0,0,0
1276,-5.0,59.0,24.0,1644593176.59375,P04,D07,0,0,0
1277,-5.0,59.0,24.0,1644593176.625,P04,D07,0,0,0
1278,-5.0,59.0,24.0,1644593176.65625,P04,D07,0,0,0
1279,-5.0,59.0,24.0,1644593176.6875,P04,D07,0,0,0
1280,-5.0,59.0,24.0,1644593176.71875,P04,D07,0,0,0
1281,-5.0,59.0,24.0,1644593176.75,P04,D07,0,0,0
1282,-5.0,59.0,24.0,1644593176.78125,P04,D07,0,0,0
1283,-5.0,59.0,24.0,1644593176.8125,P04,D07,0,0,0
1284,-5.0,59.0,23.0,1644593176.84375,P04,D07,0,0,0
1285,-5.0,59.0,24.0,1644593176.875,P04,D07,0,0,0
1286,-5.0,59.0,23.0,1644593176.90625,P04,D07,0,0,0
1287,-5.0,59.0,24.0,1644593176.9375,P04,D07,0,0,0
1288,-5.0,59.0,24.0,1644593176.96875,P04,D07,0,0,0
1289,-5.0,59.0,23.0,1644593177.0,P04,D07,0,0,0
1290,-4.0,59.0,24.0,1644593177.03125,P04,D07,0,0,0
1291,-5.0,59.0,24.0,1644593177.0625,P04,D07,0,0,0
1292,-5.0,59.0,24.0,1644593177.09375,P04,D07,0,0,0
1293,-4.0,59.0,23.0,1644593177.125,P04,D07,0,0,0
1294,-5.0,59.0,24.0,1644593177.15625,P04,D07,0,0,0
1295,-5.0,59.0,24.0,1644593177.1875,P04,D07,0,0,0
1296,-5.0,59.0,24.0,1644593177.21875,P04,D07,0,0,0
1297,-5.0,59.0,24.0,1644593177.25,P04,D07,0,0,0
1298,-5.0,59.0,24.0,1644593177.28125,P04,D07,0,0,0
1299,-5.0,59.0,24.0,1644593177.3125,P04,D07,0,0,0
1300,-5.0,59.0,24.0,1644593177.34375,P04,D07,0,0,0
1301,-5.0,59.0,24.0,1644593177.375,P04,D07,0,0,0
1302,-4.0,59.0,24.0,1644593177.40625,P04,D07,0,0,0
1303,-5.0,59.0,24.0,1644593177.4375,P04,D07,0,0,0
1304,-5.0,59.0,24.0,1644593177.46875,P04,D07,0,0,0
1305,-4.0,59.0,24.0,1644593177.5,P04,D07,0,0,0
1306,-4.0,59.0,24.0,1644593177.53125,P04,D07,0,0,0
1307,-4.0,59.0,24.0,1644593177.5625,P04,D07,0,0,0
1308,-5.0,59.0,24.0,1644593177.59375,P04,D07,0,0,0
1309,-4.0,59.0,24.0,1644593177.625,P04,D07,0,0,0
1310,-5.0,59.0,24.0,1644593177.65625,P04,D07,0,0,0
1311,-5.0,59.0,24.0,1644593177.6875,P04,D07,0,0,0
1312,-4.0,59.0,23.0,1644593177.71875,P04,D07,0,0,0
1313,-4.0,59.0,24.0,1644593177.75,P04,D07,0,0,0
1314,-4.0,59.0,24.0,1644593177.78125,P04,D07,0,0,0
1315,-4.0,59.0,24.0,1644593177.8125,P04,D07,0,0,0
1316,-5.0,59.0,24.0,1644593177.84375,P04,D07,0,0,0
1317,-5.0,59.0,24.0,1644593177.875,P04,D07,0,0,0
1318,-5.0,59.0,24.0,1644593177.90625,P04,D07,0,0,0
1319,-4.0,59.0,24.0,1644593177.9375,P04,D07,0,0,0
1320,-5.0,59.0,24.0,1644593177.96875,P04,D07,0,0,0
1321,-4.0,59.0,24.0,1644593178.0,P04,D07,0,0,0
1322,-4.0,59.0,24.0,1644593178.03125,P04,D07,0,0,0
1323,-5.0,59.0,24.0,1644593178.0625,P04,D07,0,0,0
1324,-5.0,59.0,24.0,1644593178.09375,P04,D07,0,0,0
1325,-5.0,59.0,24.0,1644593178.125,P04,D07,0,0,0
1326,-4.0,59.0,24.0,1644593178.15625,P04,D07,0,0,0
1327,-5.0,59.0,24.0,1644593178.1875,P04,D07,0,0,0
1328,-4.0,59.0,24.0,1644593178.21875,P04,D07,0,0,0
1329,-5.0,59.0,24.0,1644593178.25,P04,D07,0,0,0
1330,-5.0,59.0,24.0,1644593178.28125,P04,D07,0,0,0
1331,-5.0,59.0,24.0,1644593178.3125,P04,D07,0,0,0
1332,-5.0,59.0,24.0,1644593178.34375,P04,D07,0,0,0
1333,-4.0,59.0,24.0,1644593178.375,P04,D07,0,0,0
1334,-5.0,59.0,24.0,1644593178.40625,P04,D07,0,0,0
1335,-4.0,59.0,24.0,1644593178.4375,P04,D07,0,0,0
1336,-5.0,59.0,23.0,1644593178.46875,P04,D07,0,0,0
1337,-5.0,59.0,24.0,1644593178.5,P04,D07,0,0,0
1338,-5.0,59.0,24.0,1644593178.53125,P04,D07,0,0,0
1339,-4.0,59.0,24.0,1644593178.5625,P04,D07,0,0,0
1340,-5.0,59.0,24.0,1644593178.59375,P04,D07,0,0,0
1341,-5.0,59.0,24.0,1644593178.625,P04,D07,0,0,0
1342,-5.0,59.0,24.0,1644593178.65625,P04,D07,0,0,0
1343,-5.0,59.0,24.0,1644593178.6875,P04,D07,0,0,0
1344,-5.0,59.0,24.0,1644593178.71875,P04,D07,0,0,0
1345,-5.0,59.0,23.0,1644593178.75,P04,D07,0,0,0
1346,-5.0,59.0,24.0,1644593178.78125,P04,D07,0,0,0
1347,-4.0,59.0,24.0,1644593178.8125,P04,D07,0,0,0
1348,-4.0,59.0,24.0,1644593178.84375,P04,D07,0,0,0
1349,-5.0,59.0,23.0,1644593178.875,P04,D07,0,0,0
1350,-5.0,59.0,24.0,1644593178.90625,P04,D07,0,0,0
1351,-5.0,59.0,24.0,1644593178.9375,P04,D07,0,0,0
1352,-5.0,59.0,24.0,1644593178.96875,P04,D07,0,0,0
1353,-5.0,59.0,24.0,1644593179.0,P04,D07,0,0,0
1354,-5.0,59.0,24.0,1644593179.03125,P04,D07,0,0,0
1355,-5.0,59.0,24.0,1644593179.0625,P04,D07,0,0,0
1356,-5.0,59.0,24.0,1644593179.09375,P04,D07,0,0,0
1357,-5.0,59.0,23.0,1644593179.125,P04,D07,0,0,0
1358,-5.0,59.0,24.0,1644593179.15625,P04,D07,0,0,0
1359,-5.0,59.0,24.0,1644593179.1875,P04,D07,0,0,0
1360,-5.0,59.0,24.0,1644593179.21875,P04,D07,0,0,0
1361,-5.0,59.0,24.0,1644593179.25,P04,D07,0,0,0
1362,-5.0,59.0,24.0,1644593179.28125,P04,D07,0,0,0
1363,-5.0,59.0,24.0,1644593179.3125,P04,D07,0,0,0
1364,-5.0,59.0,24.0,1644593179.34375,P04,D07,0,0,0
1365,-5.0,59.0,24.0,1644593179.375,P04,D07,0,0,0
1366,-5.0,59.0,24.0,1644593179.40625,P04,D07,0,0,0
1367,-4.0,59.0,24.0,1644593179.4375,P04,D07,0,0,0
1368,-5.0,59.0,24.0,1644593179.46875,P04,D07,0,0,0
1369,-5.0,59.0,24.0,1644593179.5,P04,D07,0,0,0
1370,-5.0,59.0,24.0,1644593179.53125,P04,D07,0,0,0
1371,-5.0,59.0,24.0,1644593179.5625,P04,D07,0,0,0
1372,-5.0,59.0,24.0,1644593179.59375,P04,D07,0,0,0
1373,-5.0,59.0,24.0,1644593179.625,P04,D07,0,0,0
1374,-4.0,59.0,24.0,1644593179.65625,P04,D07,0,0,0
1375,-5.0,59.0,24.0,1644593179.6875,P04,D07,0,0,0
1376,-5.0,59.0,24.0,1644593179.71875,P04,D07,0,0,0
1377,-5.0,59.0,24.0,1644593179.75,P04,D07,0,0,0
1378,-5.0,59.0,24.0,1644593179.78125,P04,D07,0,0,0
1379,-5.0,59.0,24.0,1644593179.8125,P04,D07,0,0,0
1380,-5.0,59.0,24.0,1644593179.84375,P04,D07,0,0,0
1381,-4.0,59.0,24.0,1644593179.875,P04,D07,0,0,0
1382,-5.0,59.0,24.0,1644593179.90625,P04,D07,0,0,0
1383,-5.0,59.0,24.0,1644593179.9375,P04,D07,0,0,0
1384,-4.0,59.0,24.0,1644593179.96875,P04,D07,0,0,0
1385,-4.0,59.0,24.0,1644593180.0,P04,D07,0,0,0
1386,-5.0,59.0,24.0,1644593180.03125,P04,D07,0,0,0
1387,-5.0,59.0,24.0,1644593180.0625,P04,D07,0,0,0
1388,-5.0,59.0,24.0,1644593180.09375,P04,D07,0,0,0
1389,-5.0,59.0,24.0,1644593180.125,P04,D07,0,0,0
1390,-4.0,59.0,24.0,1644593180.15625,P04,D07,0,0,0
1391,-5.0,59.0,24.0,1644593180.1875,P04,D07,0,0,0
1392,-5.0,59.0,24.0,1644593180.21875,P04,D07,0,0,0
1393,-4.0,59.0,24.0,1644593180.25,P04,D07,0,0,0
1394,-5.0,59.0,24.0,1644593180.28125,P04,D07,0,0,0
1395,-5.0,59.0,24.0,1644593180.3125,P04,D07,0,0,0
1396,-4.0,59.0,24.0,1644593180.34375,P04,D07,0,0,0
1397,-4.0,59.0,24.0,1644593180.375,P04,D07,0,0,0
1398,-5.0,59.0,24.0,1644593180.40625,P04,D07,0,0,0
1399,-5.0,59.0,24.0,1644593180.4375,P04,D07,0,0,0
1400,-5.0,59.0,24.0,1644593180.46875,P04,D07,0,0,0
1401,-4.0,59.0,24.0,1644593180.5,P04,D07,0,0,0
1402,-5.0,59.0,24.0,1644593180.53125,P04,D07,0,0,0
1403,-5.0,59.0,24.0,1644593180.5625,P04,D07,0,0,0
1404,-5.0,59.0,24.0,1644593180.59375,P04,D07,0,0,0
1405,-5.0,59.0,24.0,1644593180.625,P04,D07,0,0,0
1406,-5.0,59.0,24.0,1644593180.65625,P04,D07,0,0,0
1407,-5.0,59.0,24.0,1644593180.6875,P04,D07,0,0,0
1408,-4.0,59.0,23.0,1644593180.71875,P04,D07,0,0,0
1409,-5.0,59.0,24.0,1644593180.75,P04,D07,0,0,0
1410,-4.0,59.0,24.0,1644593180.78125,P04,D07,0,0,0
1411,-4.0,59.0,24.0,1644593180.8125,P04,D07,0,0,0
1412,-5.0,59.0,24.0,1644593180.84375,P04,D07,0,0,0
1413,-4.0,59.0,24.0,1644593180.875,P04,D07,0,0,0
1414,-4.0,59.0,23.0,1644593180.90625,P04,D07,0,0,0
1415,-5.0,59.0,24.0,1644593180.9375,P04,D07,0,0,0
1416,-4.0,59.0,24.0,1644593180.96875,P04,D07,0,0,0
1417,-4.0,59.0,24.0,1644593181.0,P04,D07,0,0,0
1418,-5.0,59.0,24.0,1644593181.03125,P04,D07,0,0,0
1419,-5.0,59.0,24.0,1644593181.0625,P04,D07,0,0,0
1420,-5.0,59.0,24.0,1644593181.09375,P04,D07,0,0,0
1421,-5.0,59.0,24.0,1644593181.125,P04,D07,0,0,0
1422,-5.0,59.0,24.0,1644593181.15625,P04,D07,0,0,0
1423,-5.0,59.0,24.0,1644593181.1875,P04,D07,0,0,0
1424,-5.0,59.0,24.0,1644593181.21875,P04,D07,0,0,0
1425,-4.0,59.0,24.0,1644593181.25,P04,D07,0,0,0
1426,-5.0,59.0,24.0,1644593181.28125,P04,D07,0,0,0
1427,-4.0,59.0,24.0,1644593181.3125,P04,D07,0,0,0
1428,-4.0,59.0,24.0,1644593181.34375,P04,D07,0,0,0
1429,-5.0,59.0,24.0,1644593181.375,P04,D07,0,0,0
1430,-4.0,59.0,24.0,1644593181.40625,P04,D07,0,0,0
1431,-4.0,59.0,23.0,1644593181.4375,P04,D07,0,0,0
1432,-5.0,59.0,24.0,1644593181.46875,P04,D07,0,0,0
1433,-5.0,59.0,23.0,1644593181.5,P04,D07,0,0,0
1434,-4.0,59.0,24.0,1644593181.53125,P04,D07,0,0,0
1435,-4.0,59.0,24.0,1644593181.5625,P04,D07,0,0,0
1436,-4.0,59.0,24.0,1644593181.59375,P04,D07,0,0,0
1437,-4.0,59.0,24.0,1644593181.625,P04,D07,0,0,0
1438,-4.0,59.0,24.0,1644593181.65625,P04,D07,0,0,0
1439,-5.0,59.0,24.0,1644593181.6875,P04,D07,0,0,0
1440,-4.0,59.0,24.0,1644593181.71875,P04,D07,0,0,0
1441,-4.0,59.0,24.0,1644593181.75,P04,D07,0,0,0
1442,-5.0,59.0,24.0,1644593181.78125,P04,D07,0,0,0
1443,-4.0,59.0,24.0,1644593181.8125,P04,D07,0,0,0
1444,-4.0,59.0,24.0,1644593181.84375,P04,D07,0,0,0
1445,-4.0,59.0,24.0,1644593181.875,P04,D07,0,0,0
1446,-5.0,59.0,24.0,1644593181.90625,P04,D07,0,0,0
1447,-5.0,59.0,23.0,1644593181.9375,P04,D07,0,0,0
1448,-4.0,59.0,24.0,1644593181.96875,P04,D07,0,0,0
1449,-5.0,59.0,24.0,1644593182.0,P04,D07,0,0,0
1450,-4.0,59.0,24.0,1644593182.03125,P04,D07,0,0,0
1451,-4.0,59.0,23.0,1644593182.0625,P04,D07,0,0,0
1452,-4.0,59.0,24.0,1644593182.09375,P04,D07,0,0,0
1453,-5.0,59.0,24.0,1644593182.125,P04,D07,0,0,0
1454,-4.0,59.0,24.0,1644593182.15625,P04,D07,0,0,0
1455,-4.0,59.0,24.0,1644593182.1875,P04,D07,0,0,0
1456,-5.0,59.0,24.0,1644593182.21875,P04,D07,0,0,0
1457,-4.0,59.0,24.0,1644593182.25,P04,D07,0,0,0
1458,-5.0,59.0,24.0,1644593182.28125,P04,D07,0,0,0
1459,-4.0,59.0,24.0,1644593182.3125,P04,D07,0,0,0
1460,-4.0,59.0,24.0,1644593182.34375,P04,D07,0,0,0
1461,-5.0,59.0,24.0,1644593182.375,P04,D07,0,0,0
1462,-5.0,59.0,24.0,1644593182.40625,P04,D07,0,0,0
1463,-4.0,59.0,24.0,1644593182.4375,P04,D07,0,0,0
1464,-4.0,59.0,24.0,1644593182.46875,P04,D07,0,0,0
1465,-5.0,59.0,24.0,1644593182.5,P04,D07,0,0,0
1466,-4.0,59.0,24.0,1644593182.53125,P04,D07,0,0,0
1467,-4.0,59.0,24.0,1644593182.5625,P04,D07,0,0,0
1468,-4.0,59.0,24.0,1644593182.59375,P04,D07,0,0,0
1469,-4.0,59.0,24.0,1644593182.625,P04,D07,0,0,0
1470,-4.0,59.0,24.0,1644593182.65625,P04,D07,0,0,0
1471,-4.0,59.0,24.0,1644593182.6875,P04,D07,0,0,0
1472,-4.0,60.0,24.0,1644593182.71875,P04,D07,0,0,0
1473,-4.0,59.0,24.0,1644593182.75,P04,D07,0,0,0
1474,-4.0,59.0,24.0,1644593182.78125,P04,D07,0,0,0
1475,-5.0,59.0,24.0,1644593182.8125,P04,D07,0,0,0
1476,-4.0,59.0,24.0,1644593182.84375,P04,D07,0,0,0
1477,-4.0,59.0,24.0,1644593182.875,P04,D07,0,0,0
1478,-5.0,59.0,24.0,1644593182.90625,P04,D07,0,0,0
1479,-4.0,59.0,24.0,1644593182.9375,P04,D07,0,0,0
1480,-4.0,59.0,24.0,1644593182.96875,P04,D07,0,0,0
1481,-4.0,59.0,24.0,1644593183.0,P04,D07,0,0,0
1482,-4.0,59.0,24.0,1644593183.03125,P04,D07,0,0,0
1483,-5.0,59.0,24.0,1644593183.0625,P04,D07,0,0,0
1484,-5.0,59.0,24.0,1644593183.09375,P04,D07,0,0,0
1485,-4.0,59.0,24.0,1644593183.125,P04,D07,0,0,0
1486,-4.0,59.0,24.0,1644593183.15625,P04,D07,0,0,0
1487,-4.0,59.0,24.0,1644593183.1875,P04,D07,0,0,0
1488,-4.0,59.0,24.0,1644593183.21875,P04,D07,0,0,0
1489,-4.0,59.0,24.0,1644593183.25,P04,D07,0,0,0
1490,-4.0,59.0,24.0,1644593183.28125,P04,D07,0,0,0
1491,-4.0,59.0,24.0,1644593183.3125,P04,D07,0,0,0
1492,-4.0,59.0,24.0,1644593183.34375,P04,D07,0,0,0
1493,-4.0,59.0,24.0,1644593183.375,P04,D07,0,0,0
1494,-4.0,59.0,24.0,1644593183.40625,P04,D07,0,0,0
1495,-4.0,59.0,24.0,1644593183.4375,P04,D07,0,0,0
1496,-4.0,59.0,24.0,1644593183.46875,P04,D07,0,0,0
1497,-4.0,59.0,24.0,1644593183.5,P04,D07,0,0,0
1498,-4.0,59.0,24.0,1644593183.53125,P04,D07,0,0,0
1499,-5.0,59.0,24.0,1644593183.5625,P04,D07,0,0,0
1500,-4.0,59.0,24.0,1644593183.59375,P04,D07,0,0,0
1501,-4.0,59.0,24.0,1644593183.625,P04,D07,0,0,0
1502,-5.0,59.0,24.0,1644593183.65625,P04,D07,0,0,0
1503,-4.0,59.0,24.0,1644593183.6875,P04,D07,0,0,0
1504,-4.0,59.0,24.0,1644593183.71875,P04,D07,0,0,0
1505,-5.0,59.0,24.0,1644593183.75,P04,D07,0,0,0
1506,-4.0,59.0,24.0,1644593183.78125,P04,D07,0,0,0
1507,-4.0,59.0,24.0,1644593183.8125,P04,D07,0,0,0
1508,-5.0,59.0,24.0,1644593183.84375,P04,D07,0,0,0
1509,-4.0,59.0,24.0,1644593183.875,P04,D07,0,0,0
1510,-4.0,59.0,24.0,1644593183.90625,P04,D07,0,0,0
1511,-5.0,59.0,24.0,1644593183.9375,P04,D07,0,0,0
1512,-4.0,59.0,24.0,1644593183.96875,P04,D07,0,0,0
1513,-4.0,59.0,24.0,1644593184.0,P04,D07,0,0,0
1514,-5.0,59.0,24.0,1644593184.03125,P04,D07,0,0,0
1515,-4.0,59.0,24.0,1644593184.0625,P04,D07,0,0,0
1516,-4.0,59.0,24.0,1644593184.09375,P04,D07,0,0,0
1517,-4.0,59.0,24.0,1644593184.125,P04,D07,0,0,0
1518,-4.0,59.0,24.0,1644593184.15625,P04,D07,0,0,0
1519,-4.0,59.0,24.0,1644593184.1875,P04,D07,0,0,0
1520,-4.0,59.0,24.0,1644593184.21875,P04,D07,0,0,0
1521,-4.0,59.0,24.0,1644593184.25,P04,D07,0,0,0
1522,-4.0,59.0,24.0,1644593184.28125,P04,D07,0,0,0
1523,-5.0,59.0,24.0,1644593184.3125,P04,D07,0,0,0
1524,-4.0,59.0,24.0,1644593184.34375,P04,D07,0,0,0
1525,-4.0,59.0,24.0,1644593184.375,P04,D07,0,0,0
1526,-5.0,59.0,24.0,1644593184.40625,P04,D07,0,0,0
1527,-4.0,59.0,24.0,1644593184.4375,P04,D07,0,0,0
1528,-4.0,59.0,24.0,1644593184.46875,P04,D07,0,0,0
1529,-4.0,59.0,24.0,1644593184.5,P04,D07,0,0,0
1530,-4.0,59.0,24.0,1644593184.53125,P04,D07,0,0,0
1531,-4.0,59.0,24.0,1644593184.5625,P04,D07,0,0,0
1532,-5.0,59.0,24.0,1644593184.59375,P04,D07,0,0,0
1533,-4.0,59.0,24.0,1644593184.625,P04,D07,0,0,0
1534,-4.0,59.0,24.0,1644593184.65625,P04,D07,0,0,0
1535,-5.0,59.0,24.0,1644593184.6875,P04,D07,0,0,0
1536,-5.0,59.0,24.0,1644593184.71875,P04,D07,0,0,0
1537,-4.0,59.0,24.0,1644593184.75,P04,D07,0,0,0
1538,-5.0,59.0,24.0,1644593184.78125,P04,D07,0,0,0
1539,-5.0,59.0,24.0,1644593184.8125,P04,D07,0,0,0
1540,-4.0,59.0,24.0,1644593184.84375,P04,D07,0,0,0
1541,-4.0,59.0,24.0,1644593184.875,P04,D07,0,0,0
1542,-4.0,59.0,24.0,1644593184.90625,P04,D07,0,0,0
1543,-4.0,59.0,24.0,1644593184.9375,P04,D07,0,0,0
1544,-4.0,59.0,24.0,1644593184.96875,P04,D07,0,0,0
1545,-4.0,59.0,24.0,1644593185.0,P04,D07,0,0,0
1546,-4.0,59.0,24.0,1644593185.03125,P04,D07,0,0,0
1547,-4.0,59.0,24.0,1644593185.0625,P04,D07,0,0,0
1548,-5.0,59.0,24.0,1644593185.09375,P04,D07,0,0,0
1549,-4.0,59.0,24.0,1644593185.125,P04,D07,0,0,0
1550,-4.0,59.0,24.0,1644593185.15625,P04,D07,0,0,0
1551,-4.0,59.0,24.0,1644593185.1875,P04,D07,0,0,0
1552,-4.0,59.0,24.0,1644593185.21875,P04,D07,0,0,0
1553,-5.0,59.0,24.0,1644593185.25,P04,D07,0,0,0
1554,-4.0,59.0,24.0,1644593185.28125,P04,D07,0,0,0
1555,-4.0,59.0,24.0,1644593185.3125,P04,D07,0,0,0
1556,-4.0,59.0,24.0,1644593185.34375,P04,D07,0,0,0
1557,-4.0,59.0,24.0,1644593185.375,P04,D07,0,0,0
1558,-4.0,59.0,24.0,1644593185.40625,P04,D07,0,0,0
1559,-4.0,59.0,24.0,1644593185.4375,P04,D07,0,0,0
1560,-5.0,59.0,24.0,1644593185.46875,P04,D07,0,0,0
1561,-4.0,59.0,24.0,1644593185.5,P04,D07,0,0,0
1562,-4.0,59.0,24.0,1644593185.53125,P04,D07,0,0,0
1563,-5.0,59.0,24.0,1644593185.5625,P04,D07,0,0,0
1564,-5.0,59.0,24.0,1644593185.59375,P04,D07,0,0,0
1565,-4.0,59.0,24.0,1644593185.625,P04,D07,0,0,0
1566,-4.0,59.0,24.0,1644593185.65625,P04,D07,0,0,0
1567,-4.0,59.0,24.0,1644593185.6875,P04,D07,0,0,0
1568,-4.0,59.0,24.0,1644593185.71875,P04,D07,0,0,0
1569,-4.0,59.0,24.0,1644593185.75,P04,D07,0,0,0
1570,-4.0,59.0,24.0,1644593185.78125,P04,D07,0,0,0
1571,-4.0,59.0,24.0,1644593185.8125,P04,D07,0,0,0
1572,-4.0,59.0,24.0,1644593185.84375,P04,D07,0,0,0
1573,-5.0,59.0,24.0,1644593185.875,P04,D07,0,0,0
1574,-4.0,59.0,24.0,1644593185.90625,P04,D07,0,0,0
1575,-4.0,59.0,24.0,1644593185.9375,P04,D07,0,0,0
1576,-4.0,59.0,24.0,1644593185.96875,P04,D07,0,0,0
1577,-4.0,59.0,24.0,1644593186.0,P04,D07,0,0,0
1578,-4.0,59.0,24.0,1644593186.03125,P04,D07,0,0,0
1579,-4.0,59.0,24.0,1644593186.0625,P04,D07,0,0,0
1580,-4.0,59.0,24.0,1644593186.09375,P04,D07,0,0,0
1581,-4.0,59.0,24.0,1644593186.125,P04,D07,0,0,0
1582,-4.0,59.0,24.0,1644593186.15625,P04,D07,0,0,0
1583,-4.0,59.0,24.0,1644593186.1875,P04,D07,0,0,0
1584,-4.0,59.0,24.0,1644593186.21875,P04,D07,0,0,0
1585,-4.0,59.0,24.0,1644593186.25,P04,D07,0,0,0
1586,-4.0,59.0,24.0,1644593186.28125,P04,D07,0,0,0
1587,-4.0,59.0,24.0,1644593186.3125,P04,D07,0,0,0
1588,-4.0,59.0,24.0,1644593186.34375,P04,D07,0,0,0
1589,-4.0,59.0,24.0,1644593186.375,P04,D07,0,0,0
1590,-4.0,59.0,24.0,1644593186.40625,P04,D07,0,0,0
1591,-4.0,59.0,24.0,1644593186.4375,P04,D07,0,0,0
1592,-4.0,59.0,24.0,1644593186.46875,P04,D07,0,0,0
1593,-4.0,59.0,24.0,1644593186.5,P04,D07,0,0,0
1594,-4.0,59.0,24.0,1644593186.53125,P04,D07,0,0,0
1595,-4.0,59.0,24.0,1644593186.5625,P04,D07,0,0,0
1596,-4.0,59.0,24.0,1644593186.59375,P04,D07,0,0,0
1597,-4.0,59.0,24.0,1644593186.625,P04,D07,0,0,0
1598,-5.0,59.0,24.0,1644593186.65625,P04,D07,0,0,0
1599,-4.0,59.0,24.0,1644593186.6875,P04,D07,0,0,0
1600,-4.0,59.0,24.0,1644593186.71875,P04,D07,0,0,0
1601,-4.0,59.0,24.0,1644593186.75,P04,D07,0,0,0
1602,-4.0,59.0,24.0,1644593186.78125,P04,D07,0,0,0
1603,-4.0,59.0,24.0,1644593186.8125,P04,D07,0,0,0
1604,-4.0,59.0,24.0,1644593186.84375,P04,D07,0,0,0
1605,-5.0,59.0,24.0,1644593186.875,P04,D07,0,0,0
1606,-4.0,59.0,24.0,1644593186.90625,P04,D07,0,0,0
1607,-4.0,59.0,25.0,1644593186.9375,P04,D07,0,0,0
1608,-4.0,59.0,25.0,1644593186.96875,P04,D07,0,0,0
1609,-5.0,59.0,24.0,1644593187.0,P04,D07,0,0,0
1610,-5.0,60.0,23.0,1644593187.03125,P04,D07,0,0,0
1611,-3.0,59.0,24.0,1644593187.0625,P04,D07,0,0,0
1612,-5.0,59.0,25.0,1644593187.09375,P04,D07,0,0,0
1613,-4.0,60.0,23.0,1644593187.125,P04,D07,0,0,0
1614,-6.0,59.0,23.0,1644593187.15625,P04,D07,0,0,0
1615,-4.0,59.0,24.0,1644593187.1875,P04,D07,0,0,0
1616,-6.0,59.0,23.0,1644593187.21875,P04,D07,0,0,0
1617,-7.0,60.0,21.0,1644593187.25,P04,D07,0,0,0
1618,-7.0,60.0,21.0,1644593187.28125,P04,D07,0,0,0
1619,-7.0,60.0,23.0,1644593187.3125,P04,D07,0,0,0
1620,-7.0,60.0,21.0,1644593187.34375,P04,D07,0,0,0
1621,-8.0,61.0,20.0,1644593187.375,P04,D07,0,0,0
1622,-5.0,60.0,21.0,1644593187.40625,P04,D07,0,0,0
1623,-4.0,60.0,23.0,1644593187.4375,P04,D07,0,0,0
1624,-4.0,59.0,24.0,1644593187.46875,P04,D07,0,0,0
1625,-6.0,59.0,25.0,1644593187.5,P04,D07,0,0,0
1626,-6.0,59.0,25.0,1644593187.53125,P04,D07,0,0,0
1627,-4.0,60.0,24.0,1644593187.5625,P04,D07,0,0,0
1628,-6.0,60.0,23.0,1644593187.59375,P04,D07,0,0,0
1629,-7.0,59.0,23.0,1644593187.625,P04,D07,0,0,0
1630,-6.0,59.0,23.0,1644593187.65625,P04,D07,0,0,0
1631,-8.0,59.0,23.0,1644593187.6875,P04,D07,0,0,0
1632,-6.0,60.0,20.0,1644593187.71875,P04,D07,0,0,0
1633,-7.0,61.0,18.0,1644593187.75,P04,D07,0,0,0
1634,-5.0,61.0,19.0,1644593187.78125,P04,D07,0,0,0
1635,-2.0,60.0,21.0,1644593187.8125,P04,D07,0,0,0
1636,0.0,59.0,27.0,1644593187.84375,P04,D07,0,0,0
1637,0.0,58.0,29.0,1644593187.875,P04,D07,0,0,0
1638,-2.0,57.0,29.0,1644593187.90625,P04,D07,0,0,0
1639,-3.0,57.0,26.0,1644593187.9375,P04,D07,0,0,0
1640,-3.0,59.0,24.0,1644593187.96875,P04,D07,0,0,0
1641,-4.0,59.0,26.0,1644593188.0,P04,D07,0,0,0
1642,-4.0,59.0,27.0,1644593188.03125,P04,D07,0,0,0
1643,-5.0,60.0,24.0,1644593188.0625,P04,D07,0,0,0
1644,-6.0,59.0,23.0,1644593188.09375,P04,D07,0,0,0
1645,-6.0,59.0,23.0,1644593188.125,P04,D07,0,0,0
1646,-4.0,59.0,25.0,1644593188.15625,P04,D07,0,0,0
1647,-4.0,59.0,25.0,1644593188.1875,P04,D07,0,0,0
1648,-3.0,59.0,24.0,1644593188.21875,P04,D07,0,0,0
1649,-3.0,59.0,24.0,1644593188.25,P04,D07,0,0,0
1650,-3.0,59.0,25.0,1644593188.28125,P04,D07,0,0,0
1651,-3.0,59.0,26.0,1644593188.3125,P04,D07,0,0,0
1652,-2.0,59.0,24.0,1644593188.34375,P04,D07,0,0,0
1653,-1.0,59.0,24.0,1644593188.375,P04,D07,0,0,0
1654,-5.0,60.0,22.0,1644593188.40625,P04,D07,0,0,0
1655,-3.0,60.0,23.0,1644593188.4375,P04,D07,0,0,0
1656,-1.0,60.0,23.0,1644593188.46875,P04,D07,0,0,0
1657,-1.0,59.0,23.0,1644593188.5,P04,D07,0,0,0
1658,-2.0,59.0,23.0,1644593188.53125,P04,D07,0,0,0
1659,-3.0,60.0,22.0,1644593188.5625,P04,D07,0,0,0
1660,-4.0,60.0,21.0,1644593188.59375,P04,D07,0,0,0
1661,-3.0,60.0,21.0,1644593188.625,P04,D07,0,0,0
1662,-4.0,60.0,22.0,1644593188.65625,P04,D07,0,0,0
1663,-4.0,60.0,23.0,1644593188.6875,P04,D07,0,0,0
1664,-3.0,59.0,24.0,1644593188.71875,P04,D07,0,0,0
1665,-2.0,59.0,23.0,1644593188.75,P04,D07,0,0,0
1666,-3.0,59.0,23.0,1644593188.78125,P04,D07,0,0,0
1667,-4.0,60.0,23.0,1644593188.8125,P04,D07,0,0,0
1668,-3.0,60.0,23.0,1644593188.84375,P04,D07,0,0,0
1669,-4.0,60.0,24.0,1644593188.875,P04,D07,0,0,0
1670,-3.0,59.0,25.0,1644593188.90625,P04,D07,0,0,0
1671,-2.0,59.0,23.0,1644593188.9375,P04,D07,0,0,0
1672,-2.0,60.0,23.0,1644593188.96875,P04,D07,0,0,0
1673,-1.0,60.0,22.0,1644593189.0,P04,D07,0,0,0
1674,-2.0,60.0,22.0,1644593189.03125,P04,D07,0,0,0
1675,-4.0,60.0,21.0,1644593189.0625,P04,D07,0,0,0
1676,-6.0,60.0,21.0,1644593189.09375,P04,D07,0,0,0
1677,-5.0,59.0,23.0,1644593189.125,P04,D07,0,0,0
1678,-3.0,59.0,25.0,1644593189.15625,P04,D07,0,0,0
1679,-5.0,59.0,25.0,1644593189.1875,P04,D07,0,0,0
1680,-6.0,59.0,25.0,1644593189.21875,P04,D07,0,0,0
1681,-5.0,59.0,25.0,1644593189.25,P04,D07,0,0,0
1682,-4.0,59.0,25.0,1644593189.28125,P04,D07,0,0,0
1683,-4.0,59.0,25.0,1644593189.3125,P04,D07,0,0,0
1684,-4.0,59.0,25.0,1644593189.34375,P04,D07,0,0,0
1685,-3.0,59.0,25.0,1644593189.375,P04,D07,0,0,0
1686,-3.0,59.0,23.0,1644593189.40625,P04,D07,0,0,0
1687,-4.0,59.0,23.0,1644593189.4375,P04,D07,0,0,0
1688,-4.0,58.0,25.0,1644593189.46875,P04,D07,0,0,0
1689,-5.0,58.0,26.0,1644593189.5,P04,D07,0,0,0
1690,-6.0,58.0,26.0,1644593189.53125,P04,D07,0,0,0
1691,-6.0,58.0,26.0,1644593189.5625,P04,D07,0,0,0
1692,-5.0,58.0,26.0,1644593189.59375,P04,D07,0,0,0
1693,-6.0,58.0,26.0,1644593189.625,P04,D07,0,0,0
1694,-5.0,58.0,27.0,1644593189.65625,P04,D07,0,0,0
1695,-4.0,58.0,26.0,1644593189.6875,P04,D07,0,0,0
1696,-5.0,58.0,25.0,1644593189.71875,P04,D07,0,0,0
1697,-5.0,59.0,26.0,1644593189.75,P04,D07,0,0,0
1698,-6.0,58.0,26.0,1644593189.78125,P04,D07,0,0,0
1699,-5.0,58.0,27.0,1644593189.8125,P04,D07,0,0,0
1700,-5.0,58.0,26.0,1644593189.84375,P04,D07,0,0,0
1701,-5.0,58.0,25.0,1644593189.875,P04,D07,0,0,0
1702,-5.0,59.0,25.0,1644593189.90625,P04,D07,0,0,0
1703,-5.0,59.0,25.0,1644593189.9375,P04,D07,0,0,0
1704,-4.0,59.0,24.0,1644593189.96875,P04,D07,0,0,0
1705,-4.0,59.0,25.0,1644593190.0,P04,D07,0,0,0
1706,-4.0,58.0,26.0,1644593190.03125,P04,D07,0,0,0
1707,-4.0,59.0,25.0,1644593190.0625,P04,D07,0,0,0
1708,-4.0,59.0,25.0,1644593190.09375,P04,D07,0,0,0
1709,-4.0,58.0,25.0,1644593190.125,P04,D07,0,0,0
1710,-5.0,59.0,25.0,1644593190.15625,P04,D07,0,0,0
1711,-5.0,59.0,25.0,1644593190.1875,P04,D07,0,0,0
1712,-4.0,59.0,24.0,1644593190.21875,P04,D07,0,0,0
1713,-4.0,59.0,25.0,1644593190.25,P04,D07,0,0,0
1714,-4.0,58.0,26.0,1644593190.28125,P04,D07,0,0,0
1715,-4.0,58.0,26.0,1644593190.3125,P04,D07,0,0,0
1716,-5.0,59.0,25.0,1644593190.34375,P04,D07,0,0,0
1717,-5.0,59.0,25.0,1644593190.375,P04,D07,0,0,0
1718,-5.0,59.0,25.0,1644593190.40625,P04,D07,0,0,0
1719,-4.0,59.0,25.0,1644593190.4375,P04,D07,0,0,0
1720,-4.0,58.0,25.0,1644593190.46875,P04,D07,0,0,0
1721,-5.0,58.0,25.0,1644593190.5,P04,D07,0,0,0
1722,-4.0,59.0,25.0,1644593190.53125,P04,D07,0,0,0
1723,-4.0,58.0,25.0,1644593190.5625,P04,D07,0,0,0
1724,-4.0,58.0,26.0,1644593190.59375,P04,D07,0,0,0
1725,-5.0,58.0,25.0,1644593190.625,P04,D07,0,0,0
1726,-5.0,58.0,26.0,1644593190.65625,P04,D07,0,0,0
1727,-4.0,58.0,26.0,1644593190.6875,P04,D07,0,0,0
1728,-4.0,58.0,26.0,1644593190.71875,P04,D07,0,0,0
1729,-4.0,58.0,26.0,1644593190.75,P04,D07,0,0,0
1730,-4.0,59.0,26.0,1644593190.78125,P04,D07,0,0,0
1731,-4.0,58.0,26.0,1644593190.8125,P04,D07,0,0,0
1732,-4.0,59.0,25.0,1644593190.84375,P04,D07,0,0,0
1733,-5.0,59.0,25.0,1644593190.875,P04,D07,0,0,0
1734,-4.0,59.0,25.0,1644593190.90625,P04,D07,0,0,0
1735,-4.0,58.0,25.0,1644593190.9375,P04,D07,0,0,0
1736,-4.0,58.0,25.0,1644593190.96875,P04,D07,0,0,0
1737,-3.0,58.0,26.0,1644593191.0,P04,D07,0,0,0
1738,-4.0,59.0,26.0,1644593191.03125,P04,D07,0,0,0
1739,-4.0,58.0,25.0,1644593191.0625,P04,D07,0,0,0
1740,-4.0,59.0,26.0,1644593191.09375,P04,D07,0,0,0
1741,-4.0,58.0,26.0,1644593191.125,P04,D07,0,0,0
1742,-4.0,59.0,25.0,1644593191.15625,P04,D07,0,0,0
1743,-4.0,58.0,25.0,1644593191.1875,P04,D07,0,0,0
1744,-4.0,59.0,25.0,1644593191.21875,P04,D07,0,0,0
1745,-4.0,59.0,25.0,1644593191.25,P04,D07,0,0,0
1746,-4.0,59.0,25.0,1644593191.28125,P04,D07,0,0,0
1747,-4.0,59.0,26.0,1644593191.3125,P04,D07,0,0,0
1748,-4.0,59.0,25.0,1644593191.34375,P04,D07,0,0,0
1749,-4.0,59.0,25.0,1644593191.375,P04,D07,0,0,0
1750,-4.0,58.0,26.0,1644593191.40625,P04,D07,0,0,0
1751,-4.0,58.0,26.0,1644593191.4375,P04,D07,0,0,0
1752,-4.0,58.0,25.0,1644593191.46875,P04,D07,0,0,0
1753,-4.0,59.0,25.0,1644593191.5,P04,D07,0,0,0
1754,-4.0,59.0,26.0,1644593191.53125,P04,D07,0,0,0
1755,-4.0,58.0,26.0,1644593191.5625,P04,D07,0,0,0
1756,-4.0,58.0,26.0,1644593191.59375,P04,D07,0,0,0
1757,-4.0,58.0,25.0,1644593191.625,P04,D07,0,0,0
1758,-4.0,58.0,25.0,1644593191.65625,P04,D07,0,0,0
1759,-4.0,59.0,26.0,1644593191.6875,P04,D07,0,0,0
1760,-4.0,58.0,26.0,1644593191.71875,P04,D07,0,0,0
1761,-4.0,58.0,25.0,1644593191.75,P04,D07,0,0,0
1762,-4.0,59.0,25.0,1644593191.78125,P04,D07,0,0,0
1763,-4.0,59.0,26.0,1644593191.8125,P04,D07,0,0,0
1764,-4.0,58.0,26.0,1644593191.84375,P04,D07,0,0,0
1765,-4.0,58.0,26.0,1644593191.875,P04,D07,0,0,0
1766,-4.0,58.0,26.0,1644593191.90625,P04,D07,0,0,0
1767,-4.0,58.0,26.0,1644593191.9375,P04,D07,0,0,0
1768,-4.0,58.0,25.0,1644593191.96875,P04,D07,0,0,0
1769,-4.0,59.0,25.0,1644593192.0,P04,D07,0,0,0
1770,-4.0,59.0,25.0,1644593192.03125,P04,D07,0,0,0
1771,-4.0,59.0,25.0,1644593192.0625,P04,D07,0,0,0
1772,-4.0,59.0,25.0,1644593192.09375,P04,D07,0,0,0
1773,-4.0,59.0,26.0,1644593192.125,P04,D07,0,0,0
1774,-4.0,58.0,25.0,1644593192.15625,P04,D07,0,0,0
1775,-4.0,59.0,25.0,1644593192.1875,P04,D07,0,0,0
1776,-4.0,59.0,25.0,1644593192.21875,P04,D07,0,0,0
1777,-4.0,58.0,25.0,1644593192.25,P04,D07,0,0,0
1778,-4.0,58.0,26.0,1644593192.28125,P04,D07,0,0,0
1779,-4.0,59.0,25.0,1644593192.3125,P04,D07,0,0,0
1780,-4.0,59.0,25.0,1644593192.34375,P04,D07,0,0,0
1781,-4.0,58.0,25.0,1644593192.375,P04,D07,0,0,0
1782,-4.0,59.0,25.0,1644593192.40625,P04,D07,0,0,0
1783,-4.0,59.0,25.0,1644593192.4375,P04,D07,0,0,0
1784,-4.0,58.0,25.0,1644593192.46875,P04,D07,0,0,0
1785,-4.0,59.0,25.0,1644593192.5,P04,D07,0,0,0
1786,-4.0,58.0,26.0,1644593192.53125,P04,D07,0,0,0
1787,-4.0,59.0,25.0,1644593192.5625,P04,D07,0,0,0
1788,-4.0,59.0,25.0,1644593192.59375,P04,D07,0,0,0
1789,-4.0,58.0,26.0,1644593192.625,P04,D07,0,0,0
1790,-4.0,59.0,25.0,1644593192.65625,P04,D07,0,0,0
1791,-4.0,59.0,25.0,1644593192.6875,P04,D07,0,0,0
1792,-4.0,59.0,25.0,1644593192.71875,P04,D07,0,0,0
1793,-4.0,58.0,25.0,1644593192.75,P04,D07,0,0,0
1794,-4.0,58.0,26.0,1644593192.78125,P04,D07,0,0,0
1795,-4.0,59.0,25.0,1644593192.8125,P04,D07,0,0,0
1796,-4.0,58.0,25.0,1644593192.84375,P04,D07,0,0,0
1797,-4.0,58.0,25.0,1644593192.875,P04,D07,0,0,0
1798,-4.0,59.0,26.0,1644593192.90625,P04,D07,0,0,0
1799,-4.0,58.0,25.0,1644593192.9375,P04,D07,0,0,0
1800,-4.0,59.0,25.0,1644593192.96875,P04,D07,0,0,0
1801,-4.0,58.0,25.0,1644593193.0,P04,D07,0,0,0
1802,-4.0,59.0,25.0,1644593193.03125,P04,D07,0,0,0
1803,-4.0,59.0,26.0,1644593193.0625,P04,D07,0,0,0
1804,-4.0,59.0,25.0,1644593193.09375,P04,D07,0,0,0
1805,-4.0,58.0,25.0,1644593193.125,P04,D07,0,0,0
1806,-4.0,59.0,26.0,1644593193.15625,P04,D07,0,0,0
1807,-4.0,59.0,25.0,1644593193.1875,P04,D07,0,0,0
1808,-4.0,59.0,25.0,1644593193.21875,P04,D07,0,0,0
1809,-4.0,59.0,25.0,1644593193.25,P04,D07,0,0,0
1810,-4.0,59.0,25.0,1644593193.28125,P04,D07,0,0,0
1811,-4.0,59.0,25.0,1644593193.3125,P04,D07,0,0,0
1812,-4.0,59.0,25.0,1644593193.34375,P04,D07,0,0,0
1813,-4.0,59.0,25.0,1644593193.375,P04,D07,0,0,0
1814,-4.0,59.0,25.0,1644593193.40625,P04,D07,0,0,0
1815,-4.0,58.0,25.0,1644593193.4375,P04,D07,0,0,0
1816,-4.0,59.0,25.0,1644593193.46875,P04,D07,0,0,0
1817,-4.0,59.0,25.0,1644593193.5,P04,D07,0,0,0
1818,-4.0,59.0,25.0,1644593193.53125,P04,D07,0,0,0
1819,-4.0,59.0,25.0,1644593193.5625,P04,D07,0,0,0
1820,-4.0,59.0,25.0,1644593193.59375,P04,D07,0,0,0
1821,-4.0,59.0,25.0,1644593193.625,P04,D07,0,0,0
1822,-4.0,59.0,25.0,1644593193.65625,P04,D07,0,0,0
1823,-4.0,59.0,25.0,1644593193.6875,P04,D07,0,0,0
1824,-4.0,59.0,25.0,1644593193.71875,P04,D07,0,0,0
1825,-4.0,59.0,25.0,1644593193.75,P04,D07,0,0,0
1826,-4.0,59.0,25.0,1644593193.78125,P04,D07,0,0,0
1827,-4.0,59.0,25.0,1644593193.8125,P04,D07,0,0,0
1828,-4.0,59.0,25.0,1644593193.84375,P04,D07,0,0,0
1829,-4.0,59.0,25.0,1644593193.875,P04,D07,0,0,0
1830,-5.0,59.0,25.0,1644593193.90625,P04,D07,0,0,0
1831,-4.0,58.0,25.0,1644593193.9375,P04,D07,0,0,0
1832,-4.0,59.0,25.0,1644593193.96875,P04,D07,0,0,0
1833,-5.0,59.0,25.0,1644593194.0,P04,D07,0,0,0
1834,-5.0,59.0,25.0,1644593194.03125,P04,D07,0,0,0
1835,-4.0,59.0,25.0,1644593194.0625,P04,D07,0,0,0
1836,-4.0,59.0,25.0,1644593194.09375,P04,D07,0,0,0
1837,-4.0,59.0,25.0,1644593194.125,P04,D07,0,0,0
1838,-4.0,59.0,25.0,1644593194.15625,P04,D07,0,0,0
1839,-4.0,59.0,25.0,1644593194.1875,P04,D07,0,0,0
1840,-4.0,59.0,25.0,1644593194.21875,P04,D07,0,0,0
1841,-4.0,59.0,25.0,1644593194.25,P04,D07,0,0,0
1842,-4.0,59.0,25.0,1644593194.28125,P04,D07,0,0,0
1843,-4.0,59.0,25.0,1644593194.3125,P04,D07,0,0,0
1844,-5.0,59.0,24.0,1644593194.34375,P04,D07,0,0,0
1845,-5.0,59.0,25.0,1644593194.375,P04,D07,0,0,0
1846,-4.0,59.0,25.0,1644593194.40625,P04,D07,0,0,0
1847,-4.0,59.0,25.0,1644593194.4375,P04,D07,0,0,0
1848,-4.0,59.0,25.0,1644593194.46875,P04,D07,0,0,0
1849,-4.0,59.0,25.0,1644593194.5,P04,D07,0,0,0
1850,-5.0,59.0,25.0,1644593194.53125,P04,D07,0,0,0
1851,-4.0,58.0,25.0,1644593194.5625,P04,D07,0,0,0
1852,-4.0,59.0,25.0,1644593194.59375,P04,D07,0,0,0
1853,-5.0,59.0,25.0,1644593194.625,P04,D07,0,0,0
1854,-5.0,59.0,25.0,1644593194.65625,P04,D07,0,0,0
1855,-4.0,59.0,25.0,1644593194.6875,P04,D07,0,0,0
1856,-4.0,59.0,25.0,1644593194.71875,P04,D07,0,0,0
1857,-4.0,59.0,25.0,1644593194.75,P04,D07,0,0,0
1858,-4.0,59.0,25.0,1644593194.78125,P04,D07,0,0,0
1859,-4.0,59.0,25.0,1644593194.8125,P04,D07,0,0,0
1860,-5.0,59.0,25.0,1644593194.84375,P04,D07,0,0,0
1861,-5.0,59.0,25.0,1644593194.875,P04,D07,0,0,0
1862,-5.0,59.0,25.0,1644593194.90625,P04,D07,0,0,0
1863,-4.0,59.0,25.0,1644593194.9375,P04,D07,0,0,0
1864,-5.0,59.0,25.0,1644593194.96875,P04,D07,0,0,0
1865,-4.0,59.0,25.0,1644593195.0,P04,D07,0,0,0
1866,-4.0,59.0,25.0,1644593195.03125,P04,D07,0,0,0
1867,-4.0,59.0,25.0,1644593195.0625,P04,D07,0,0,0
1868,-5.0,59.0,25.0,1644593195.09375,P04,D07,0,0,0
1869,-4.0,59.0,25.0,1644593195.125,P04,D07,0,0,0
1870,-4.0,59.0,25.0,1644593195.15625,P04,D07,0,0,0
1871,-4.0,59.0,25.0,1644593195.1875,P04,D07,0,0,0
1872,-4.0,59.0,25.0,1644593195.21875,P04,D07,0,0,0
1873,-5.0,59.0,25.0,1644593195.25,P04,D07,0,0,0
1874,-4.0,59.0,25.0,1644593195.28125,P04,D07,0,0,0
1875,-4.0,59.0,25.0,1644593195.3125,P04,D07,0,0,0
1876,-4.0,59.0,25.0,1644593195.34375,P04,D07,0,0,0
1877,-5.0,59.0,25.0,1644593195.375,P04,D07,0,0,0
1878,-4.0,59.0,25.0,1644593195.40625,P04,D07,0,0,0
1879,-4.0,59.0,25.0,1644593195.4375,P04,D07,0,0,0
1880,-4.0,59.0,25.0,1644593195.46875,P04,D07,0,0,0
1881,-4.0,59.0,25.0,1644593195.5,P04,D07,0,0,0
1882,-4.0,59.0,25.0,1644593195.53125,P04,D07,0,0,0
1883,-4.0,59.0,25.0,1644593195.5625,P04,D07,0,0,0
1884,-4.0,59.0,25.0,1644593195.59375,P04,D07,0,0,0
1885,-4.0,59.0,25.0,1644593195.625,P04,D07,0,0,0
1886,-4.0,59.0,25.0,1644593195.65625,P04,D07,0,0,0
1887,-5.0,59.0,25.0,1644593195.6875,P04,D07,0,0,0
1888,-4.0,59.0,25.0,1644593195.71875,P04,D07,0,0,0
1889,-4.0,59.0,25.0,1644593195.75,P04,D07,0,0,0
1890,-5.0,59.0,25.0,1644593195.78125,P04,D07,0,0,0
1891,-4.0,59.0,25.0,1644593195.8125,P04,D07,0,0,0
1892,-5.0,59.0,24.0,1644593195.84375,P04,D07,0,0,0
1893,-4.0,59.0,25.0,1644593195.875,P04,D07,0,0,0
1894,-4.0,59.0,25.0,1644593195.90625,P04,D07,0,0,0
1895,-4.0,59.0,25.0,1644593195.9375,P04,D07,0,0,0
1896,-5.0,59.0,24.0,1644593195.96875,P04,D07,0,0,0
1897,-4.0,59.0,25.0,1644593196.0,P04,D07,0,0,0
1898,-4.0,59.0,25.0,1644593196.03125,P04,D07,0,0,0
1899,-5.0,59.0,25.0,1644593196.0625,P04,D07,0,0,0
1900,-4.0,59.0,25.0,1644593196.09375,P04,D07,0,0,0
1901,-5.0,59.0,25.0,1644593196.125,P04,D07,0,0,0
1902,-5.0,59.0,24.0,1644593196.15625,P04,D07,0,0,0
1903,-4.0,59.0,25.0,1644593196.1875,P04,D07,0,0,0
1904,-4.0,59.0,25.0,1644593196.21875,P04,D07,0,0,0
1905,-4.0,59.0,25.0,1644593196.25,P04,D07,0,0,0
1906,-4.0,59.0,25.0,1644593196.28125,P04,D07,0,0,0
1907,-4.0,59.0,25.0,1644593196.3125,P04,D07,0,0,0
1908,-5.0,59.0,25.0,1644593196.34375,P04,D07,0,0,0
1909,-4.0,59.0,25.0,1644593196.375,P04,D07,0,0,0
1910,-4.0,59.0,25.0,1644593196.40625,P04,D07,0,0,0
1911,-4.0,59.0,25.0,1644593196.4375,P04,D07,0,0,0
1912,-5.0,59.0,25.0,1644593196.46875,P04,D07,0,0,0
1913,-4.0,59.0,25.0,1644593196.5,P04,D07,0,0,0
1914,-4.0,59.0,25.0,1644593196.53125,P04,D07,0,0,0
1915,-4.0,59.0,25.0,1644593196.5625,P04,D07,0,0,0
1916,-4.0,59.0,25.0,1644593196.59375,P04,D07,0,0,0
1917,-4.0,59.0,25.0,1644593196.625,P04,D07,0,0,0
1918,-5.0,59.0,25.0,1644593196.65625,P04,D07,0,0,0
1919,-4.0,59.0,25.0,1644593196.6875,P04,D07,0,0,0
1920,-4.0,59.0,25.0,1644593196.71875,P04,D07,0,0,0
1921,-4.0,59.0,25.0,1644593196.75,P04,D07,0,0,0
1922,-5.0,59.0,25.0,1644593196.78125,P04,D07,0,0,0
1923,-4.0,59.0,25.0,1644593196.8125,P04,D07,0,0,0
1924,-4.0,59.0,25.0,1644593196.84375,P04,D07,0,0,0
1925,-4.0,59.0,25.0,1644593196.875,P04,D07,0,0,0
1926,-4.0,59.0,25.0,1644593196.90625,P04,D07,0,0,0
1927,-5.0,59.0,25.0,1644593196.9375,P04,D07,0,0,0
1928,-4.0,59.0,25.0,1644593196.96875,P04,D07,0,0,0
1929,-4.0,59.0,25.0,1644593197.0,P04,D07,0,0,0
1930,-4.0,59.0,25.0,1644593197.03125,P04,D07,0,0,0
1931,-5.0,59.0,25.0,1644593197.0625,P04,D07,0,0,0
1932,-4.0,59.0,25.0,1644593197.09375,P04,D07,0,0,0
1933,-4.0,59.0,25.0,1644593197.125,P04,D07,0,0,0
1934,-4.0,59.0,25.0,1644593197.15625,P04,D07,0,0,0
1935,-4.0,59.0,25.0,1644593197.1875,P04,D07,0,0,0
1936,-4.0,59.0,25.0,1644593197.21875,P04,D07,0,0,0
1937,-5.0,59.0,25.0,1644593197.25,P04,D07,0,0,0
1938,-4.0,59.0,25.0,1644593197.28125,P04,D07,0,0,0
1939,-5.0,59.0,25.0,1644593197.3125,P04,D07,0,0,0
1940,-4.0,59.0,25.0,1644593197.34375,P04,D07,0,0,0
1941,-4.0,59.0,25.0,1644593197.375,P04,D07,0,0,0
1942,-4.0,59.0,25.0,1644593197.40625,P04,D07,0,0,0
1943,-4.0,59.0,25.0,1644593197.4375,P04,D07,0,0,0
1944,-4.0,59.0,25.0,1644593197.46875,P04,D07,0,0,0
1945,-4.0,59.0,25.0,1644593197.5,P04,D07,0,0,0
1946,-5.0,59.0,25.0,1644593197.53125,P04,D07,0,0,0
1947,-4.0,59.0,25.0,1644593197.5625,P04,D07,0,0,0
1948,-4.0,59.0,25.0,1644593197.59375,P04,D07,0,0,0
1949,-5.0,59.0,25.0,1644593197.625,P04,D07,0,0,0
1950,-5.0,59.0,25.0,1644593197.65625,P04,D07,0,0,0
1951,-4.0,59.0,25.0,1644593197.6875,P04,D07,0,0,0
1952,-5.0,59.0,25.0,1644593197.71875,P04,D07,0,0,0
1953,-4.0,59.0,25.0,1644593197.75,P04,D07,0,0,0
1954,-4.0,59.0,25.0,1644593197.78125,P04,D07,0,0,0
1955,-4.0,59.0,25.0,1644593197.8125,P04,D07,0,0,0
1956,-4.0,59.0,25.0,1644593197.84375,P04,D07,0,0,0
1957,-4.0,59.0,25.0,1644593197.875,P04,D07,0,0,0
1958,-4.0,59.0,25.0,1644593197.90625,P04,D07,0,0,0
1959,-4.0,59.0,25.0,1644593197.9375,P04,D07,0,0,0
1960,-4.0,59.0,25.0,1644593197.96875,P04,D07,0,0,0
1961,-4.0,59.0,25.0,1644593198.0,P04,D07,0,0,0
1962,-4.0,59.0,25.0,1644593198.03125,P04,D07,0,0,0
1963,-4.0,59.0,25.0,1644593198.0625,P04,D07,0,0,0
1964,-4.0,59.0,25.0,1644593198.09375,P04,D07,0,0,0
1965,-4.0,59.0,25.0,1644593198.125,P04,D07,0,0,0
1966,-4.0,59.0,25.0,1644593198.15625,P04,D07,0,0,0
1967,-4.0,59.0,25.0,1644593198.1875,P04,D07,0,0,0
1968,-4.0,59.0,25.0,1644593198.21875,P04,D07,0,0,0
1969,-4.0,59.0,25.0,1644593198.25,P04,D07,0,0,0
1970,-4.0,59.0,25.0,1644593198.28125,P04,D07,0,0,0
1971,-4.0,59.0,25.0,1644593198.3125,P04,D07,0,0,0
1972,-4.0,59.0,25.0,1644593198.34375,P04,D07,0,0,0
1973,-5.0,59.0,25.0,1644593198.375,P04,D07,0,0,0
1974,-4.0,59.0,25.0,1644593198.40625,P04,D07,0,0,0
1975,-4.0,59.0,25.0,1644593198.4375,P04,D07,0,0,0
1976,-4.0,59.0,25.0,1644593198.46875,P04,D07,0,0,0
1977,-5.0,59.0,25.0,1644593198.5,P04,D07,0,0,0
1978,-4.0,59.0,25.0,1644593198.53125,P04,D07,0,0,0
1979,-5.0,59.0,25.0,1644593198.5625,P04,D07,0,0,0
1980,-4.0,59.0,25.0,1644593198.59375,P04,D07,0,0,0
1981,-4.0,59.0,25.0,1644593198.625,P04,D07,0,0,0
1982,-4.0,59.0,25.0,1644593198.65625,P04,D07,0,0,0
1983,-4.0,59.0,25.0,1644593198.6875,P04,D07,0,0,0
1984,-4.0,59.0,25.0,1644593198.71875,P04,D07,0,0,0
1985,-4.0,59.0,25.0,1644593198.75,P04,D07,0,0,0
1986,-4.0,59.0,25.0,1644593198.78125,P04,D07,0,0,0
1987,-4.0,59.0,25.0,1644593198.8125,P04,D07,0,0,0
1988,-4.0,59.0,25.0,1644593198.84375,P04,D07,0,0,0
1989,-4.0,59.0,25.0,1644593198.875,P04,D07,0,0,0
1990,-4.0,59.0,25.0,1644593198.90625,P04,D07,0,0,0
1991,-5.0,59.0,25.0,1644593198.9375,P04,D07,0,0,0
1992,-4.0,59.0,25.0,1644593198.96875,P04,D07,0,0,0
1993,-4.0,59.0,25.0,1644593199.0,P04,D07,0,0,0
1994,-4.0,59.0,25.0,1644593199.03125,P04,D07,0,0,0
1995,-4.0,59.0,25.0,1644593199.0625,P04,D07,0,0,0
1996,-4.0,59.0,25.0,1644593199.09375,P04,D07,0,0,0
1997,-5.0,59.0,25.0,1644593199.125,P04,D07,0,0,0
1998,-4.0,59.0,25.0,1644593199.15625,P04,D07,0,0,0
1999,-4.0,59.0,25.0,1644593199.1875,P04,D07,0,0,0
2000,-4.0,59.0,25.0,1644593199.21875,P04,D07,0,0,0
2001,-4.0,59.0,25.0,1644593199.25,P04,D07,0,0,0
2002,-4.0,59.0,25.0,1644593199.28125,P04,D07,0,0,0
2003,-4.0,59.0,25.0,1644593199.3125,P04,D07,0,0,0
2004,-4.0,59.0,25.0,1644593199.34375,P04,D07,0,0,0
2005,-4.0,59.0,25.0,1644593199.375,P04,D07,0,0,0
2006,-4.0,59.0,25.0,1644593199.40625,P04,D07,0,0,0
2007,-4.0,59.0,25.0,1644593199.4375,P04,D07,0,0,0
2008,-4.0,59.0,25.0,1644593199.46875,P04,D07,0,0,0
2009,-4.0,58.0,25.0,1644593199.5,P04,D07,0,0,0
2010,-4.0,58.0,25.0,1644593199.53125,P04,D07,0,0,0
2011,-4.0,59.0,25.0,1644593199.5625,P04,D07,0,0,0
2012,-4.0,59.0,25.0,1644593199.59375,P04,D07,0,0,0
2013,-4.0,59.0,25.0,1644593199.625,P04,D07,0,0,0
2014,-4.0,59.0,25.0,1644593199.65625,P04,D07,0,0,0
2015,-4.0,59.0,25.0,1644593199.6875,P04,D07,0,0,0
2016,-5.0,59.0,25.0,1644593199.71875,P04,D07,0,0,0
2017,-4.0,59.0,25.0,1644593199.75,P04,D07,0,0,0
2018,-4.0,59.0,25.0,1644593199.78125,P04,D07,0,0,0
2019,-4.0,59.0,25.0,1644593199.8125,P04,D07,0,0,0
2020,-4.0,59.0,25.0,1644593199.84375,P04,D07,0,0,0
2021,-4.0,59.0,25.0,1644593199.875,P04,D07,0,0,0
2022,-4.0,59.0,25.0,1644593199.90625,P04,D07,0,0,0
2023,-4.0,59.0,25.0,1644593199.9375,P04,D07,0,0,0
2024,-4.0,59.0,25.0,1644593199.96875,P04,D07,0,0,0
2025,-4.0,59.0,25.0,1644593200.0,P04,D07,0,0,0
2026,-4.0,59.0,25.0,1644593200.03125,P04,D07,0,0,0
2027,-4.0,59.0,25.0,1644593200.0625,P04,D07,0,0,0
2028,-4.0,59.0,25.0,1644593200.09375,P04,D07,0,0,0
2029,-4.0,59.0,25.0,1644593200.125,P04,D07,0,0,0
2030,-4.0,59.0,25.0,1644593200.15625,P04,D07,0,0,0
2031,-4.0,59.0,25.0,1644593200.1875,P04,D07,0,0,0
2032,-4.0,59.0,25.0,1644593200.21875,P04,D07,0,0,0
2033,-4.0,58.0,25.0,1644593200.25,P04,D07,0,0,0
2034,-4.0,59.0,25.0,1644593200.28125,P04,D07,0,0,0
2035,-4.0,59.0,25.0,1644593200.3125,P04,D07,0,0,0
2036,-4.0,59.0,25.0,1644593200.34375,P04,D07,0,0,0
2037,-4.0,59.0,25.0,1644593200.375,P04,D07,0,0,0
2038,-4.0,59.0,25.0,1644593200.40625,P04,D07,0,0,0
2039,-4.0,59.0,25.0,1644593200.4375,P04,D07,0,0,0
2040,-4.0,59.0,25.0,1644593200.46875,P04,D07,0,0,0
2041,-4.0,59.0,25.0,1644593200.5,P04,D07,0,0,0
2042,-4.0,59.0,25.0,1644593200.53125,P04,D07,0,0,0
2043,-4.0,59.0,25.0,1644593200.5625,P04,D07,0,0,0
2044,-4.0,59.0,25.0,1644593200.59375,P04,D07,0,0,0
2045,-5.0,59.0,25.0,1644593200.625,P04,D07,0,0,0
2046,-4.0,59.0,25.0,1644593200.65625,P04,D07,0,0,0
2047,-4.0,59.0,25.0,1644593200.6875,P04,D07,0,0,0
2048,-4.0,59.0,25.0,1644593200.71875,P04,D07,0,0,0
2049,-5.0,59.0,25.0,1644593200.75,P04,D07,0,0,0
2050,-5.0,59.0,25.0,1644593200.78125,P04,D07,0,0,0
2051,-5.0,59.0,25.0,1644593200.8125,P04,D07,0,0,0
2052,-5.0,59.0,25.0,1644593200.84375,P04,D07,0,0,0
2053,-4.0,59.0,25.0,1644593200.875,P04,D07,0,0,0
2054,-5.0,59.0,25.0,1644593200.90625,P04,D07,0,0,0
2055,-4.0,59.0,25.0,1644593200.9375,P04,D07,0,0,0
2056,-4.0,59.0,25.0,1644593200.96875,P04,D07,0,0,0
2057,-4.0,59.0,25.0,1644593201.0,P04,D07,0,0,0
2058,-4.0,59.0,25.0,1644593201.03125,P04,D07,0,0,0
2059,-5.0,59.0,25.0,1644593201.0625,P04,D07,0,0,0
2060,-4.0,59.0,25.0,1644593201.09375,P04,D07,0,0,0
2061,-4.0,59.0,25.0,1644593201.125,P04,D07,0,0,0
2062,-5.0,59.0,24.0,1644593201.15625,P04,D07,0,0,0
2063,-5.0,59.0,25.0,1644593201.1875,P04,D07,0,0,0
2064,-4.0,59.0,25.0,1644593201.21875,P04,D07,0,0,0
2065,-5.0,59.0,25.0,1644593201.25,P04,D07,0,0,0
2066,-5.0,59.0,25.0,1644593201.28125,P04,D07,0,0,0
2067,-4.0,59.0,24.0,1644593201.3125,P04,D07,0,0,0
2068,-5.0,59.0,25.0,1644593201.34375,P04,D07,0,0,0
2069,-4.0,59.0,25.0,1644593201.375,P04,D07,0,0,0
2070,-4.0,59.0,25.0,1644593201.40625,P04,D07,0,0,0
2071,-5.0,59.0,25.0,1644593201.4375,P04,D07,0,0,0
2072,-4.0,59.0,25.0,1644593201.46875,P04,D07,0,0,0
2073,-4.0,59.0,25.0,1644593201.5,P04,D07,0,0,0
2074,-5.0,59.0,25.0,1644593201.53125,P04,D07,0,0,0
2075,-5.0,59.0,25.0,1644593201.5625,P04,D07,0,0,0
2076,-4.0,59.0,25.0,1644593201.59375,P04,D07,0,0,0
2077,-4.0,59.0,25.0,1644593201.625,P04,D07,0,0,0
2078,-4.0,59.0,25.0,1644593201.65625,P04,D07,0,0,0
2079,-5.0,59.0,25.0,1644593201.6875,P04,D07,0,0,0
2080,-4.0,59.0,25.0,1644593201.71875,P04,D07,0,0,0
2081,-4.0,59.0,25.0,1644593201.75,P04,D07,0,0,0
2082,-4.0,59.0,25.0,1644593201.78125,P04,D07,0,0,0
2083,-5.0,59.0,25.0,1644593201.8125,P04,D07,0,0,0
2084,-4.0,59.0,25.0,1644593201.84375,P04,D07,0,0,0
2085,-4.0,59.0,25.0,1644593201.875,P04,D07,0,0,0
2086,-5.0,59.0,25.0,1644593201.90625,P04,D07,0,0,0
2087,-4.0,59.0,25.0,1644593201.9375,P04,D07,0,0,0
2088,-5.0,59.0,25.0,1644593201.96875,P04,D07,0,0,0
2089,-5.0,59.0,25.0,1644593202.0,P04,D07,0,0,0
2090,-5.0,59.0,25.0,1644593202.03125,P04,D07,0,0,0
2091,-5.0,59.0,25.0,1644593202.0625,P04,D07,0,0,0
2092,-5.0,59.0,25.0,1644593202.09375,P04,D07,0,0,0
2093,-4.0,59.0,25.0,1644593202.125,P04,D07,0,0,0
2094,-5.0,59.0,25.0,1644593202.15625,P04,D07,0,0,0
2095,-5.0,59.0,25.0,1644593202.1875,P04,D07,0,0,0
2096,-4.0,59.0,25.0,1644593202.21875,P04,D07,0,0,0
2097,-4.0,59.0,25.0,1644593202.25,P04,D07,0,0,0
2098,-4.0,59.0,25.0,1644593202.28125,P04,D07,0,0,0
2099,-5.0,59.0,25.0,1644593202.3125,P04,D07,0,0,0
2100,-4.0,59.0,25.0,1644593202.34375,P04,D07,0,0,0
2101,-4.0,59.0,25.0,1644593202.375,P04,D07,0,0,0
2102,-4.0,59.0,25.0,1644593202.40625,P04,D07,0,0,0
2103,-5.0,59.0,25.0,1644593202.4375,P04,D07,0,0,0
2104,-5.0,59.0,25.0,1644593202.46875,P04,D07,0,0,0
2105,-5.0,59.0,25.0,1644593202.5,P04,D07,0,0,0
2106,-5.0,59.0,25.0,1644593202.53125,P04,D07,0,0,0
2107,-5.0,59.0,25.0,1644593202.5625,P04,D07,0,0,0
2108,-4.0,59.0,25.0,1644593202.59375,P04,D07,0,0,0
2109,-4.0,59.0,25.0,1644593202.625,P04,D07,0,0,0
2110,-4.0,59.0,25.0,1644593202.65625,P04,D07,0,0,0
2111,-5.0,59.0,25.0,1644593202.6875,P04,D07,0,0,0
2112,-4.0,59.0,25.0,1644593202.71875,P04,D07,0,0,0
2113,-4.0,59.0,25.0,1644593202.75,P04,D07,0,0,0
2114,-4.0,59.0,25.0,1644593202.78125,P04,D07,0,0,0
2115,-5.0,59.0,25.0,1644593202.8125,P04,D07,0,0,0
2116,-4.0,58.0,25.0,1644593202.84375,P04,D07,0,0,0
2117,-4.0,59.0,25.0,1644593202.875,P04,D07,0,0,0
2118,-5.0,59.0,25.0,1644593202.90625,P04,D07,0,0,0
2119,-4.0,59.0,24.0,1644593202.9375,P04,D07,0,0,0
2120,-5.0,59.0,25.0,1644593202.96875,P04,D07,0,0,0
2121,-5.0,59.0,25.0,1644593203.0,P04,D07,0,0,0
2122,-4.0,59.0,25.0,1644593203.03125,P04,D07,0,0,0
2123,-5.0,59.0,25.0,1644593203.0625,P04,D07,0,0,0
2124,-5.0,59.0,25.0,1644593203.09375,P04,D07,0,0,0
2125,-4.0,59.0,25.0,1644593203.125,P04,D07,0,0,0
2126,-5.0,59.0,25.0,1644593203.15625,P04,D07,0,0,0
2127,-5.0,59.0,25.0,1644593203.1875,P04,D07,0,0,0
2128,-5.0,59.0,25.0,1644593203.21875,P04,D07,0,0,0
2129,-5.0,59.0,25.0,1644593203.25,P04,D07,0,0,0
2130,-5.0,59.0,25.0,1644593203.28125,P04,D07,0,0,0
2131,-5.0,59.0,25.0,1644593203.3125,P04,D07,0,0,0
2132,-5.0,59.0,25.0,1644593203.34375,P04,D07,0,0,0
2133,-4.0,59.0,25.0,1644593203.375,P04,D07,0,0,0
2134,-5.0,59.0,25.0,1644593203.40625,P04,D07,0,0,0
2135,-5.0,59.0,24.0,1644593203.4375,P04,D07,0,0,0
2136,-5.0,59.0,24.0,1644593203.46875,P04,D07,0,0,0
2137,-5.0,59.0,25.0,1644593203.5,P04,D07,0,0,0
2138,-5.0,59.0,25.0,1644593203.53125,P04,D07,0,0,0
2139,-5.0,59.0,25.0,1644593203.5625,P04,D07,0,0,0
2140,-5.0,59.0,25.0,1644593203.59375,P04,D07,0,0,0
2141,-5.0,59.0,25.0,1644593203.625,P04,D07,0,0,0
2142,-5.0,59.0,25.0,1644593203.65625,P04,D07,0,0,0
2143,-5.0,59.0,25.0,1644593203.6875,P04,D07,0,0,0
2144,-5.0,59.0,24.0,1644593203.71875,P04,D07,0,0,0
2145,-5.0,59.0,25.0,1644593203.75,P04,D07,0,0,0
2146,-5.0,59.0,25.0,1644593203.78125,P04,D07,0,0,0
2147,-5.0,59.0,25.0,1644593203.8125,P04,D07,0,0,0
2148,-5.0,59.0,25.0,1644593203.84375,P04,D07,0,0,0
2149,-5.0,59.0,25.0,1644593203.875,P04,D07,0,0,0
2150,-5.0,59.0,25.0,1644593203.90625,P04,D07,0,0,0
2151,-5.0,59.0,24.0,1644593203.9375,P04,D07,0,0,0
2152,-5.0,59.0,25.0,1644593203.96875,P04,D07,0,0,0
2153,-5.0,59.0,24.0,1644593204.0,P04,D07,0,0,0
2154,-5.0,59.0,25.0,1644593204.03125,P04,D07,0,0,0
2155,-5.0,59.0,24.0,1644593204.0625,P04,D07,0,0,0
2156,-5.0,59.0,25.0,1644593204.09375,P04,D07,0,0,0
2157,-5.0,59.0,25.0,1644593204.125,P04,D07,0,0,0
2158,-5.0,59.0,24.0,1644593204.15625,P04,D07,0,0,0
2159,-5.0,59.0,24.0,1644593204.1875,P04,D07,0,0,0
2160,-5.0,59.0,24.0,1644593204.21875,P04,D07,0,0,0
2161,-4.0,59.0,24.0,1644593204.25,P04,D07,0,0,0
2162,-5.0,59.0,24.0,1644593204.28125,P04,D07,0,0,0
2163,-5.0,59.0,24.0,1644593204.3125,P04,D07,0,0,0
2164,-5.0,59.0,25.0,1644593204.34375,P04,D07,0,0,0
2165,-5.0,59.0,24.0,1644593204.375,P04,D07,0,0,0
2166,-5.0,59.0,24.0,1644593204.40625,P04,D07,0,0,0
2167,-5.0,59.0,24.0,1644593204.4375,P04,D07,0,0,0
2168,-5.0,59.0,24.0,1644593204.46875,P04,D07,0,0,0
2169,-5.0,59.0,24.0,1644593204.5,P04,D07,0,0,0
2170,-5.0,59.0,24.0,1644593204.53125,P04,D07,0,0,0
2171,-5.0,59.0,24.0,1644593204.5625,P04,D07,0,0,0
2172,-5.0,59.0,25.0,1644593204.59375,P04,D07,0,0,0
2173,-5.0,59.0,24.0,1644593204.625,P04,D07,0,0,0
2174,-5.0,59.0,24.0,1644593204.65625,P04,D07,0,0,0
2175,-5.0,59.0,24.0,1644593204.6875,P04,D07,0,0,0
2176,-5.0,59.0,24.0,1644593204.71875,P04,D07,0,0,0
2177,-5.0,59.0,24.0,1644593204.75,P04,D07,0,0,0
2178,-5.0,59.0,24.0,1644593204.78125,P04,D07,0,0,0
2179,-5.0,59.0,24.0,1644593204.8125,P04,D07,0,0,0
2180,-5.0,59.0,24.0,1644593204.84375,P04,D07,0,0,0
2181,-5.0,59.0,24.0,1644593204.875,P04,D07,0,0,0
2182,-5.0,59.0,24.0,1644593204.90625,P04,D07,0,0,0
2183,-5.0,59.0,24.0,1644593204.9375,P04,D07,0,0,0
2184,-6.0,59.0,24.0,1644593204.96875,P04,D07,0,0,0
2185,-5.0,59.0,24.0,1644593205.0,P04,D07,0,0,0
2186,-5.0,59.0,24.0,1644593205.03125,P04,D07,0,0,0
2187,-5.0,59.0,24.0,1644593205.0625,P04,D07,0,0,0
2188,-5.0,59.0,24.0,1644593205.09375,P04,D07,0,0,0
2189,-5.0,59.0,24.0,1644593205.125,P04,D07,0,0,0
2190,-5.0,59.0,24.0,1644593205.15625,P04,D07,0,0,0
2191,-5.0,59.0,24.0,1644593205.1875,P04,D07,0,0,0
2192,-5.0,59.0,24.0,1644593205.21875,P04,D07,0,0,0
2193,-5.0,59.0,24.0,1644593205.25,P04,D07,0,0,0
2194,-5.0,59.0,24.0,1644593205.28125,P04,D07,0,0,0
2195,-5.0,59.0,24.0,1644593205.3125,P04,D07,0,0,0
2196,-5.0,59.0,24.0,1644593205.34375,P04,D07,0,0,0
2197,-5.0,59.0,24.0,1644593205.375,P04,D07,0,0,0
2198,-5.0,59.0,24.0,1644593205.40625,P04,D07,0,0,0
2199,-5.0,59.0,24.0,1644593205.4375,P04,D07,0,0,0
2200,-5.0,59.0,24.0,1644593205.46875,P04,D07,0,0,0
2201,-5.0,59.0,24.0,1644593205.5,P04,D07,0,0,0
2202,-5.0,59.0,24.0,1644593205.53125,P04,D07,0,0,0
2203,-5.0,59.0,24.0,1644593205.5625,P04,D07,0,0,0
2204,-5.0,59.0,24.0,1644593205.59375,P04,D07,0,0,0
2205,-5.0,59.0,24.0,1644593205.625,P04,D07,0,0,0
2206,-5.0,59.0,24.0,1644593205.65625,P04,D07,0,0,0
2207,-5.0,59.0,24.0,1644593205.6875,P04,D07,0,0,0
2208,-5.0,59.0,24.0,1644593205.71875,P04,D07,0,0,0
2209,-5.0,59.0,24.0,1644593205.75,P04,D07,0,0,0
2210,-5.0,59.0,24.0,1644593205.78125,P04,D07,0,0,0
2211,-5.0,59.0,24.0,1644593205.8125,P04,D07,0,0,0
2212,-5.0,59.0,24.0,1644593205.84375,P04,D07,0,0,0
2213,-5.0,59.0,24.0,1644593205.875,P04,D07,0,0,0
2214,-5.0,59.0,24.0,1644593205.90625,P04,D07,0,0,0
2215,-5.0,59.0,24.0,1644593205.9375,P04,D07,0,0,0
2216,-5.0,59.0,24.0,1644593205.96875,P04,D07,0,0,0
2217,-5.0,59.0,24.0,1644593206.0,P04,D07,0,0,0
2218,-5.0,59.0,24.0,1644593206.03125,P04,D07,0,0,0
2219,-5.0,59.0,24.0,1644593206.0625,P04,D07,0,0,0
2220,-5.0,59.0,24.0,1644593206.09375,P04,D07,0,0,0
2221,-5.0,59.0,24.0,1644593206.125,P04,D07,0,0,0
2222,-5.0,59.0,24.0,1644593206.15625,P04,D07,0,0,0
2223,-5.0,59.0,24.0,1644593206.1875,P04,D07,0,0,0
2224,-5.0,59.0,24.0,1644593206.21875,P04,D07,0,0,0
2225,-5.0,59.0,24.0,1644593206.25,P04,D07,0,0,0
2226,-5.0,59.0,24.0,1644593206.28125,P04,D07,0,0,0
2227,-5.0,59.0,24.0,1644593206.3125,P04,D07,0,0,0
2228,-5.0,59.0,24.0,1644593206.34375,P04,D07,0,0,0
2229,-5.0,59.0,24.0,1644593206.375,P04,D07,0,0,0
2230,-5.0,59.0,24.0,1644593206.40625,P04,D07,0,0,0
2231,-5.0,59.0,24.0,1644593206.4375,P04,D07,0,0,0
2232,-5.0,59.0,24.0,1644593206.46875,P04,D07,0,0,0
2233,-5.0,59.0,24.0,1644593206.5,P04,D07,0,0,0
2234,-6.0,59.0,24.0,1644593206.53125,P04,D07,0,0,0
2235,-5.0,59.0,24.0,1644593206.5625,P04,D07,0,0,0
2236,-5.0,59.0,24.0,1644593206.59375,P04,D07,0,0,0
2237,-5.0,59.0,24.0,1644593206.625,P04,D07,0,0,0
2238,-5.0,59.0,24.0,1644593206.65625,P04,D07,0,0,0
2239,-5.0,59.0,24.0,1644593206.6875,P04,D07,0,0,0
2240,-6.0,59.0,24.0,1644593206.71875,P04,D07,0,0,0
2241,-5.0,59.0,24.0,1644593206.75,P04,D07,0,0,0
2242,-5.0,59.0,24.0,1644593206.78125,P04,D07,0,0,0
2243,-5.0,59.0,24.0,1644593206.8125,P04,D07,0,0,0
2244,-5.0,59.0,24.0,1644593206.84375,P04,D07,0,0,0
2245,-5.0,59.0,24.0,1644593206.875,P04,D07,0,0,0
2246,-5.0,59.0,24.0,1644593206.90625,P04,D07,0,0,0
2247,-5.0,59.0,24.0,1644593206.9375,P04,D07,0,0,0
2248,-5.0,59.0,24.0,1644593206.96875,P04,D07,0,0,0
2249,-5.0,59.0,24.0,1644593207.0,P04,D07,0,0,0
2250,-5.0,59.0,24.0,1644593207.03125,P04,D07,0,0,0
2251,-6.0,59.0,24.0,1644593207.0625,P04,D07,0,0,0
2252,-5.0,59.0,24.0,1644593207.09375,P04,D07,0,0,0
2253,-5.0,59.0,24.0,1644593207.125,P04,D07,0,0,0
2254,-5.0,59.0,24.0,1644593207.15625,P04,D07,0,0,0
2255,-5.0,59.0,24.0,1644593207.1875,P04,D07,0,0,0
2256,-5.0,59.0,24.0,1644593207.21875,P04,D07,0,0,0
2257,-5.0,59.0,24.0,1644593207.25,P04,D07,0,0,0
2258,-5.0,59.0,24.0,1644593207.28125,P04,D07,0,0,0
2259,-5.0,59.0,24.0,1644593207.3125,P04,D07,0,0,0
2260,-5.0,59.0,24.0,1644593207.34375,P04,D07,0,0,0
2261,-5.0,59.0,24.0,1644593207.375,P04,D07,0,0,0
2262,-5.0,59.0,24.0,1644593207.40625,P04,D07,0,0,0
2263,-5.0,59.0,24.0,1644593207.4375,P04,D07,0,0,0
2264,-5.0,59.0,24.0,1644593207.46875,P04,D07,0,0,0
2265,-5.0,59.0,24.0,1644593207.5,P04,D07,0,0,0
2266,-5.0,59.0,24.0,1644593207.53125,P04,D07,0,0,0
2267,-5.0,59.0,24.0,1644593207.5625,P04,D07,0,0,0
2268,-5.0,59.0,24.0,1644593207.59375,P04,D07,0,0,0
2269,-6.0,59.0,24.0,1644593207.625,P04,D07,0,0,0
2270,-5.0,59.0,24.0,1644593207.65625,P04,D07,0,0,0
2271,-5.0,59.0,24.0,1644593207.6875,P04,D07,0,0,0
2272,-5.0,59.0,24.0,1644593207.71875,P04,D07,0,0,0
2273,-5.0,59.0,24.0,1644593207.75,P04,D07,0,0,0
2274,-5.0,59.0,24.0,1644593207.78125,P04,D07,0,0,0
2275,-5.0,59.0,24.0,1644593207.8125,P04,D07,0,0,0
2276,-5.0,59.0,24.0,1644593207.84375,P04,D07,0,0,0
2277,-5.0,59.0,24.0,1644593207.875,P04,D07,0,0,0
2278,-5.0,59.0,24.0,1644593207.90625,P04,D07,0,0,0
2279,-5.0,59.0,24.0,1644593207.9375,P04,D07,0,0,0
2280,-5.0,59.0,24.0,1644593207.96875,P04,D07,0,0,0
2281,-5.0,59.0,24.0,1644593208.0,P04,D07,0,0,0
2282,-6.0,59.0,24.0,1644593208.03125,P04,D07,0,0,0
2283,-5.0,59.0,24.0,1644593208.0625,P04,D07,0,0,0
2284,-5.0,59.0,24.0,1644593208.09375,P04,D07,0,0,0
2285,-5.0,59.0,24.0,1644593208.125,P04,D07,0,0,0
2286,-5.0,59.0,24.0,1644593208.15625,P04,D07,0,0,0
2287,-5.0,59.0,24.0,1644593208.1875,P04,D07,0,0,0
2288,-5.0,59.0,24.0,1644593208.21875,P04,D07,0,0,0
2289,-5.0,59.0,24.0,1644593208.25,P04,D07,0,0,0
2290,-5.0,59.0,24.0,1644593208.28125,P04,D07,0,0,0
2291,-5.0,59.0,24.0,1644593208.3125,P04,D07,0,0,0
2292,-5.0,59.0,24.0,1644593208.34375,P04,D07,0,0,0
2293,-5.0,59.0,24.0,1644593208.375,P04,D07,0,0,0
2294,-5.0,59.0,24.0,1644593208.40625,P04,D07,0,0,0
2295,-5.0,59.0,24.0,1644593208.4375,P04,D07,0,0,0
2296,-5.0,59.0,24.0,1644593208.46875,P04,D07,0,0,0
2297,-5.0,59.0,24.0,1644593208.5,P04,D07,0,0,0
2298,-5.0,59.0,24.0,1644593208.53125,P04,D07,0,0,0
2299,-5.0,59.0,24.0,1644593208.5625,P04,D07,0,0,0
2300,-5.0,59.0,24.0,1644593208.59375,P04,D07,0,0,0
2301,-5.0,59.0,24.0,1644593208.625,P04,D07,0,0,0
2302,-5.0,59.0,24.0,1644593208.65625,P04,D07,0,0,0
2303,-5.0,59.0,24.0,1644593208.6875,P04,D07,0,0,0
2304,-5.0,59.0,24.0,1644593208.71875,P04,D07,0,0,0
2305,-5.0,59.0,24.0,1644593208.75,P04,D07,0,0,0
2306,-5.0,59.0,24.0,1644593208.78125,P04,D07,0,0,0
2307,-5.0,59.0,24.0,1644593208.8125,P04,D07,0,0,0
2308,-5.0,59.0,24.0,1644593208.84375,P04,D07,0,0,0
2309,-5.0,59.0,24.0,1644593208.875,P04,D07,0,0,0
2310,-5.0,59.0,24.0,1644593208.90625,P04,D07,0,0,0
2311,-5.0,59.0,24.0,1644593208.9375,P04,D07,0,0,0
2312,-5.0,59.0,24.0,1644593208.96875,P04,D07,0,0,0
2313,-5.0,59.0,24.0,1644593209.0,P04,D07,0,0,0
2314,-5.0,59.0,24.0,1644593209.03125,P04,D07,0,0,0
2315,-5.0,59.0,24.0,1644593209.0625,P04,D07,0,0,0
2316,-5.0,59.0,24.0,1644593209.09375,P04,D07,0,0,0
2317,-5.0,59.0,24.0,1644593209.125,P04,D07,0,0,0
2318,-5.0,59.0,24.0,1644593209.15625,P04,D07,0,0,0
2319,-5.0,59.0,24.0,1644593209.1875,P04,D07,0,0,0
2320,-5.0,59.0,24.0,1644593209.21875,P04,D07,0,0,0
2321,-5.0,59.0,24.0,1644593209.25,P04,D07,0,0,0
2322,-5.0,59.0,24.0,1644593209.28125,P04,D07,0,0,0
2323,-5.0,59.0,24.0,1644593209.3125,P04,D07,0,0,0
2324,-5.0,59.0,24.0,1644593209.34375,P04,D07,0,0,0
2325,-5.0,59.0,24.0,1644593209.375,P04,D07,0,0,0
2326,-5.0,59.0,24.0,1644593209.40625,P04,D07,0,0,0
2327,-5.0,59.0,24.0,1644593209.4375,P04,D07,0,0,0
2328,-5.0,59.0,24.0,1644593209.46875,P04,D07,0,0,0
2329,-5.0,59.0,24.0,1644593209.5,P04,D07,0,0,0
2330,-5.0,59.0,24.0,1644593209.53125,P04,D07,0,0,0
2331,-5.0,59.0,24.0,1644593209.5625,P04,D07,0,0,0
2332,-5.0,59.0,24.0,1644593209.59375,P04,D07,0,0,0
2333,-5.0,59.0,24.0,1644593209.625,P04,D07,0,0,0
2334,-5.0,59.0,24.0,1644593209.65625,P04,D07,0,0,0
2335,-5.0,59.0,24.0,1644593209.6875,P04,D07,0,0,0
2336,-5.0,59.0,24.0,1644593209.71875,P04,D07,0,0,0
2337,-5.0,59.0,24.0,1644593209.75,P04,D07,0,0,0
2338,-5.0,59.0,24.0,1644593209.78125,P04,D07,0,0,0
2339,-5.0,59.0,24.0,1644593209.8125,P04,D07,0,0,0
2340,-5.0,59.0,24.0,1644593209.84375,P04,D07,0,0,0
2341,-5.0,59.0,24.0,1644593209.875,P04,D07,0,0,0
2342,-5.0,59.0,24.0,1644593209.90625,P04,D07,0,0,0
2343,-5.0,59.0,24.0,1644593209.9375,P04,D07,0,0,0
2344,-5.0,59.0,25.0,1644593209.96875,P04,D07,0,0,0
2345,-5.0,59.0,24.0,1644593210.0,P04,D07,0,0,0
2346,-5.0,59.0,24.0,1644593210.03125,P04,D07,0,0,0
2347,-5.0,59.0,24.0,1644593210.0625,P04,D07,0,0,0
2348,-5.0,59.0,24.0,1644593210.09375,P04,D07,0,0,0
2349,-5.0,59.0,24.0,1644593210.125,P04,D07,0,0,0
2350,-5.0,59.0,24.0,1644593210.15625,P04,D07,0,0,0
2351,-5.0,59.0,24.0,1644593210.1875,P04,D07,0,0,0
2352,-5.0,59.0,24.0,1644593210.21875,P04,D07,0,0,0
2353,-5.0,59.0,24.0,1644593210.25,P04,D07,0,0,0
2354,-5.0,59.0,24.0,1644593210.28125,P04,D07,0,0,0
2355,-5.0,59.0,24.0,1644593210.3125,P04,D07,0,0,0
2356,-5.0,59.0,24.0,1644593210.34375,P04,D07,0,0,0
2357,-5.0,59.0,24.0,1644593210.375,P04,D07,0,0,0
2358,-5.0,59.0,24.0,1644593210.40625,P04,D07,0,0,0
2359,-5.0,59.0,24.0,1644593210.4375,P04,D07,0,0,0
2360,-5.0,59.0,24.0,1644593210.46875,P04,D07,0,0,0
2361,-5.0,59.0,24.0,1644593210.5,P04,D07,0,0,0
2362,-5.0,59.0,24.0,1644593210.53125,P04,D07,0,0,0
2363,-5.0,59.0,24.0,1644593210.5625,P04,D07,0,0,0
2364,-5.0,59.0,24.0,1644593210.59375,P04,D07,0,0,0
2365,-5.0,59.0,24.0,1644593210.625,P04,D07,0,0,0
2366,-5.0,59.0,24.0,1644593210.65625,P04,D07,0,0,0
2367,-5.0,59.0,24.0,1644593210.6875,P04,D07,0,0,0
2368,-5.0,59.0,24.0,1644593210.71875,P04,D07,0,0,0
2369,-5.0,59.0,24.0,1644593210.75,P04,D07,0,0,0
2370,-5.0,59.0,24.0,1644593210.78125,P04,D07,0,0,0
2371,-5.0,59.0,24.0,1644593210.8125,P04,D07,0,0,0
2372,-5.0,59.0,24.0,1644593210.84375,P04,D07,0,0,0
2373,-5.0,59.0,24.0,1644593210.875,P04,D07,0,0,0
2374,-5.0,59.0,24.0,1644593210.90625,P04,D07,0,0,0
2375,-5.0,59.0,24.0,1644593210.9375,P04,D07,0,0,0
2376,-5.0,59.0,24.0,1644593210.96875,P04,D07,0,0,0
2377,-5.0,59.0,24.0,1644593211.0,P04,D07,0,0,0
2378,-5.0,59.0,24.0,1644593211.03125,P04,D07,0,0,0
2379,-5.0,59.0,24.0,1644593211.0625,P04,D07,0,0,0
2380,-5.0,59.0,24.0,1644593211.09375,P04,D07,0,0,0
2381,-5.0,59.0,24.0,1644593211.125,P04,D07,0,0,0
2382,-5.0,59.0,24.0,1644593211.15625,P04,D07,0,0,0
2383,-5.0,59.0,24.0,1644593211.1875,P04,D07,0,0,0
2384,-5.0,59.0,24.0,1644593211.21875,P04,D07,0,0,0
2385,-5.0,59.0,24.0,1644593211.25,P04,D07,0,0,0
2386,-5.0,59.0,25.0,1644593211.28125,P04,D07,0,0,0
2387,-5.0,59.0,24.0,1644593211.3125,P04,D07,0,0,0
2388,-4.0,59.0,24.0,1644593211.34375,P04,D07,0,0,0
2389,-5.0,59.0,24.0,1644593211.375,P04,D07,0,0,0
2390,-5.0,59.0,24.0,1644593211.40625,P04,D07,0,0,0
2391,-5.0,59.0,24.0,1644593211.4375,P04,D07,0,0,0
2392,-5.0,59.0,24.0,1644593211.46875,P04,D07,0,0,0
2393,-5.0,59.0,24.0,1644593211.5,P04,D07,0,0,0
2394,-5.0,59.0,25.0,1644593211.53125,P04,D07,0,0,0
2395,-4.0,59.0,24.0,1644593211.5625,P04,D07,0,0,0
2396,-5.0,59.0,25.0,1644593211.59375,P04,D07,0,0,0
2397,-5.0,59.0,24.0,1644593211.625,P04,D07,0,0,0
2398,-5.0,59.0,25.0,1644593211.65625,P04,D07,0,0,0
2399,-5.0,59.0,24.0,1644593211.6875,P04,D07,0,0,0
2400,-5.0,59.0,24.0,1644593211.71875,P04,D07,0,0,0
2401,-5.0,59.0,24.0,1644593211.75,P04,D07,0,0,0
2402,-5.0,59.0,24.0,1644593211.78125,P04,D07,0,0,0
2403,-5.0,59.0,24.0,1644593211.8125,P04,D07,0,0,0
2404,-4.0,59.0,24.0,1644593211.84375,P04,D07,0,0,0
2405,-5.0,59.0,24.0,1644593211.875,P04,D07,0,0,0
2406,-5.0,59.0,25.0,1644593211.90625,P04,D07,0,0,0
2407,-4.0,59.0,24.0,1644593211.9375,P04,D07,0,0,0
2408,-5.0,59.0,24.0,1644593211.96875,P04,D07,0,0,0
2409,-5.0,59.0,25.0,1644593212.0,P04,D07,0,0,0
2410,-5.0,59.0,24.0,1644593212.03125,P04,D07,0,0,0
2411,-5.0,59.0,24.0,1644593212.0625,P04,D07,0,0,0
2412,-5.0,59.0,25.0,1644593212.09375,P04,D07,0,0,0
2413,-4.0,59.0,24.0,1644593212.125,P04,D07,0,0,0
2414,-5.0,59.0,24.0,1644593212.15625,P04,D07,0,0,0
2415,-5.0,59.0,24.0,1644593212.1875,P04,D07,0,0,0
2416,-4.0,59.0,25.0,1644593212.21875,P04,D07,0,0,0
