,acc_x,acc_y,acc_z,timestamp,participant,document,val,arou,eng
0,51.0,-7.0,35.0,1644591668.53125,P04,D04,0,0,0
1,50.0,-7.0,35.0,1644591668.5625,P04,D04,0,0,0
2,50.0,-7.0,35.0,1644591668.59375,P04,D04,0,0,0
3,50.0,-6.0,35.0,1644591668.625,P04,D04,0,0,0
4,50.0,-6.0,36.0,1644591668.65625,P04,D04,0,0,0
5,50.0,-6.0,36.0,1644591668.6875,P04,D04,0,0,0
6,50.0,-6.0,35.0,1644591668.71875,P04,D04,0,0,0
7,51.0,-6.0,36.0,1644591668.75,P04,D04,0,0,0
8,50.0,-7.0,36.0,1644591668.78125,P04,D04,0,0,0
9,50.0,-6.0,36.0,1644591668.8125,P04,D04,0,0,0
10,50.0,-6.0,36.0,1644591668.84375,P04,D04,0,0,0
11,50.0,-6.0,36.0,1644591668.875,P04,D04,0,0,0
12,50.0,-6.0,36.0,1644591668.90625,P04,D04,0,0,0
13,50.0,-6.0,35.0,1644591668.9375,P04,D04,0,0,0
14,50.0,-6.0,35.0,1644591668.96875,P04,D04,0,0,0
15,50.0,-6.0,36.0,1644591669.0,P04,D04,0,0,0
16,50.0,-6.0,36.0,1644591669.03125,P04,D04,0,0,0
17,50.0,-6.0,36.0,1644591669.0625,P04,D04,0,0,0
18,50.0,-6.0,36.0,1644591669.09375,P04,D04,0,0,0
19,50.0,-6.0,35.0,1644591669.125,P04,D04,0,0,0
20,51.0,-6.0,36.0,1644591669.15625,P04,D04,0,0,0
21,50.0,-6.0,36.0,1644591669.1875,P04,D04,0,0,0
22,51.0,-7.0,36.0,1644591669.21875,P04,D04,0,0,0
23,51.0,-7.0,36.0,1644591669.25,P04,D04,0,0,0
24,49.0,-6.0,36.0,1644591669.28125,P04,D04,0,0,0
25,50.0,-6.0,36.0,1644591669.3125,P04,D04,0,0,0
26,50.0,-6.0,36.0,1644591669.34375,P04,D04,0,0,0
27,50.0,-6.0,36.0,1644591669.375,P04,D04,0,0,0
28,50.0,-6.0,36.0,1644591669.40625,P04,D04,0,0,0
29,50.0,-6.0,36.0,1644591669.4375,P04,D04,0,0,0
30,50.0,-6.0,36.0,1644591669.46875,P04,D04,0,0,0
31,50.0,-6.0,36.0,1644591669.5,P04,D04,0,0,0
32,50.0,-6.0,36.0,1644591669.53125,P04,D04,0,0,0
33,50.0,-6.0,36.0,1644591669.5625,P04,D04,0,0,0
34,50.0,-6.0,36.0,1644591669.59375,P04,D04,0,0,0
35,50.0,-6.0,36.0,1644591669.625,P04,D04,0,0,0
36,50.0,-6.0,36.0,1644591669.65625,P04,D04,0,0,0
37,50.0,-6.0,36.0,1644591669.6875,P04,D04,0,0,0
38,50.0,-6.0,36.0,1644591669.71875,P04,D04,0,0,0
39,50.0,-6.0,36.0,1644591669.75,P04,D04,0,0,0
40,50.0,-6.0,36.0,1644591669.78125,P04,D04,0,0,0
41,50.0,-6.0,36.0,1644591669.8125,P04,D04,0,0,0
42,50.0,-6.0,36.0,1644591669.84375,P04,D04,0,0,0
43,50.0,-6.0,36.0,1644591669.875,P04,D04,0,0,0
44,50.0,-7.0,36.0,1644591669.90625,P04,D04,0,0,0
45,50.0,-6.0,36.0,1644591669.9375,P04,D04,0,0,0
46,50.0,-7.0,36.0,1644591669.96875,P04,D04,0,0,0
47,50.0,-6.0,36.0,1644591670.0,P04,D04,0,0,0
48,50.0,-6.0,36.0,1644591670.03125,P04,D04,0,0,0
49,50.0,-6.0,35.0,1644591670.0625,P04,D04,0,0,0
50,50.0,-6.0,36.0,1644591670.09375,P04,D04,0,0,0
51,50.0,-6.0,36.0,1644591670.125,P04,D04,0,0,0
52,50.0,-6.0,36.0,1644591670.15625,P04,D04,0,0,0
53,50.0,-6.0,36.0,1644591670.1875,P04,D04,0,0,0
54,50.0,-6.0,36.0,1644591670.21875,P04,D04,0,0,0
55,50.0,-6.0,36.0,1644591670.25,P04,D04,0,0,0
56,50.0,-7.0,36.0,1644591670.28125,P04,D04,0,0,0
57,50.0,-6.0,36.0,1644591670.3125,P04,D04,0,0,0
58,50.0,-6.0,36.0,1644591670.34375,P04,D04,0,0,0
59,50.0,-6.0,36.0,1644591670.375,P04,D04,0,0,0
60,50.0,-6.0,36.0,1644591670.40625,P04,D04,0,0,0
61,50.0,-6.0,35.0,1644591670.4375,P04,D04,0,0,0
62,49.0,-6.0,35.0,1644591670.46875,P04,D04,0,0,0
63,51.0,-6.0,35.0,1644591670.5,P04,D04,0,0,0
64,50.0,-6.0,36.0,1644591670.53125,P04,D04,0,0,0
65,51.0,-5.0,36.0,1644591670.5625,P04,D04,0,0,0
66,52.0,-4.0,36.0,1644591670.59375,P04,D04,0,0,0
67,52.0,-5.0,36.0,1644591670.625,P04,D04,0,0,0
68,51.0,-6.0,35.0,1644591670.65625,P04,D04,0,0,0
69,52.0,-7.0,34.0,1644591670.6875,P04,D04,0,0,0
70,52.0,-8.0,33.0,1644591670.71875,P04,D04,0,0,0
71,51.0,-8.0,34.0,1644591670.75,P04,D04,0,0,0
72,51.0,-8.0,34.0,1644591670.78125,P04,D04,0,0,0
73,50.0,-9.0,35.0,1644591670.8125,P04,D04,0,0,0
74,50.0,-9.0,35.0,1644591670.84375,P04,D04,0,0,0
75,48.0,-10.0,35.0,1644591670.875,P04,D04,0,0,0
76,48.0,-10.0,35.0,1644591670.90625,P04,D04,0,0,0
77,48.0,-10.0,35.0,1644591670.9375,P04,D04,0,0,0
78,49.0,-10.0,35.0,1644591670.96875,P04,D04,0,0,0
79,52.0,-9.0,34.0,1644591671.0,P04,D04,0,0,0
80,52.0,-8.0,33.0,1644591671.03125,P04,D04,0,0,0
81,53.0,-7.0,34.0,1644591671.0625,P04,D04,0,0,0
82,55.0,-7.0,35.0,1644591671.09375,P04,D04,0,0,0
83,54.0,-7.0,33.0,1644591671.125,P04,D04,0,0,0
84,53.0,-9.0,31.0,1644591671.15625,P04,D04,0,0,0
85,53.0,-9.0,31.0,1644591671.1875,P04,D04,0,0,0
86,53.0,-10.0,31.0,1644591671.21875,P04,D04,0,0,0
87,53.0,-10.0,31.0,1644591671.25,P04,D04,0,0,0
88,51.0,-9.0,31.0,1644591671.28125,P04,D04,0,0,0
89,52.0,-9.0,31.0,1644591671.3125,P04,D04,0,0,0
90,53.0,-8.0,33.0,1644591671.34375,P04,D04,0,0,0
91,52.0,-7.0,34.0,1644591671.375,P04,D04,0,0,0
92,50.0,-8.0,35.0,1644591671.40625,P04,D04,0,0,0
93,51.0,-9.0,35.0,1644591671.4375,P04,D04,0,0,0
94,52.0,-9.0,34.0,1644591671.46875,P04,D04,0,0,0
95,52.0,-9.0,32.0,1644591671.5,P04,D04,0,0,0
96,53.0,-9.0,32.0,1644591671.53125,P04,D04,0,0,0
97,53.0,-9.0,31.0,1644591671.5625,P04,D04,0,0,0
98,53.0,-9.0,32.0,1644591671.59375,P04,D04,0,0,0
99,53.0,-9.0,31.0,1644591671.625,P04,D04,0,0,0
100,53.0,-9.0,31.0,1644591671.65625,P04,D04,0,0,0
101,52.0,-9.0,33.0,1644591671.6875,P04,D04,0,0,0
102,52.0,-9.0,34.0,1644591671.71875,P04,D04,0,0,0
103,50.0,-9.0,35.0,1644591671.75,P04,D04,0,0,0
104,49.0,-9.0,35.0,1644591671.78125,P04,D04,0,0,0
105,50.0,-10.0,35.0,1644591671.8125,P04,D04,0,0,0
106,51.0,-9.0,34.0,1644591671.84375,P04,D04,0,0,0
107,52.0,-8.0,33.0,1644591671.875,P04,D04,0,0,0
108,50.0,-7.0,32.0,1644591671.90625,P04,D04,0,0,0
109,50.0,-8.0,33.0,1644591671.9375,P04,D04,0,0,0
110,51.0,-10.0,34.0,1644591671.96875,P04,D04,0,0,0
111,51.0,-10.0,33.0,1644591672.0,P04,D04,0,0,0
112,52.0,-10.0,33.0,1644591672.03125,P04,D04,0,0,0
113,52.0,-11.0,34.0,1644591672.0625,P04,D04,0,0,0
114,51.0,-10.0,35.0,1644591672.09375,P04,D04,0,0,0
115,50.0,-11.0,35.0,1644591672.125,P04,D04,0,0,0
116,51.0,-11.0,34.0,1644591672.15625,P04,D04,0,0,0
117,51.0,-10.0,34.0,1644591672.1875,P04,D04,0,0,0
118,51.0,-10.0,34.0,1644591672.21875,P04,D04,0,0,0
119,51.0,-10.0,34.0,1644591672.25,P04,D04,0,0,0
120,51.0,-10.0,33.0,1644591672.28125,P04,D04,0,0,0
121,51.0,-10.0,34.0,1644591672.3125,P04,D04,0,0,0
122,51.0,-10.0,34.0,1644591672.34375,P04,D04,0,0,0
123,50.0,-9.0,34.0,1644591672.375,P04,D04,0,0,0
124,50.0,-9.0,34.0,1644591672.40625,P04,D04,0,0,0
125,51.0,-9.0,34.0,1644591672.4375,P04,D04,0,0,0
126,51.0,-9.0,34.0,1644591672.46875,P04,D04,0,0,0
127,51.0,-10.0,34.0,1644591672.5,P04,D04,0,0,0
128,51.0,-10.0,33.0,1644591672.53125,P04,D04,0,0,0
129,51.0,-10.0,33.0,1644591672.5625,P04,D04,0,0,0
130,52.0,-9.0,33.0,1644591672.59375,P04,D04,0,0,0
131,52.0,-9.0,33.0,1644591672.625,P04,D04,0,0,0
132,52.0,-8.0,33.0,1644591672.65625,P04,D04,0,0,0
133,51.0,-8.0,33.0,1644591672.6875,P04,D04,0,0,0
134,52.0,-9.0,34.0,1644591672.71875,P04,D04,0,0,0
135,51.0,-10.0,34.0,1644591672.75,P04,D04,0,0,0
136,51.0,-10.0,34.0,1644591672.78125,P04,D04,0,0,0
137,51.0,-10.0,33.0,1644591672.8125,P04,D04,0,0,0
138,51.0,-10.0,33.0,1644591672.84375,P04,D04,0,0,0
139,51.0,-9.0,33.0,1644591672.875,P04,D04,0,0,0
140,51.0,-9.0,33.0,1644591672.90625,P04,D04,0,0,0
141,52.0,-9.0,34.0,1644591672.9375,P04,D04,0,0,0
142,51.0,-9.0,34.0,1644591672.96875,P04,D04,0,0,0
143,51.0,-9.0,34.0,1644591673.0,P04,D04,0,0,0
144,52.0,-9.0,33.0,1644591673.03125,P04,D04,0,0,0
145,51.0,-9.0,33.0,1644591673.0625,P04,D04,0,0,0
146,51.0,-9.0,33.0,1644591673.09375,P04,D04,0,0,0
147,51.0,-9.0,34.0,1644591673.125,P04,D04,0,0,0
148,51.0,-9.0,34.0,1644591673.15625,P04,D04,0,0,0
149,51.0,-9.0,34.0,1644591673.1875,P04,D04,0,0,0
150,50.0,-10.0,34.0,1644591673.21875,P04,D04,0,0,0
151,50.0,-9.0,34.0,1644591673.25,P04,D04,0,0,0
152,51.0,-9.0,34.0,1644591673.28125,P04,D04,0,0,0
153,52.0,-9.0,34.0,1644591673.3125,P04,D04,0,0,0
154,51.0,-9.0,34.0,1644591673.34375,P04,D04,0,0,0
155,52.0,-9.0,34.0,1644591673.375,P04,D04,0,0,0
156,51.0,-9.0,33.0,1644591673.40625,P04,D04,0,0,0
157,51.0,-9.0,34.0,1644591673.4375,P04,D04,0,0,0
158,51.0,-9.0,33.0,1644591673.46875,P04,D04,0,0,0
159,51.0,-9.0,34.0,1644591673.5,P04,D04,0,0,0
160,51.0,-9.0,33.0,1644591673.53125,P04,D04,0,0,0
161,52.0,-9.0,33.0,1644591673.5625,P04,D04,0,0,0
162,51.0,-9.0,34.0,1644591673.59375,P04,D04,0,0,0
163,51.0,-9.0,34.0,1644591673.625,P04,D04,0,0,0
164,51.0,-10.0,34.0,1644591673.65625,P04,D04,0,0,0
165,51.0,-10.0,33.0,1644591673.6875,P04,D04,0,0,0
166,51.0,-10.0,34.0,1644591673.71875,P04,D04,0,0,0
167,51.0,-9.0,33.0,1644591673.75,P04,D04,0,0,0
168,51.0,-9.0,33.0,1644591673.78125,P04,D04,0,0,0
169,51.0,-9.0,33.0,1644591673.8125,P04,D04,0,0,0
170,51.0,-9.0,34.0,1644591673.84375,P04,D04,0,0,0
171,51.0,-9.0,33.0,1644591673.875,P04,D04,0,0,0
172,51.0,-9.0,33.0,1644591673.90625,P04,D04,0,0,0
173,51.0,-9.0,34.0,1644591673.9375,P04,D04,0,0,0
174,51.0,-10.0,33.0,1644591673.96875,P04,D04,0,0,0
175,51.0,-9.0,33.0,1644591674.0,P04,D04,0,0,0
176,51.0,-10.0,34.0,1644591674.03125,P04,D04,0,0,0
177,51.0,-10.0,34.0,1644591674.0625,P04,D04,0,0,0
178,51.0,-10.0,34.0,1644591674.09375,P04,D04,0,0,0
179,51.0,-9.0,34.0,1644591674.125,P04,D04,0,0,0
180,51.0,-10.0,33.0,1644591674.15625,P04,D04,0,0,0
181,52.0,-10.0,34.0,1644591674.1875,P04,D04,0,0,0
182,51.0,-9.0,33.0,1644591674.21875,P04,D04,0,0,0
183,50.0,-9.0,33.0,1644591674.25,P04,D04,0,0,0
184,51.0,-9.0,34.0,1644591674.28125,P04,D04,0,0,0
185,51.0,-9.0,34.0,1644591674.3125,P04,D04,0,0,0
186,51.0,-9.0,34.0,1644591674.34375,P04,D04,0,0,0
187,51.0,-9.0,33.0,1644591674.375,P04,D04,0,0,0
188,52.0,-9.0,34.0,1644591674.40625,P04,D04,0,0,0
189,52.0,-9.0,34.0,1644591674.4375,P04,D04,0,0,0
190,51.0,-9.0,34.0,1644591674.46875,P04,D04,0,0,0
191,51.0,-10.0,33.0,1644591674.5,P04,D04,0,0,0
192,51.0,-9.0,33.0,1644591674.53125,P04,D04,0,0,0
193,52.0,-9.0,34.0,1644591674.5625,P04,D04,0,0,0
194,51.0,-9.0,34.0,1644591674.59375,P04,D04,0,0,0
195,51.0,-9.0,33.0,1644591674.625,P04,D04,0,0,0
196,52.0,-9.0,34.0,1644591674.65625,P04,D04,0,0,0
197,52.0,-9.0,34.0,1644591674.6875,P04,D04,0,0,0
198,51.0,-9.0,34.0,1644591674.71875,P04,D04,0,0,0
199,51.0,-9.0,34.0,1644591674.75,P04,D04,0,0,0
200,51.0,-9.0,34.0,1644591674.78125,P04,D04,0,0,0
201,51.0,-9.0,34.0,1644591674.8125,P04,D04,0,0,0
202,51.0,-9.0,33.0,1644591674.84375,P04,D04,0,0,0
203,51.0,-9.0,33.0,1644591674.875,P04,D04,0,0,0
204,51.0,-9.0,34.0,1644591674.90625,P04,D04,0,0,0
205,51.0,-9.0,34.0,1644591674.9375,P04,D04,0,0,0
206,51.0,-9.0,34.0,1644591674.96875,P04,D04,0,0,0
207,51.0,-9.0,34.0,1644591675.0,P04,D04,0,0,0
208,51.0,-9.0,34.0,1644591675.03125,P04,D04,0,0,0
209,51.0,-9.0,34.0,1644591675.0625,P04,D04,0,0,0
210,51.0,-9.0,33.0,1644591675.09375,P04,D04,0,0,0
211,51.0,-10.0,34.0,1644591675.125,P04,D04,0,0,0
212,51.0,-9.0,34.0,1644591675.15625,P04,D04,0,0,0
213,51.0,-9.0,34.0,1644591675.1875,P04,D04,0,0,0
214,51.0,-9.0,34.0,1644591675.21875,P04,D04,0,0,0
215,51.0,-9.0,34.0,1644591675.25,P04,D04,0,0,0
216,51.0,-9.0,34.0,1644591675.28125,P04,D04,0,0,0
217,51.0,-9.0,34.0,1644591675.3125,P04,D04,0,0,0
218,51.0,-9.0,34.0,1644591675.34375,P04,D04,0,0,0
219,51.0,-9.0,34.0,1644591675.375,P04,D04,0,0,0
220,51.0,-9.0,34.0,1644591675.40625,P04,D04,0,0,0
221,51.0,-9.0,34.0,1644591675.4375,P04,D04,0,0,0
222,51.0,-9.0,33.0,1644591675.46875,P04,D04,0,0,0
223,51.0,-9.0,34.0,1644591675.5,P04,D04,0,0,0
224,51.0,-9.0,34.0,1644591675.53125,P04,D04,0,0,0
225,51.0,-9.0,34.0,1644591675.5625,P04,D04,0,0,0
226,51.0,-9.0,34.0,1644591675.59375,P04,D04,0,0,0
227,51.0,-9.0,34.0,1644591675.625,P04,D04,0,0,0
228,51.0,-9.0,34.0,1644591675.65625,P04,D04,0,0,0
229,51.0,-9.0,34.0,1644591675.6875,P04,D04,0,0,0
230,51.0,-9.0,34.0,1644591675.71875,P04,D04,0,0,0
231,51.0,-9.0,34.0,1644591675.75,P04,D04,0,0,0
232,51.0,-9.0,34.0,1644591675.78125,P04,D04,0,0,0
233,51.0,-9.0,34.0,1644591675.8125,P04,D04,0,0,0
234,51.0,-9.0,34.0,1644591675.84375,P04,D04,0,0,0
235,51.0,-9.0,34.0,1644591675.875,P04,D04,0,0,0
236,51.0,-9.0,34.0,1644591675.90625,P04,D04,0,0,0
237,51.0,-9.0,34.0,1644591675.9375,P04,D04,0,0,0
238,51.0,-9.0,34.0,1644591675.96875,P04,D04,0,0,0
239,51.0,-9.0,33.0,1644591676.0,P04,D04,0,0,0
240,51.0,-9.0,34.0,1644591676.03125,P04,D04,0,0,0
241,51.0,-9.0,34.0,1644591676.0625,P04,D04,0,0,0
242,51.0,-9.0,34.0,1644591676.09375,P04,D04,0,0,0
243,51.0,-9.0,34.0,1644591676.125,P04,D04,0,0,0
244,51.0,-9.0,33.0,1644591676.15625,P04,D04,0,0,0
245,51.0,-9.0,33.0,1644591676.1875,P04,D04,0,0,0
246,51.0,-9.0,34.0,1644591676.21875,P04,D04,0,0,0
247,51.0,-9.0,34.0,1644591676.25,P04,D04,0,0,0
248,51.0,-9.0,34.0,1644591676.28125,P04,D04,0,0,0
249,51.0,-9.0,34.0,1644591676.3125,P04,D04,0,0,0
250,51.0,-9.0,34.0,1644591676.34375,P04,D04,0,0,0
251,51.0,-9.0,34.0,1644591676.375,P04,D04,0,0,0
252,51.0,-9.0,34.0,1644591676.40625,P04,D04,0,0,0
253,51.0,-9.0,34.0,1644591676.4375,P04,D04,0,0,0
254,51.0,-9.0,34.0,1644591676.46875,P04,D04,0,0,0
255,51.0,-9.0,33.0,1644591676.5,P04,D04,0,0,0
256,51.0,-9.0,34.0,1644591676.53125,P04,D04,0,0,0
257,51.0,-9.0,33.0,1644591676.5625,P04,D04,0,0,0
258,51.0,-9.0,33.0,1644591676.59375,P04,D04,0,0,0
259,51.0,-9.0,33.0,1644591676.625,P04,D04,0,0,0
260,51.0,-9.0,34.0,1644591676.65625,P04,D04,0,0,0
261,51.0,-9.0,34.0,1644591676.6875,P04,D04,0,0,0
262,51.0,-9.0,34.0,1644591676.71875,P04,D04,0,0,0
263,51.0,-9.0,34.0,1644591676.75,P04,D04,0,0,0
264,51.0,-9.0,34.0,1644591676.78125,P04,D04,0,0,0
265,51.0,-9.0,34.0,1644591676.8125,P04,D04,0,0,0
266,51.0,-9.0,33.0,1644591676.84375,P04,D04,0,0,0
267,51.0,-9.0,33.0,1644591676.875,P04,D04,0,0,0
268,51.0,-9.0,34.0,1644591676.90625,P04,D04,0,0,0
269,51.0,-9.0,34.0,1644591676.9375,P04,D04,0,0,0
270,51.0,-9.0,34.0,1644591676.96875,P04,D04,0,0,0
271,51.0,-9.0,34.0,1644591677.0,P04,D04,0,0,0
272,51.0,-9.0,33.0,1644591677.03125,P04,D04,0,0,0
273,51.0,-9.0,34.0,1644591677.0625,P04,D04,0,0,0
274,51.0,-9.0,33.0,1644591677.09375,P04,D04,0,0,0
275,52.0,-9.0,33.0,1644591677.125,P04,D04,0,0,0
276,52.0,-9.0,33.0,1644591677.15625,P04,D04,0,0,0
277,51.0,-9.0,34.0,1644591677.1875,P04,D04,0,0,0
278,52.0,-9.0,34.0,1644591677.21875,P04,D04,0,0,0
279,51.0,-9.0,33.0,1644591677.25,P04,D04,0,0,0
280,51.0,-9.0,34.0,1644591677.28125,P04,D04,0,0,0
281,51.0,-9.0,34.0,1644591677.3125,P04,D04,0,0,0
282,51.0,-9.0,34.0,1644591677.34375,P04,D04,0,0,0
283,51.0,-9.0,34.0,1644591677.375,P04,D04,0,0,0
284,51.0,-9.0,33.0,1644591677.40625,P04,D04,0,0,0
285,51.0,-9.0,34.0,1644591677.4375,P04,D04,0,0,0
286,51.0,-9.0,34.0,1644591677.46875,P04,D04,0,0,0
287,51.0,-9.0,34.0,1644591677.5,P04,D04,0,0,0
288,51.0,-9.0,33.0,1644591677.53125,P04,D04,0,0,0
289,51.0,-9.0,33.0,1644591677.5625,P04,D04,0,0,0
290,51.0,-9.0,34.0,1644591677.59375,P04,D04,0,0,0
291,51.0,-9.0,34.0,1644591677.625,P04,D04,0,0,0
292,51.0,-9.0,34.0,1644591677.65625,P04,D04,0,0,0
293,51.0,-9.0,34.0,1644591677.6875,P04,D04,0,0,0
294,51.0,-9.0,34.0,1644591677.71875,P04,D04,0,0,0
295,51.0,-9.0,34.0,1644591677.75,P04,D04,0,0,0
296,51.0,-9.0,33.0,1644591677.78125,P04,D04,0,0,0
297,51.0,-9.0,33.0,1644591677.8125,P04,D04,0,0,0
298,51.0,-9.0,34.0,1644591677.84375,P04,D04,0,0,0
299,51.0,-9.0,33.0,1644591677.875,P04,D04,0,0,0
300,51.0,-9.0,33.0,1644591677.90625,P04,D04,0,0,0
301,52.0,-9.0,34.0,1644591677.9375,P04,D04,0,0,0
302,52.0,-9.0,34.0,1644591677.96875,P04,D04,0,0,0
303,51.0,-9.0,34.0,1644591678.0,P04,D04,0,0,0
304,51.0,-9.0,34.0,1644591678.03125,P04,D04,0,0,0
305,52.0,-9.0,33.0,1644591678.0625,P04,D04,0,0,0
306,51.0,-9.0,33.0,1644591678.09375,P04,D04,0,0,0
307,51.0,-9.0,34.0,1644591678.125,P04,D04,0,0,0
308,52.0,-9.0,34.0,1644591678.15625,P04,D04,0,0,0
309,51.0,-9.0,33.0,1644591678.1875,P04,D04,0,0,0
310,52.0,-9.0,33.0,1644591678.21875,P04,D04,0,0,0
311,52.0,-9.0,33.0,1644591678.25,P04,D04,0,0,0
312,51.0,-9.0,33.0,1644591678.28125,P04,D04,0,0,0
313,52.0,-9.0,34.0,1644591678.3125,P04,D04,0,0,0
314,51.0,-9.0,34.0,1644591678.34375,P04,D04,0,0,0
315,51.0,-9.0,34.0,1644591678.375,P04,D04,0,0,0
316,52.0,-9.0,34.0,1644591678.40625,P04,D04,0,0,0
317,51.0,-9.0,34.0,1644591678.4375,P04,D04,0,0,0
318,51.0,-9.0,34.0,1644591678.46875,P04,D04,0,0,0
319,51.0,-9.0,33.0,1644591678.5,P04,D04,0,0,0
320,51.0,-9.0,34.0,1644591678.53125,P04,D04,0,0,0
321,51.0,-9.0,33.0,1644591678.5625,P04,D04,0,0,0
322,52.0,-9.0,34.0,1644591678.59375,P04,D04,0,0,0
323,51.0,-9.0,33.0,1644591678.625,P04,D04,0,0,0
324,51.0,-9.0,33.0,1644591678.65625,P04,D04,0,0,0
325,51.0,-9.0,33.0,1644591678.6875,P04,D04,0,0,0
326,51.0,-9.0,33.0,1644591678.71875,P04,D04,0,0,0
327,52.0,-9.0,34.0,1644591678.75,P04,D04,0,0,0
328,52.0,-10.0,34.0,1644591678.78125,P04,D04,0,0,0
329,51.0,-9.0,34.0,1644591678.8125,P04,D04,0,0,0
330,51.0,-9.0,34.0,1644591678.84375,P04,D04,0,0,0
331,51.0,-9.0,33.0,1644591678.875,P04,D04,0,0,0
332,52.0,-9.0,34.0,1644591678.90625,P04,D04,0,0,0
333,52.0,-9.0,34.0,1644591678.9375,P04,D04,0,0,0
334,51.0,-9.0,33.0,1644591678.96875,P04,D04,0,0,0
335,51.0,-9.0,33.0,1644591679.0,P04,D04,0,0,0
336,52.0,-9.0,33.0,1644591679.03125,P04,D04,0,0,0
337,51.0,-9.0,34.0,1644591679.0625,P04,D04,0,0,0
338,51.0,-9.0,33.0,1644591679.09375,P04,D04,0,0,0
339,51.0,-9.0,33.0,1644591679.125,P04,D04,0,0,0
340,52.0,-9.0,34.0,1644591679.15625,P04,D04,0,0,0
341,51.0,-9.0,33.0,1644591679.1875,P04,D04,0,0,0
342,51.0,-9.0,33.0,1644591679.21875,P04,D04,0,0,0
343,51.0,-9.0,33.0,1644591679.25,P04,D04,0,0,0
344,51.0,-9.0,33.0,1644591679.28125,P04,D04,0,0,0
345,51.0,-9.0,33.0,1644591679.3125,P04,D04,0,0,0
346,51.0,-9.0,33.0,1644591679.34375,P04,D04,0,0,0
347,52.0,-9.0,33.0,1644591679.375,P04,D04,0,0,0
348,52.0,-9.0,34.0,1644591679.40625,P04,D04,0,0,0
349,52.0,-9.0,33.0,1644591679.4375,P04,D04,0,0,0
350,51.0,-9.0,33.0,1644591679.46875,P04,D04,0,0,0
351,51.0,-10.0,33.0,1644591679.5,P04,D04,0,0,0
352,52.0,-10.0,33.0,1644591679.53125,P04,D04,0,0,0
353,51.0,-9.0,33.0,1644591679.5625,P04,D04,0,0,0
354,51.0,-9.0,33.0,1644591679.59375,P04,D04,0,0,0
355,52.0,-10.0,33.0,1644591679.625,P04,D04,0,0,0
356,51.0,-9.0,33.0,1644591679.65625,P04,D04,0,0,0
357,51.0,-9.0,33.0,1644591679.6875,P04,D04,0,0,0
358,52.0,-9.0,33.0,1644591679.71875,P04,D04,0,0,0
359,52.0,-9.0,33.0,1644591679.75,P04,D04,0,0,0
360,52.0,-9.0,33.0,1644591679.78125,P04,D04,0,0,0
361,51.0,-9.0,33.0,1644591679.8125,P04,D04,0,0,0
362,51.0,-10.0,33.0,1644591679.84375,P04,D04,0,0,0
363,52.0,-9.0,33.0,1644591679.875,P04,D04,0,0,0
364,52.0,-9.0,33.0,1644591679.90625,P04,D04,0,0,0
365,52.0,-9.0,33.0,1644591679.9375,P04,D04,0,0,0
366,52.0,-9.0,33.0,1644591679.96875,P04,D04,0,0,0
367,51.0,-9.0,33.0,1644591680.0,P04,D04,0,0,0
368,52.0,-9.0,33.0,1644591680.03125,P04,D04,0,0,0
369,52.0,-9.0,33.0,1644591680.0625,P04,D04,0,0,0
370,51.0,-9.0,33.0,1644591680.09375,P04,D04,0,0,0
371,51.0,-9.0,33.0,1644591680.125,P04,D04,0,0,0
372,52.0,-9.0,34.0,1644591680.15625,P04,D04,0,0,0
373,51.0,-9.0,33.0,1644591680.1875,P04,D04,0,0,0
374,51.0,-9.0,33.0,1644591680.21875,P04,D04,0,0,0
375,51.0,-9.0,33.0,1644591680.25,P04,D04,0,0,0
376,51.0,-9.0,33.0,1644591680.28125,P04,D04,0,0,0
377,52.0,-9.0,33.0,1644591680.3125,P04,D04,0,0,0
378,52.0,-9.0,33.0,1644591680.34375,P04,D04,0,0,0
379,52.0,-9.0,33.0,1644591680.375,P04,D04,0,0,0
380,51.0,-9.0,34.0,1644591680.40625,P04,D04,0,0,0
381,51.0,-9.0,33.0,1644591680.4375,P04,D04,0,0,0
382,51.0,-9.0,33.0,1644591680.46875,P04,D04,0,0,0
383,51.0,-9.0,34.0,1644591680.5,P04,D04,0,0,0
384,51.0,-9.0,34.0,1644591680.53125,P04,D04,0,0,0
385,51.0,-9.0,33.0,1644591680.5625,P04,D04,0,0,0
386,52.0,-9.0,34.0,1644591680.59375,P04,D04,0,0,0
387,51.0,-9.0,33.0,1644591680.625,P04,D04,0,0,0
388,51.0,-9.0,33.0,1644591680.65625,P04,D04,0,0,0
389,51.0,-9.0,33.0,1644591680.6875,P04,D04,0,0,0
390,51.0,-9.0,33.0,1644591680.71875,P04,D04,0,0,0
391,51.0,-9.0,34.0,1644591680.75,P04,D04,0,0,0
392,51.0,-9.0,33.0,1644591680.78125,P04,D04,0,0,0
393,52.0,-9.0,33.0,1644591680.8125,P04,D04,0,0,0
394,52.0,-9.0,33.0,1644591680.84375,P04,D04,0,0,0
395,51.0,-9.0,33.0,1644591680.875,P04,D04,0,0,0
396,52.0,-9.0,34.0,1644591680.90625,P04,D04,0,0,0
397,51.0,-9.0,33.0,1644591680.9375,P04,D04,0,0,0
398,51.0,-9.0,34.0,1644591680.96875,P04,D04,0,0,0
399,51.0,-9.0,33.0,1644591681.0,P04,D04,0,0,0
400,51.0,-9.0,33.0,1644591681.03125,P04,D04,0,0,0
401,52.0,-9.0,33.0,1644591681.0625,P04,D04,0,0,0
402,51.0,-9.0,33.0,1644591681.09375,P04,D04,0,0,0
403,51.0,-9.0,34.0,1644591681.125,P04,D04,0,0,0
404,51.0,-9.0,34.0,1644591681.15625,P04,D04,0,0,0
405,51.0,-9.0,34.0,1644591681.1875,P04,D04,0,0,0
406,51.0,-9.0,33.0,1644591681.21875,P04,D04,0,0,0
407,51.0,-9.0,33.0,1644591681.25,P04,D04,0,0,0
408,51.0,-9.0,33.0,1644591681.28125,P04,D04,0,0,0
409,51.0,-9.0,34.0,1644591681.3125,P04,D04,0,0,0
410,52.0,-9.0,33.0,1644591681.34375,P04,D04,0,0,0
411,51.0,-9.0,33.0,1644591681.375,P04,D04,0,0,0
412,51.0,-9.0,34.0,1644591681.40625,P04,D04,0,0,0
413,51.0,-9.0,33.0,1644591681.4375,P04,D04,0,0,0
414,51.0,-9.0,33.0,1644591681.46875,P04,D04,0,0,0
415,52.0,-9.0,34.0,1644591681.5,P04,D04,0,0,0
416,51.0,-9.0,33.0,1644591681.53125,P04,D04,0,0,0
417,51.0,-9.0,33.0,1644591681.5625,P04,D04,0,0,0
418,52.0,-9.0,33.0,1644591681.59375,P04,D04,0,0,0
419,51.0,-9.0,34.0,1644591681.625,P04,D04,0,0,0
420,51.0,-9.0,34.0,1644591681.65625,P04,D04,0,0,0
421,51.0,-9.0,33.0,1644591681.6875,P04,D04,0,0,0
422,51.0,-9.0,33.0,1644591681.71875,P04,D04,0,0,0
423,51.0,-9.0,33.0,1644591681.75,P04,D04,0,0,0
424,51.0,-9.0,33.0,1644591681.78125,P04,D04,0,0,0
425,51.0,-9.0,34.0,1644591681.8125,P04,D04,0,0,0
426,51.0,-9.0,33.0,1644591681.84375,P04,D04,0,0,0
427,51.0,-9.0,33.0,1644591681.875,P04,D04,0,0,0
428,51.0,-9.0,34.0,1644591681.90625,P04,D04,0,0,0
429,51.0,-9.0,34.0,1644591681.9375,P04,D04,0,0,0
430,51.0,-9.0,33.0,1644591681.96875,P04,D04,0,0,0
431,51.0,-9.0,33.0,1644591682.0,P04,D04,0,0,0
432,52.0,-9.0,33.0,1644591682.03125,P04,D04,0,0,0
433,51.0,-9.0,33.0,1644591682.0625,P04,D04,0,0,0
434,51.0,-9.0,33.0,1644591682.09375,P04,D04,0,0,0
435,51.0,-9.0,34.0,1644591682.125,P04,D04,0,0,0
436,51.0,-9.0,33.0,1644591682.15625,P04,D04,0,0,0
437,52.0,-9.0,33.0,1644591682.1875,P04,D04,0,0,0
438,51.0,-9.0,33.0,1644591682.21875,P04,D04,0,0,0
439,52.0,-9.0,34.0,1644591682.25,P04,D04,0,0,0
440,52.0,-9.0,34.0,1644591682.28125,P04,D04,0,0,0
441,51.0,-9.0,33.0,1644591682.3125,P04,D04,0,0,0
442,52.0,-9.0,33.0,1644591682.34375,P04,D04,0,0,0
443,51.0,-9.0,33.0,1644591682.375,P04,D04,0,0,0
444,51.0,-9.0,33.0,1644591682.40625,P04,D04,0,0,0
445,51.0,-9.0,33.0,1644591682.4375,P04,D04,0,0,0
446,51.0,-9.0,33.0,1644591682.46875,P04,D04,0,0,0
447,51.0,-9.0,33.0,1644591682.5,P04,D04,0,0,0
448,52.0,-9.0,33.0,1644591682.53125,P04,D04,0,0,0
449,52.0,-8.0,33.0,1644591682.5625,P04,D04,0,0,0
450,51.0,-9.0,33.0,1644591682.59375,P04,D04,0,0,0
451,52.0,-9.0,34.0,1644591682.625,P04,D04,0,0,0
452,51.0,-10.0,34.0,1644591682.65625,P04,D04,0,0,0
453,51.0,-10.0,33.0,1644591682.6875,P04,D04,0,0,0
454,52.0,-9.0,34.0,1644591682.71875,P04,D04,0,0,0
455,52.0,-9.0,33.0,1644591682.75,P04,D04,0,0,0
456,51.0,-9.0,32.0,1644591682.78125,P04,D04,0,0,0
457,52.0,-9.0,33.0,1644591682.8125,P04,D04,0,0,0
458,52.0,-9.0,33.0,1644591682.84375,P04,D04,0,0,0
459,51.0,-8.0,33.0,1644591682.875,P04,D04,0,0,0
460,51.0,-9.0,33.0,1644591682.90625,P04,D04,0,0,0
461,52.0,-8.0,33.0,1644591682.9375,P04,D04,0,0,0
462,52.0,-9.0,33.0,1644591682.96875,P04,D04,0,0,0
463,52.0,-9.0,33.0,1644591683.0,P04,D04,0,0,0
464,52.0,-8.0,32.0,1644591683.03125,P04,D04,0,0,0
465,52.0,-8.0,33.0,1644591683.0625,P04,D04,0,0,0
466,52.0,-8.0,33.0,1644591683.09375,P04,D04,0,0,0
467,53.0,-8.0,33.0,1644591683.125,P04,D04,0,0,0
468,53.0,-8.0,32.0,1644591683.15625,P04,D04,0,0,0
469,53.0,-7.0,32.0,1644591683.1875,P04,D04,0,0,0
470,53.0,-7.0,32.0,1644591683.21875,P04,D04,0,0,0
471,53.0,-7.0,33.0,1644591683.25,P04,D04,0,0,0
472,52.0,-7.0,33.0,1644591683.28125,P04,D04,0,0,0
473,52.0,-7.0,32.0,1644591683.3125,P04,D04,0,0,0
474,52.0,-7.0,32.0,1644591683.34375,P04,D04,0,0,0
475,52.0,-7.0,32.0,1644591683.375,P04,D04,0,0,0
476,53.0,-7.0,32.0,1644591683.40625,P04,D04,0,0,0
477,53.0,-7.0,32.0,1644591683.4375,P04,D04,0,0,0
478,53.0,-7.0,33.0,1644591683.46875,P04,D04,0,0,0
479,52.0,-6.0,32.0,1644591683.5,P04,D04,0,0,0
480,53.0,-6.0,32.0,1644591683.53125,P04,D04,0,0,0
481,51.0,-8.0,33.0,1644591683.5625,P04,D04,0,0,0
482,51.0,-9.0,33.0,1644591683.59375,P04,D04,0,0,0
483,51.0,-8.0,33.0,1644591683.625,P04,D04,0,0,0
484,52.0,-8.0,32.0,1644591683.65625,P04,D04,0,0,0
485,54.0,-7.0,33.0,1644591683.6875,P04,D04,0,0,0
486,52.0,-7.0,33.0,1644591683.71875,P04,D04,0,0,0
487,51.0,-8.0,32.0,1644591683.75,P04,D04,0,0,0
488,52.0,-7.0,32.0,1644591683.78125,P04,D04,0,0,0
489,55.0,-6.0,33.0,1644591683.8125,P04,D04,0,0,0
490,54.0,-6.0,33.0,1644591683.84375,P04,D04,0,0,0
491,52.0,-7.0,32.0,1644591683.875,P04,D04,0,0,0
492,52.0,-8.0,31.0,1644591683.90625,P04,D04,0,0,0
493,53.0,-8.0,31.0,1644591683.9375,P04,D04,0,0,0
494,53.0,-8.0,33.0,1644591683.96875,P04,D04,0,0,0
495,51.0,-8.0,34.0,1644591684.0,P04,D04,0,0,0
496,51.0,-7.0,33.0,1644591684.03125,P04,D04,0,0,0
497,53.0,-7.0,33.0,1644591684.0625,P04,D04,0,0,0
498,54.0,-6.0,34.0,1644591684.09375,P04,D04,0,0,0
499,54.0,-5.0,33.0,1644591684.125,P04,D04,0,0,0
500,51.0,-7.0,33.0,1644591684.15625,P04,D04,0,0,0
501,51.0,-8.0,33.0,1644591684.1875,P04,D04,0,0,0
502,51.0,-8.0,32.0,1644591684.21875,P04,D04,0,0,0
503,52.0,-7.0,32.0,1644591684.25,P04,D04,0,0,0
504,53.0,-7.0,32.0,1644591684.28125,P04,D04,0,0,0
505,52.0,-7.0,32.0,1644591684.3125,P04,D04,0,0,0
506,52.0,-7.0,33.0,1644591684.34375,P04,D04,0,0,0
507,52.0,-7.0,33.0,1644591684.375,P04,D04,0,0,0
508,53.0,-7.0,33.0,1644591684.40625,P04,D04,0,0,0
509,52.0,-7.0,33.0,1644591684.4375,P04,D04,0,0,0
510,52.0,-7.0,33.0,1644591684.46875,P04,D04,0,0,0
511,52.0,-8.0,33.0,1644591684.5,P04,D04,0,0,0
512,52.0,-8.0,32.0,1644591684.53125,P04,D04,0,0,0
513,52.0,-8.0,33.0,1644591684.5625,P04,D04,0,0,0
514,52.0,-8.0,33.0,1644591684.59375,P04,D04,0,0,0
515,52.0,-8.0,33.0,1644591684.625,P04,D04,0,0,0
516,52.0,-8.0,33.0,1644591684.65625,P04,D04,0,0,0
517,52.0,-8.0,33.0,1644591684.6875,P04,D04,0,0,0
518,52.0,-8.0,33.0,1644591684.71875,P04,D04,0,0,0
519,52.0,-8.0,33.0,1644591684.75,P04,D04,0,0,0
520,52.0,-8.0,33.0,1644591684.78125,P04,D04,0,0,0
521,52.0,-8.0,33.0,1644591684.8125,P04,D04,0,0,0
522,52.0,-8.0,33.0,1644591684.84375,P04,D04,0,0,0
523,52.0,-8.0,33.0,1644591684.875,P04,D04,0,0,0
524,52.0,-8.0,33.0,1644591684.90625,P04,D04,0,0,0
525,52.0,-8.0,33.0,1644591684.9375,P04,D04,0,0,0
526,52.0,-8.0,33.0,1644591684.96875,P04,D04,0,0,0
527,52.0,-8.0,33.0,1644591685.0,P04,D04,0,0,0
528,52.0,-8.0,33.0,1644591685.03125,P04,D04,0,0,0
529,52.0,-8.0,33.0,1644591685.0625,P04,D04,0,0,0
530,52.0,-8.0,33.0,1644591685.09375,P04,D04,0,0,0
531,52.0,-8.0,33.0,1644591685.125,P04,D04,0,0,0
532,52.0,-8.0,33.0,1644591685.15625,P04,D04,0,0,0
533,52.0,-8.0,33.0,1644591685.1875,P04,D04,0,0,0
534,52.0,-8.0,33.0,1644591685.21875,P04,D04,0,0,0
535,52.0,-8.0,33.0,1644591685.25,P04,D04,0,0,0
536,52.0,-8.0,33.0,1644591685.28125,P04,D04,0,0,0
537,51.0,-8.0,33.0,1644591685.3125,P04,D04,0,0,0
538,52.0,-8.0,33.0,1644591685.34375,P04,D04,0,0,0
539,52.0,-8.0,33.0,1644591685.375,P04,D04,0,0,0
540,52.0,-8.0,33.0,1644591685.40625,P04,D04,0,0,0
541,53.0,-8.0,33.0,1644591685.4375,P04,D04,0,0,0
542,52.0,-8.0,32.0,1644591685.46875,P04,D04,0,0,0
543,52.0,-8.0,32.0,1644591685.5,P04,D04,0,0,0
544,53.0,-8.0,32.0,1644591685.53125,P04,D04,0,0,0
545,52.0,-8.0,33.0,1644591685.5625,P04,D04,0,0,0
546,52.0,-8.0,32.0,1644591685.59375,P04,D04,0,0,0
547,52.0,-8.0,33.0,1644591685.625,P04,D04,0,0,0
548,52.0,-8.0,33.0,1644591685.65625,P04,D04,0,0,0
549,53.0,-8.0,33.0,1644591685.6875,P04,D04,0,0,0
550,52.0,-8.0,33.0,1644591685.71875,P04,D04,0,0,0
551,52.0,-8.0,33.0,1644591685.75,P04,D04,0,0,0
552,52.0,-8.0,33.0,1644591685.78125,P04,D04,0,0,0
553,51.0,-8.0,33.0,1644591685.8125,P04,D04,0,0,0
554,52.0,-8.0,33.0,1644591685.84375,P04,D04,0,0,0
555,52.0,-8.0,33.0,1644591685.875,P04,D04,0,0,0
556,52.0,-8.0,33.0,1644591685.90625,P04,D04,0,0,0
557,52.0,-8.0,33.0,1644591685.9375,P04,D04,0,0,0
558,52.0,-8.0,33.0,1644591685.96875,P04,D04,0,0,0
559,52.0,-8.0,33.0,1644591686.0,P04,D04,0,0,0
560,52.0,-8.0,33.0,1644591686.03125,P04,D04,0,0,0
561,52.0,-8.0,33.0,1644591686.0625,P04,D04,0,0,0
562,52.0,-8.0,33.0,1644591686.09375,P04,D04,0,0,0
563,52.0,-8.0,33.0,1644591686.125,P04,D04,0,0,0
564,52.0,-8.0,33.0,1644591686.15625,P04,D04,0,0,0
565,52.0,-8.0,33.0,1644591686.1875,P04,D04,0,0,0
566,53.0,-8.0,33.0,1644591686.21875,P04,D04,0,0,0
567,52.0,-8.0,33.0,1644591686.25,P04,D04,0,0,0
568,52.0,-8.0,33.0,1644591686.28125,P04,D04,0,0,0
569,52.0,-8.0,33.0,1644591686.3125,P04,D04,0,0,0
570,52.0,-8.0,33.0,1644591686.34375,P04,D04,0,0,0
571,52.0,-8.0,33.0,1644591686.375,P04,D04,0,0,0
572,52.0,-8.0,33.0,1644591686.40625,P04,D04,0,0,0
573,52.0,-8.0,33.0,1644591686.4375,P04,D04,0,0,0
574,51.0,-8.0,33.0,1644591686.46875,P04,D04,0,0,0
575,52.0,-8.0,33.0,1644591686.5,P04,D04,0,0,0
576,52.0,-8.0,33.0,1644591686.53125,P04,D04,0,0,0
577,52.0,-8.0,33.0,1644591686.5625,P04,D04,0,0,0
578,51.0,-8.0,33.0,1644591686.59375,P04,D04,0,0,0
579,52.0,-8.0,33.0,1644591686.625,P04,D04,0,0,0
580,52.0,-8.0,33.0,1644591686.65625,P04,D04,0,0,0
581,52.0,-8.0,33.0,1644591686.6875,P04,D04,0,0,0
582,52.0,-8.0,33.0,1644591686.71875,P04,D04,0,0,0
583,51.0,-8.0,33.0,1644591686.75,P04,D04,0,0,0
584,52.0,-8.0,33.0,1644591686.78125,P04,D04,0,0,0
585,52.0,-8.0,33.0,1644591686.8125,P04,D04,0,0,0
586,51.0,-8.0,33.0,1644591686.84375,P04,D04,0,0,0
587,52.0,-8.0,33.0,1644591686.875,P04,D04,0,0,0
588,52.0,-8.0,33.0,1644591686.90625,P04,D04,0,0,0
589,52.0,-8.0,33.0,1644591686.9375,P04,D04,0,0,0
590,52.0,-8.0,33.0,1644591686.96875,P04,D04,0,0,0
591,52.0,-8.0,33.0,1644591687.0,P04,D04,0,0,0
592,52.0,-8.0,33.0,1644591687.03125,P04,D04,0,0,0
593,52.0,-8.0,33.0,1644591687.0625,P04,D04,0,0,0
594,52.0,-8.0,33.0,1644591687.09375,P04,D04,0,0,0
595,52.0,-8.0,33.0,1644591687.125,P04,D04,0,0,0
596,52.0,-8.0,33.0,1644591687.15625,P04,D04,0,0,0
597,52.0,-8.0,33.0,1644591687.1875,P04,D04,0,0,0
598,52.0,-8.0,33.0,1644591687.21875,P04,D04,0,0,0
599,52.0,-8.0,33.0,1644591687.25,P04,D04,0,0,0
600,52.0,-8.0,33.0,1644591687.28125,P04,D04,0,0,0
601,52.0,-8.0,33.0,1644591687.3125,P04,D04,0,0,0
602,52.0,-8.0,33.0,1644591687.34375,P04,D04,0,0,0
603,51.0,-8.0,33.0,1644591687.375,P04,D04,0,0,0
604,52.0,-8.0,33.0,1644591687.40625,P04,D04,0,0,0
605,52.0,-8.0,33.0,1644591687.4375,P04,D04,0,0,0
606,51.0,-8.0,33.0,1644591687.46875,P04,D04,0,0,0
607,52.0,-8.0,33.0,1644591687.5,P04,D04,0,0,0
608,52.0,-8.0,33.0,1644591687.53125,P04,D04,0,0,0
609,52.0,-8.0,33.0,1644591687.5625,P04,D04,0,0,0
610,52.0,-8.0,33.0,1644591687.59375,P04,D04,0,0,0
611,52.0,-8.0,33.0,1644591687.625,P04,D04,0,0,0
612,52.0,-8.0,33.0,1644591687.65625,P04,D04,0,0,0
613,52.0,-8.0,33.0,1644591687.6875,P04,D04,0,0,0
614,52.0,-8.0,33.0,1644591687.71875,P04,D04,0,0,0
615,52.0,-8.0,33.0,1644591687.75,P04,D04,0,0,0
616,52.0,-8.0,33.0,1644591687.78125,P04,D04,0,0,0
617,52.0,-8.0,33.0,1644591687.8125,P04,D04,0,0,0
618,52.0,-8.0,33.0,1644591687.84375,P04,D04,0,0,0
619,52.0,-8.0,33.0,1644591687.875,P04,D04,0,0,0
620,52.0,-8.0,33.0,1644591687.90625,P04,D04,0,0,0
621,52.0,-8.0,33.0,1644591687.9375,P04,D04,0,0,0
622,52.0,-8.0,33.0,1644591687.96875,P04,D04,0,0,0
623,52.0,-8.0,33.0,1644591688.0,P04,D04,0,0,0
624,52.0,-8.0,33.0,1644591688.03125,P04,D04,0,0,0
625,52.0,-9.0,33.0,1644591688.0625,P04,D04,0,0,0
626,52.0,-8.0,33.0,1644591688.09375,P04,D04,0,0,0
627,52.0,-8.0,33.0,1644591688.125,P04,D04,0,0,0
628,52.0,-8.0,33.0,1644591688.15625,P04,D04,0,0,0
629,52.0,-8.0,33.0,1644591688.1875,P04,D04,0,0,0
630,52.0,-8.0,33.0,1644591688.21875,P04,D04,0,0,0
631,52.0,-8.0,33.0,1644591688.25,P04,D04,0,0,0
632,52.0,-8.0,33.0,1644591688.28125,P04,D04,0,0,0
633,52.0,-8.0,33.0,1644591688.3125,P04,D04,0,0,0
634,52.0,-8.0,33.0,1644591688.34375,P04,D04,0,0,0
635,52.0,-8.0,33.0,1644591688.375,P04,D04,0,0,0
636,52.0,-8.0,33.0,1644591688.40625,P04,D04,0,0,0
637,52.0,-8.0,33.0,1644591688.4375,P04,D04,0,0,0
638,52.0,-8.0,33.0,1644591688.46875,P04,D04,0,0,0
639,52.0,-8.0,33.0,1644591688.5,P04,D04,0,0,0
640,52.0,-8.0,33.0,1644591688.53125,P04,D04,0,0,0
641,52.0,-8.0,33.0,1644591688.5625,P04,D04,0,0,0
642,52.0,-8.0,33.0,1644591688.59375,P04,D04,0,0,0
643,52.0,-8.0,33.0,1644591688.625,P04,D04,0,0,0
644,52.0,-8.0,33.0,1644591688.65625,P04,D04,0,0,0
645,52.0,-8.0,33.0,1644591688.6875,P04,D04,0,0,0
646,52.0,-8.0,33.0,1644591688.71875,P04,D04,0,0,0
647,52.0,-8.0,33.0,1644591688.75,P04,D04,0,0,0
648,52.0,-8.0,33.0,1644591688.78125,P04,D04,0,0,0
649,52.0,-8.0,33.0,1644591688.8125,P04,D04,0,0,0
650,52.0,-8.0,33.0,1644591688.84375,P04,D04,0,0,0
651,52.0,-8.0,33.0,1644591688.875,P04,D04,0,0,0
652,52.0,-8.0,33.0,1644591688.90625,P04,D04,0,0,0
653,52.0,-8.0,33.0,1644591688.9375,P04,D04,0,0,0
654,52.0,-8.0,33.0,1644591688.96875,P04,D04,0,0,0
655,52.0,-8.0,33.0,1644591689.0,P04,D04,0,0,0
656,52.0,-8.0,33.0,1644591689.03125,P04,D04,0,0,0
657,52.0,-8.0,33.0,1644591689.0625,P04,D04,0,0,0
658,52.0,-8.0,33.0,1644591689.09375,P04,D04,0,0,0
659,52.0,-8.0,33.0,1644591689.125,P04,D04,0,0,0
660,52.0,-8.0,33.0,1644591689.15625,P04,D04,0,0,0
661,52.0,-8.0,33.0,1644591689.1875,P04,D04,0,0,0
662,52.0,-8.0,33.0,1644591689.21875,P04,D04,0,0,0
663,52.0,-8.0,33.0,1644591689.25,P04,D04,0,0,0
664,52.0,-8.0,33.0,1644591689.28125,P04,D04,0,0,0
665,52.0,-8.0,33.0,1644591689.3125,P04,D04,0,0,0
666,52.0,-8.0,33.0,1644591689.34375,P04,D04,0,0,0
667,52.0,-8.0,33.0,1644591689.375,P04,D04,0,0,0
668,52.0,-8.0,33.0,1644591689.40625,P04,D04,0,0,0
669,52.0,-8.0,33.0,1644591689.4375,P04,D04,0,0,0
670,52.0,-8.0,33.0,1644591689.46875,P04,D04,0,0,0
671,52.0,-8.0,33.0,1644591689.5,P04,D04,0,0,0
672,52.0,-8.0,33.0,1644591689.53125,P04,D04,0,0,0
673,52.0,-8.0,33.0,1644591689.5625,P04,D04,0,0,0
674,52.0,-8.0,33.0,1644591689.59375,P04,D04,0,0,0
675,52.0,-8.0,33.0,1644591689.625,P04,D04,0,0,0
676,52.0,-8.0,33.0,1644591689.65625,P04,D04,0,0,0
677,52.0,-8.0,33.0,1644591689.6875,P04,D04,0,0,0
678,52.0,-8.0,33.0,1644591689.71875,P04,D04,0,0,0
679,52.0,-8.0,33.0,1644591689.75,P04,D04,0,0,0
680,52.0,-8.0,33.0,1644591689.78125,P04,D04,0,0,0
681,52.0,-8.0,33.0,1644591689.8125,P04,D04,0,0,0
682,52.0,-8.0,33.0,1644591689.84375,P04,D04,0,0,0
683,52.0,-8.0,33.0,1644591689.875,P04,D04,0,0,0
684,52.0,-8.0,33.0,1644591689.90625,P04,D04,0,0,0
685,52.0,-8.0,33.0,1644591689.9375,P04,D04,0,0,0
686,52.0,-8.0,33.0,1644591689.96875,P04,D04,0,0,0
687,52.0,-8.0,33.0,1644591690.0,P04,D04,0,0,0
688,52.0,-8.0,33.0,1644591690.03125,P04,D04,0,0,0
689,52.0,-8.0,33.0,1644591690.0625,P04,D04,0,0,0
690,52.0,-8.0,33.0,1644591690.09375,P04,D04,0,0,0
691,52.0,-8.0,33.0,1644591690.125,P04,D04,0,0,0
692,52.0,-8.0,33.0,1644591690.15625,P04,D04,0,0,0
693,52.0,-8.0,33.0,1644591690.1875,P04,D04,0,0,0
694,52.0,-8.0,33.0,1644591690.21875,P04,D04,0,0,0
695,52.0,-8.0,33.0,1644591690.25,P04,D04,0,0,0
696,52.0,-8.0,33.0,1644591690.28125,P04,D04,0,0,0
697,52.0,-8.0,33.0,1644591690.3125,P04,D04,0,0,0
698,52.0,-8.0,33.0,1644591690.34375,P04,D04,0,0,0
699,52.0,-8.0,33.0,1644591690.375,P04,D04,0,0,0
700,52.0,-8.0,33.0,1644591690.40625,P04,D04,0,0,0
701,52.0,-8.0,33.0,1644591690.4375,P04,D04,0,0,0
702,52.0,-8.0,33.0,1644591690.46875,P04,D04,0,0,0
703,52.0,-8.0,33.0,1644591690.5,P04,D04,0,0,0
704,52.0,-8.0,33.0,1644591690.53125,P04,D04,0,0,0
705,52.0,-8.0,33.0,1644591690.5625,P04,D04,0,0,0
706,52.0,-8.0,33.0,1644591690.59375,P04,D04,0,0,0
707,52.0,-8.0,33.0,1644591690.625,P04,D04,0,0,0
708,52.0,-8.0,33.0,1644591690.65625,P04,D04,0,0,0
709,52.0,-8.0,33.0,1644591690.6875,P04,D04,0,0,0
710,52.0,-8.0,33.0,1644591690.71875,P04,D04,0,0,0
711,52.0,-8.0,33.0,1644591690.75,P04,D04,0,0,0
712,52.0,-8.0,33.0,1644591690.78125,P04,D04,0,0,0
713,52.0,-8.0,33.0,1644591690.8125,P04,D04,0,0,0
714,52.0,-8.0,33.0,1644591690.84375,P04,D04,0,0,0
715,52.0,-8.0,33.0,1644591690.875,P04,D04,0,0,0
716,52.0,-8.0,33.0,1644591690.90625,P04,D04,0,0,0
717,52.0,-8.0,33.0,1644591690.9375,P04,D04,0,0,0
718,52.0,-8.0,33.0,1644591690.96875,P04,D04,0,0,0
719,52.0,-8.0,33.0,1644591691.0,P04,D04,0,0,0
720,52.0,-8.0,33.0,1644591691.03125,P04,D04,0,0,0
721,52.0,-8.0,33.0,1644591691.0625,P04,D04,0,0,0
722,52.0,-8.0,33.0,1644591691.09375,P04,D04,0,0,0
723,52.0,-8.0,33.0,1644591691.125,P04,D04,0,0,0
724,52.0,-8.0,33.0,1644591691.15625,P04,D04,0,0,0
725,52.0,-8.0,33.0,1644591691.1875,P04,D04,0,0,0
726,52.0,-8.0,33.0,1644591691.21875,P04,D04,0,0,0
727,52.0,-8.0,33.0,1644591691.25,P04,D04,0,0,0
728,52.0,-8.0,33.0,1644591691.28125,P04,D04,0,0,0
729,52.0,-8.0,33.0,1644591691.3125,P04,D04,0,0,0
730,52.0,-8.0,33.0,1644591691.34375,P04,D04,0,0,0
731,52.0,-8.0,33.0,1644591691.375,P04,D04,0,0,0
732,52.0,-8.0,33.0,1644591691.40625,P04,D04,0,0,0
733,52.0,-8.0,33.0,1644591691.4375,P04,D04,0,0,0
734,52.0,-8.0,33.0,1644591691.46875,P04,D04,0,0,0
735,52.0,-8.0,33.0,1644591691.5,P04,D04,0,0,0
736,52.0,-8.0,33.0,1644591691.53125,P04,D04,0,0,0
737,52.0,-8.0,33.0,1644591691.5625,P04,D04,0,0,0
738,52.0,-8.0,33.0,1644591691.59375,P04,D04,0,0,0
739,52.0,-8.0,33.0,1644591691.625,P04,D04,0,0,0
740,52.0,-8.0,33.0,1644591691.65625,P04,D04,0,0,0
741,52.0,-8.0,33.0,1644591691.6875,P04,D04,0,0,0
742,52.0,-8.0,33.0,1644591691.71875,P04,D04,0,0,0
743,52.0,-8.0,33.0,1644591691.75,P04,D04,0,0,0
744,52.0,-8.0,33.0,1644591691.78125,P04,D04,0,0,0
745,52.0,-8.0,33.0,1644591691.8125,P04,D04,0,0,0
746,52.0,-8.0,33.0,1644591691.84375,P04,D04,0,0,0
747,52.0,-8.0,33.0,1644591691.875,P04,D04,0,0,0
748,52.0,-8.0,33.0,1644591691.90625,P04,D04,0,0,0
749,51.0,-8.0,33.0,1644591691.9375,P04,D04,0,0,0
750,52.0,-8.0,33.0,1644591691.96875,P04,D04,0,0,0
751,52.0,-8.0,33.0,1644591692.0,P04,D04,0,0,0
752,52.0,-8.0,33.0,1644591692.03125,P04,D04,0,0,0
753,52.0,-8.0,33.0,1644591692.0625,P04,D04,0,0,0
754,52.0,-8.0,33.0,1644591692.09375,P04,D04,0,0,0
755,52.0,-8.0,33.0,1644591692.125,P04,D04,0,0,0
756,52.0,-8.0,33.0,1644591692.15625,P04,D04,0,0,0
757,52.0,-8.0,33.0,1644591692.1875,P04,D04,0,0,0
758,52.0,-8.0,33.0,1644591692.21875,P04,D04,0,0,0
759,52.0,-8.0,33.0,1644591692.25,P04,D04,0,0,0
760,52.0,-8.0,33.0,1644591692.28125,P04,D04,0,0,0
761,52.0,-8.0,33.0,1644591692.3125,P04,D04,0,0,0
762,52.0,-8.0,33.0,1644591692.34375,P04,D04,0,0,0
763,52.0,-8.0,33.0,1644591692.375,P04,D04,0,0,0
764,52.0,-8.0,33.0,1644591692.40625,P04,D04,0,0,0
765,52.0,-8.0,33.0,1644591692.4375,P04,D04,0,0,0
766,52.0,-8.0,33.0,1644591692.46875,P04,D04,0,0,0
767,52.0,-8.0,33.0,1644591692.5,P04,D04,0,0,0
768,52.0,-8.0,33.0,1644591692.53125,P04,D04,0,0,0
769,52.0,-8.0,33.0,1644591692.5625,P04,D04,0,0,0
770,52.0,-8.0,33.0,1644591692.59375,P04,D04,0,0,0
771,52.0,-8.0,33.0,1644591692.625,P04,D04,0,0,0
772,52.0,-8.0,33.0,1644591692.65625,P04,D04,0,0,0
773,52.0,-8.0,33.0,1644591692.6875,P04,D04,0,0,0
774,52.0,-8.0,33.0,1644591692.71875,P04,D04,0,0,0
775,52.0,-8.0,33.0,1644591692.75,P04,D04,0,0,0
776,52.0,-8.0,33.0,1644591692.78125,P04,D04,0,0,0
777,52.0,-8.0,33.0,1644591692.8125,P04,D04,0,0,0
778,52.0,-8.0,33.0,1644591692.84375,P04,D04,0,0,0
779,52.0,-8.0,33.0,1644591692.875,P04,D04,0,0,0
780,52.0,-8.0,33.0,1644591692.90625,P04,D04,0,0,0
781,52.0,-8.0,33.0,1644591692.9375,P04,D04,0,0,0
782,52.0,-8.0,33.0,1644591692.96875,P04,D04,0,0,0
783,52.0,-8.0,33.0,1644591693.0,P04,D04,0,0,0
784,52.0,-8.0,33.0,1644591693.03125,P04,D04,0,0,0
785,52.0,-8.0,33.0,1644591693.0625,P04,D04,0,0,0
786,52.0,-8.0,32.0,1644591693.09375,P04,D04,0,0,0
787,52.0,-8.0,33.0,1644591693.125,P04,D04,0,0,0
788,52.0,-8.0,33.0,1644591693.15625,P04,D04,0,0,0
789,52.0,-8.0,33.0,1644591693.1875,P04,D04,0,0,0
790,52.0,-8.0,33.0,1644591693.21875,P04,D04,0,0,0
791,52.0,-8.0,33.0,1644591693.25,P04,D04,0,0,0
792,52.0,-8.0,33.0,1644591693.28125,P04,D04,0,0,0
793,52.0,-8.0,33.0,1644591693.3125,P04,D04,0,0,0
794,53.0,-8.0,33.0,1644591693.34375,P04,D04,0,0,0
795,52.0,-8.0,33.0,1644591693.375,P04,D04,0,0,0
796,52.0,-8.0,33.0,1644591693.40625,P04,D04,0,0,0
797,52.0,-8.0,33.0,1644591693.4375,P04,D04,0,0,0
798,52.0,-8.0,33.0,1644591693.46875,P04,D04,0,0,0
799,52.0,-8.0,33.0,1644591693.5,P04,D04,0,0,0
800,52.0,-8.0,33.0,1644591693.53125,P04,D04,0,0,0
801,52.0,-8.0,33.0,1644591693.5625,P04,D04,0,0,0
802,52.0,-8.0,32.0,1644591693.59375,P04,D04,0,0,0
803,52.0,-8.0,33.0,1644591693.625,P04,D04,0,0,0
804,52.0,-8.0,33.0,1644591693.65625,P04,D04,0,0,0
805,52.0,-8.0,33.0,1644591693.6875,P04,D04,0,0,0
806,52.0,-8.0,33.0,1644591693.71875,P04,D04,0,0,0
807,52.0,-8.0,33.0,1644591693.75,P04,D04,0,0,0
808,52.0,-8.0,33.0,1644591693.78125,P04,D04,0,0,0
809,52.0,-8.0,33.0,1644591693.8125,P04,D04,0,0,0
810,52.0,-8.0,33.0,1644591693.84375,P04,D04,0,0,0
811,52.0,-8.0,33.0,1644591693.875,P04,D04,0,0,0
812,52.0,-8.0,33.0,1644591693.90625,P04,D04,0,0,0
813,52.0,-8.0,33.0,1644591693.9375,P04,D04,0,0,0
814,52.0,-8.0,33.0,1644591693.96875,P04,D04,0,0,0
815,52.0,-8.0,33.0,1644591694.0,P04,D04,0,0,0
816,52.0,-8.0,33.0,1644591694.03125,P04,D04,0,0,0
817,52.0,-8.0,33.0,1644591694.0625,P04,D04,0,0,0
818,52.0,-8.0,33.0,1644591694.09375,P04,D04,0,0,0
819,52.0,-8.0,33.0,1644591694.125,P04,D04,0,0,0
820,52.0,-8.0,33.0,1644591694.15625,P04,D04,0,0,0
821,52.0,-8.0,33.0,1644591694.1875,P04,D04,0,0,0
822,52.0,-8.0,33.0,1644591694.21875,P04,D04,0,0,0
823,52.0,-8.0,33.0,1644591694.25,P04,D04,0,0,0
824,52.0,-8.0,33.0,1644591694.28125,P04,D04,0,0,0
825,52.0,-8.0,33.0,1644591694.3125,P04,D04,0,0,0
826,52.0,-8.0,33.0,1644591694.34375,P04,D04,0,0,0
827,52.0,-8.0,33.0,1644591694.375,P04,D04,0,0,0
828,52.0,-8.0,33.0,1644591694.40625,P04,D04,0,0,0
829,52.0,-8.0,33.0,1644591694.4375,P04,D04,0,0,0
830,52.0,-8.0,33.0,1644591694.46875,P04,D04,0,0,0
831,52.0,-8.0,33.0,1644591694.5,P04,D04,0,0,0
832,52.0,-8.0,33.0,1644591694.53125,P04,D04,0,0,0
833,52.0,-8.0,33.0,1644591694.5625,P04,D04,0,0,0
834,52.0,-8.0,33.0,1644591694.59375,P04,D04,0,0,0
835,52.0,-8.0,33.0,1644591694.625,P04,D04,0,0,0
836,52.0,-8.0,33.0,1644591694.65625,P04,D04,0,0,0
837,52.0,-8.0,33.0,1644591694.6875,P04,D04,0,0,0
838,52.0,-8.0,33.0,1644591694.71875,P04,D04,0,0,0
839,52.0,-8.0,33.0,1644591694.75,P04,D04,0,0,0
840,52.0,-8.0,33.0,1644591694.78125,P04,D04,0,0,0
841,52.0,-8.0,33.0,1644591694.8125,P04,D04,0,0,0
842,52.0,-8.0,33.0,1644591694.84375,P04,D04,0,0,0
843,52.0,-8.0,33.0,1644591694.875,P04,D04,0,0,0
844,52.0,-8.0,33.0,1644591694.90625,P04,D04,0,0,0
845,52.0,-8.0,33.0,1644591694.9375,P04,D04,0,0,0
846,52.0,-8.0,33.0,1644591694.96875,P04,D04,0,0,0
847,52.0,-8.0,33.0,1644591695.0,P04,D04,0,0,0
848,52.0,-8.0,33.0,1644591695.03125,P04,D04,0,0,0
849,52.0,-8.0,33.0,1644591695.0625,P04,D04,0,0,0
850,52.0,-8.0,33.0,1644591695.09375,P04,D04,0,0,0
851,52.0,-8.0,33.0,1644591695.125,P04,D04,0,0,0
852,52.0,-8.0,33.0,1644591695.15625,P04,D04,0,0,0
853,52.0,-8.0,33.0,1644591695.1875,P04,D04,0,0,0
854,52.0,-8.0,33.0,1644591695.21875,P04,D04,0,0,0
855,52.0,-8.0,33.0,1644591695.25,P04,D04,0,0,0
856,52.0,-8.0,33.0,1644591695.28125,P04,D04,0,0,0
857,52.0,-8.0,33.0,1644591695.3125,P04,D04,0,0,0
858,52.0,-8.0,33.0,1644591695.34375,P04,D04,0,0,0
859,52.0,-8.0,33.0,1644591695.375,P04,D04,0,0,0
860,52.0,-8.0,33.0,1644591695.40625,P04,D04,0,0,0
861,52.0,-8.0,33.0,1644591695.4375,P04,D04,0,0,0
862,52.0,-8.0,33.0,1644591695.46875,P04,D04,0,0,0
863,52.0,-8.0,33.0,1644591695.5,P04,D04,0,0,0
864,52.0,-8.0,33.0,1644591695.53125,P04,D04,0,0,0
865,52.0,-8.0,33.0,1644591695.5625,P04,D04,0,0,0
866,52.0,-8.0,33.0,1644591695.59375,P04,D04,0,0,0
867,52.0,-8.0,33.0,1644591695.625,P04,D04,0,0,0
868,52.0,-8.0,33.0,1644591695.65625,P04,D04,0,0,0
869,52.0,-8.0,33.0,1644591695.6875,P04,D04,0,0,0
870,52.0,-8.0,33.0,1644591695.71875,P04,D04,0,0,0
871,52.0,-8.0,33.0,1644591695.75,P04,D04,0,0,0
872,52.0,-8.0,33.0,1644591695.78125,P04,D04,0,0,0
873,52.0,-8.0,33.0,1644591695.8125,P04,D04,0,0,0
874,52.0,-8.0,33.0,1644591695.84375,P04,D04,0,0,0
875,52.0,-8.0,33.0,1644591695.875,P04,D04,0,0,0
876,52.0,-8.0,33.0,1644591695.90625,P04,D04,0,0,0
877,52.0,-8.0,33.0,1644591695.9375,P04,D04,0,0,0
878,52.0,-8.0,33.0,1644591695.96875,P04,D04,0,0,0
879,52.0,-8.0,33.0,1644591696.0,P04,D04,0,0,0
880,52.0,-8.0,33.0,1644591696.03125,P04,D04,0,0,0
881,52.0,-8.0,33.0,1644591696.0625,P04,D04,0,0,0
882,52.0,-8.0,33.0,1644591696.09375,P04,D04,0,0,0
883,52.0,-8.0,33.0,1644591696.125,P04,D04,0,0,0
884,52.0,-8.0,32.0,1644591696.15625,P04,D04,0,0,0
885,52.0,-8.0,33.0,1644591696.1875,P04,D04,0,0,0
886,52.0,-8.0,33.0,1644591696.21875,P04,D04,0,0,0
887,52.0,-8.0,33.0,1644591696.25,P04,D04,0,0,0
888,52.0,-8.0,33.0,1644591696.28125,P04,D04,0,0,0
889,52.0,-8.0,33.0,1644591696.3125,P04,D04,0,0,0
890,52.0,-8.0,33.0,1644591696.34375,P04,D04,0,0,0
891,52.0,-8.0,33.0,1644591696.375,P04,D04,0,0,0
892,52.0,-8.0,32.0,1644591696.40625,P04,D04,0,0,0
893,52.0,-8.0,33.0,1644591696.4375,P04,D04,0,0,0
894,52.0,-8.0,33.0,1644591696.46875,P04,D04,0,0,0
895,52.0,-8.0,33.0,1644591696.5,P04,D04,0,0,0
896,52.0,-8.0,33.0,1644591696.53125,P04,D04,0,0,0
897,52.0,-8.0,33.0,1644591696.5625,P04,D04,0,0,0
898,52.0,-8.0,33.0,1644591696.59375,P04,D04,0,0,0
899,52.0,-8.0,33.0,1644591696.625,P04,D04,0,0,0
900,52.0,-8.0,33.0,1644591696.65625,P04,D04,0,0,0
901,52.0,-8.0,33.0,1644591696.6875,P04,D04,0,0,0
902,52.0,-8.0,33.0,1644591696.71875,P04,D04,0,0,0
903,52.0,-8.0,33.0,1644591696.75,P04,D04,0,0,0
904,52.0,-8.0,33.0,1644591696.78125,P04,D04,0,0,0
905,52.0,-8.0,33.0,1644591696.8125,P04,D04,0,0,0
906,52.0,-8.0,33.0,1644591696.84375,P04,D04,0,0,0
907,52.0,-8.0,33.0,1644591696.875,P04,D04,0,0,0
908,52.0,-8.0,33.0,1644591696.90625,P04,D04,0,0,0
909,52.0,-8.0,33.0,1644591696.9375,P04,D04,0,0,0
910,52.0,-8.0,32.0,1644591696.96875,P04,D04,0,0,0
911,52.0,-8.0,33.0,1644591697.0,P04,D04,0,0,0
912,53.0,-8.0,33.0,1644591697.03125,P04,D04,0,0,0
913,53.0,-8.0,33.0,1644591697.0625,P04,D04,0,0,0
914,52.0,-8.0,33.0,1644591697.09375,P04,D04,0,0,0
915,52.0,-8.0,33.0,1644591697.125,P04,D04,0,0,0
916,52.0,-8.0,33.0,1644591697.15625,P04,D04,0,0,0
917,52.0,-8.0,33.0,1644591697.1875,P04,D04,0,0,0
918,52.0,-8.0,33.0,1644591697.21875,P04,D04,0,0,0
919,52.0,-8.0,33.0,1644591697.25,P04,D04,0,0,0
920,52.0,-8.0,33.0,1644591697.28125,P04,D04,0,0,0
921,52.0,-8.0,33.0,1644591697.3125,P04,D04,0,0,0
922,52.0,-8.0,33.0,1644591697.34375,P04,D04,0,0,0
923,52.0,-8.0,33.0,1644591697.375,P04,D04,0,0,0
924,52.0,-8.0,33.0,1644591697.40625,P04,D04,0,0,0
925,52.0,-8.0,33.0,1644591697.4375,P04,D04,0,0,0
926,52.0,-8.0,33.0,1644591697.46875,P04,D04,0,0,0
927,52.0,-8.0,33.0,1644591697.5,P04,D04,0,0,0
928,52.0,-8.0,33.0,1644591697.53125,P04,D04,0,0,0
929,52.0,-8.0,33.0,1644591697.5625,P04,D04,0,0,0
930,52.0,-8.0,33.0,1644591697.59375,P04,D04,0,0,0
931,52.0,-8.0,33.0,1644591697.625,P04,D04,0,0,0
932,52.0,-8.0,33.0,1644591697.65625,P04,D04,0,0,0
933,52.0,-8.0,33.0,1644591697.6875,P04,D04,0,0,0
934,52.0,-8.0,33.0,1644591697.71875,P04,D04,0,0,0
935,52.0,-8.0,33.0,1644591697.75,P04,D04,0,0,0
936,52.0,-8.0,33.0,1644591697.78125,P04,D04,0,0,0
937,52.0,-8.0,33.0,1644591697.8125,P04,D04,0,0,0
938,52.0,-8.0,33.0,1644591697.84375,P04,D04,0,0,0
939,52.0,-8.0,33.0,1644591697.875,P04,D04,0,0,0
940,52.0,-8.0,33.0,1644591697.90625,P04,D04,0,0,0
941,52.0,-8.0,33.0,1644591697.9375,P04,D04,0,0,0
942,52.0,-8.0,33.0,1644591697.96875,P04,D04,0,0,0
943,52.0,-8.0,33.0,1644591698.0,P04,D04,0,0,0
944,52.0,-8.0,33.0,1644591698.03125,P04,D04,0,0,0
945,52.0,-8.0,33.0,1644591698.0625,P04,D04,0,0,0
946,52.0,-8.0,33.0,1644591698.09375,P04,D04,0,0,0
947,52.0,-8.0,33.0,1644591698.125,P04,D04,0,0,0
948,52.0,-8.0,33.0,1644591698.15625,P04,D04,0,0,0
949,52.0,-8.0,33.0,1644591698.1875,P04,D04,0,0,0
950,52.0,-8.0,33.0,1644591698.21875,P04,D04,0,0,0
951,52.0,-8.0,33.0,1644591698.25,P04,D04,0,0,0
952,52.0,-8.0,33.0,1644591698.28125,P04,D04,0,0,0
953,52.0,-8.0,33.0,1644591698.3125,P04,D04,0,0,0
954,52.0,-8.0,33.0,1644591698.34375,P04,D04,0,0,0
955,52.0,-8.0,33.0,1644591698.375,P04,D04,0,0,0
956,52.0,-8.0,33.0,1644591698.40625,P04,D04,0,0,0
957,52.0,-8.0,33.0,1644591698.4375,P04,D04,0,0,0
958,52.0,-8.0,33.0,1644591698.46875,P04,D04,0,0,0
959,52.0,-8.0,33.0,1644591698.5,P04,D04,0,0,0
960,52.0,-8.0,33.0,1644591698.53125,P04,D04,0,0,0
961,52.0,-8.0,33.0,1644591698.5625,P04,D04,0,0,0
962,52.0,-8.0,33.0,1644591698.59375,P04,D04,0,0,0
963,52.0,-8.0,33.0,1644591698.625,P04,D04,0,0,0
964,52.0,-8.0,33.0,1644591698.65625,P04,D04,0,0,0
965,51.0,-8.0,33.0,1644591698.6875,P04,D04,0,0,0
966,52.0,-8.0,33.0,1644591698.71875,P04,D04,0,0,0
967,52.0,-8.0,32.0,1644591698.75,P04,D04,0,0,0
968,52.0,-8.0,33.0,1644591698.78125,P04,D04,0,0,0
969,52.0,-8.0,33.0,1644591698.8125,P04,D04,0,0,0
970,52.0,-8.0,32.0,1644591698.84375,P04,D04,0,0,0
971,53.0,-8.0,33.0,1644591698.875,P04,D04,0,0,0
972,52.0,-8.0,33.0,1644591698.90625,P04,D04,0,0,0
973,52.0,-8.0,33.0,1644591698.9375,P04,D04,0,0,0
974,52.0,-8.0,33.0,1644591698.96875,P04,D04,0,0,0
975,52.0,-8.0,33.0,1644591699.0,P04,D04,0,0,0
976,52.0,-8.0,33.0,1644591699.03125,P04,D04,0,0,0
977,52.0,-8.0,33.0,1644591699.0625,P04,D04,0,0,0
978,52.0,-8.0,33.0,1644591699.09375,P04,D04,0,0,0
979,52.0,-8.0,33.0,1644591699.125,P04,D04,0,0,0
980,52.0,-8.0,33.0,1644591699.15625,P04,D04,0,0,0
981,52.0,-8.0,33.0,1644591699.1875,P04,D04,0,0,0
982,52.0,-8.0,32.0,1644591699.21875,P04,D04,0,0,0
983,52.0,-8.0,32.0,1644591699.25,P04,D04,0,0,0
984,52.0,-8.0,33.0,1644591699.28125,P04,D04,0,0,0
985,52.0,-8.0,33.0,1644591699.3125,P04,D04,0,0,0
986,52.0,-8.0,33.0,1644591699.34375,P04,D04,0,0,0
987,52.0,-8.0,33.0,1644591699.375,P04,D04,0,0,0
988,52.0,-8.0,33.0,1644591699.40625,P04,D04,0,0,0
989,52.0,-8.0,33.0,1644591699.4375,P04,D04,0,0,0
990,52.0,-8.0,33.0,1644591699.46875,P04,D04,0,0,0
991,52.0,-8.0,33.0,1644591699.5,P04,D04,0,0,0
992,52.0,-8.0,33.0,1644591699.53125,P04,D04,0,0,0
993,52.0,-8.0,33.0,1644591699.5625,P04,D04,0,0,0
994,52.0,-8.0,32.0,1644591699.59375,P04,D04,0,0,0
995,52.0,-8.0,33.0,1644591699.625,P04,D04,0,0,0
996,52.0,-8.0,33.0,1644591699.65625,P04,D04,0,0,0
997,52.0,-8.0,33.0,1644591699.6875,P04,D04,0,0,0
998,52.0,-8.0,33.0,1644591699.71875,P04,D04,0,0,0
999,52.0,-8.0,33.0,1644591699.75,P04,D04,0,0,0
1000,52.0,-8.0,33.0,1644591699.78125,P04,D04,0,0,0
1001,52.0,-8.0,33.0,1644591699.8125,P04,D04,0,0,0
1002,52.0,-8.0,33.0,1644591699.84375,P04,D04,0,0,0
1003,52.0,-8.0,33.0,1644591699.875,P04,D04,0,0,0
1004,52.0,-8.0,33.0,1644591699.90625,P04,D04,0,0,0
1005,52.0,-8.0,33.0,1644591699.9375,P04,D04,0,0,0
1006,53.0,-8.0,33.0,1644591699.96875,P04,D04,0,0,0
1007,52.0,-8.0,33.0,1644591700.0,P04,D04,0,0,0
1008,52.0,-8.0,33.0,1644591700.03125,P04,D04,0,0,0
1009,52.0,-8.0,33.0,1644591700.0625,P04,D04,0,0,0
1010,52.0,-8.0,33.0,1644591700.09375,P04,D04,0,0,0
1011,52.0,-8.0,33.0,1644591700.125,P04,D04,0,0,0
1012,52.0,-8.0,33.0,1644591700.15625,P04,D04,0,0,0
1013,52.0,-8.0,33.0,1644591700.1875,P04,D04,0,0,0
1014,52.0,-8.0,33.0,1644591700.21875,P04,D04,0,0,0
1015,52.0,-8.0,33.0,1644591700.25,P04,D04,0,0,0
1016,52.0,-8.0,33.0,1644591700.28125,P04,D04,0,0,0
1017,52.0,-8.0,33.0,1644591700.3125,P04,D04,0,0,0
1018,52.0,-8.0,33.0,1644591700.34375,P04,D04,0,0,0
1019,52.0,-8.0,33.0,1644591700.375,P04,D04,0,0,0
1020,52.0,-8.0,33.0,1644591700.40625,P04,D04,0,0,0
1021,52.0,-8.0,33.0,1644591700.4375,P04,D04,0,0,0
1022,52.0,-8.0,33.0,1644591700.46875,P04,D04,0,0,0
1023,52.0,-8.0,33.0,1644591700.5,P04,D04,0,0,0
1024,52.0,-8.0,33.0,1644591700.53125,P04,D04,0,0,0
1025,52.0,-8.0,33.0,1644591700.5625,P04,D04,0,0,0
1026,52.0,-8.0,33.0,1644591700.59375,P04,D04,0,0,0
1027,52.0,-8.0,33.0,1644591700.625,P04,D04,0,0,0
1028,52.0,-8.0,33.0,1644591700.65625,P04,D04,0,0,0
1029,52.0,-8.0,33.0,1644591700.6875,P04,D04,0,0,0
1030,52.0,-8.0,33.0,1644591700.71875,P04,D04,0,0,0
1031,52.0,-8.0,33.0,1644591700.75,P04,D04,0,0,0
1032,52.0,-8.0,33.0,1644591700.78125,P04,D04,0,0,0
1033,52.0,-8.0,33.0,1644591700.8125,P04,D04,0,0,0
1034,52.0,-8.0,33.0,1644591700.84375,P04,D04,0,0,0
1035,52.0,-8.0,33.0,1644591700.875,P04,D04,0,0,0
1036,52.0,-8.0,33.0,1644591700.90625,P04,D04,0,0,0
1037,52.0,-8.0,33.0,1644591700.9375,P04,D04,0,0,0
1038,52.0,-8.0,33.0,1644591700.96875,P04,D04,0,0,0
1039,52.0,-8.0,33.0,1644591701.0,P04,D04,0,0,0
1040,52.0,-8.0,33.0,1644591701.03125,P04,D04,0,0,0
1041,52.0,-8.0,33.0,1644591701.0625,P04,D04,0,0,0
1042,52.0,-8.0,33.0,1644591701.09375,P04,D04,0,0,0
1043,52.0,-8.0,33.0,1644591701.125,P04,D04,0,0,0
1044,52.0,-8.0,33.0,1644591701.15625,P04,D04,0,0,0
1045,52.0,-8.0,33.0,1644591701.1875,P04,D04,0,0,0
1046,52.0,-8.0,33.0,1644591701.21875,P04,D04,0,0,0
1047,52.0,-8.0,33.0,1644591701.25,P04,D04,0,0,0
1048,52.0,-8.0,33.0,1644591701.28125,P04,D04,0,0,0
1049,52.0,-8.0,32.0,1644591701.3125,P04,D04,0,0,0
1050,52.0,-8.0,33.0,1644591701.34375,P04,D04,0,0,0
1051,52.0,-8.0,33.0,1644591701.375,P04,D04,0,0,0
1052,52.0,-8.0,33.0,1644591701.40625,P04,D04,0,0,0
1053,52.0,-8.0,33.0,1644591701.4375,P04,D04,0,0,0
1054,52.0,-8.0,33.0,1644591701.46875,P04,D04,0,0,0
1055,52.0,-8.0,33.0,1644591701.5,P04,D04,0,0,0
1056,52.0,-8.0,32.0,1644591701.53125,P04,D04,0,0,0
1057,52.0,-8.0,33.0,1644591701.5625,P04,D04,0,0,0
1058,52.0,-8.0,33.0,1644591701.59375,P04,D04,0,0,0
1059,52.0,-8.0,33.0,1644591701.625,P04,D04,0,0,0
1060,52.0,-8.0,33.0,1644591701.65625,P04,D04,0,0,0
1061,52.0,-8.0,33.0,1644591701.6875,P04,D04,0,0,0
1062,52.0,-8.0,33.0,1644591701.71875,P04,D04,0,0,0
1063,52.0,-8.0,33.0,1644591701.75,P04,D04,0,0,0
1064,52.0,-8.0,33.0,1644591701.78125,P04,D04,0,0,0
1065,52.0,-8.0,33.0,1644591701.8125,P04,D04,0,0,0
1066,52.0,-8.0,33.0,1644591701.84375,P04,D04,0,0,0
1067,52.0,-8.0,33.0,1644591701.875,P04,D04,0,0,0
1068,52.0,-8.0,33.0,1644591701.90625,P04,D04,0,0,0
1069,52.0,-8.0,33.0,1644591701.9375,P04,D04,0,0,0
1070,52.0,-8.0,32.0,1644591701.96875,P04,D04,0,0,0
1071,52.0,-8.0,33.0,1644591702.0,P04,D04,0,0,0
1072,52.0,-8.0,33.0,1644591702.03125,P04,D04,0,0,0
1073,52.0,-8.0,33.0,1644591702.0625,P04,D04,0,0,0
1074,52.0,-8.0,33.0,1644591702.09375,P04,D04,0,0,0
1075,52.0,-8.0,33.0,1644591702.125,P04,D04,0,0,0
1076,52.0,-8.0,33.0,1644591702.15625,P04,D04,0,0,0
1077,52.0,-8.0,33.0,1644591702.1875,P04,D04,0,0,0
1078,52.0,-8.0,33.0,1644591702.21875,P04,D04,0,0,0
1079,52.0,-8.0,33.0,1644591702.25,P04,D04,0,0,0
1080,52.0,-8.0,33.0,1644591702.28125,P04,D04,0,0,0
1081,52.0,-8.0,33.0,1644591702.3125,P04,D04,0,0,0
1082,52.0,-8.0,33.0,1644591702.34375,P04,D04,0,0,0
1083,52.0,-8.0,32.0,1644591702.375,P04,D04,0,0,0
1084,52.0,-8.0,33.0,1644591702.40625,P04,D04,0,0,0
1085,52.0,-8.0,33.0,1644591702.4375,P04,D04,0,0,0
1086,52.0,-8.0,33.0,1644591702.46875,P04,D04,0,0,0
1087,52.0,-8.0,33.0,1644591702.5,P04,D04,0,0,0
1088,52.0,-8.0,32.0,1644591702.53125,P04,D04,0,0,0
1089,52.0,-8.0,33.0,1644591702.5625,P04,D04,0,0,0
1090,52.0,-8.0,33.0,1644591702.59375,P04,D04,0,0,0
1091,52.0,-8.0,33.0,1644591702.625,P04,D04,0,0,0
1092,52.0,-8.0,33.0,1644591702.65625,P04,D04,0,0,0
1093,52.0,-8.0,33.0,1644591702.6875,P04,D04,0,0,0
1094,52.0,-8.0,33.0,1644591702.71875,P04,D04,0,0,0
1095,52.0,-8.0,33.0,1644591702.75,P04,D04,0,0,0
1096,52.0,-8.0,33.0,1644591702.78125,P04,D04,0,0,0
1097,52.0,-8.0,33.0,1644591702.8125,P04,D04,0,0,0
1098,52.0,-8.0,33.0,1644591702.84375,P04,D04,0,0,0
1099,52.0,-8.0,33.0,1644591702.875,P04,D04,0,0,0
1100,52.0,-8.0,33.0,1644591702.90625,P04,D04,0,0,0
1101,52.0,-8.0,33.0,1644591702.9375,P04,D04,0,0,0
1102,52.0,-8.0,33.0,1644591702.96875,P04,D04,0,0,0
1103,52.0,-8.0,33.0,1644591703.0,P04,D04,0,0,0
1104,52.0,-8.0,33.0,1644591703.03125,P04,D04,0,0,0
1105,52.0,-8.0,33.0,1644591703.0625,P04,D04,0,0,0
1106,52.0,-8.0,33.0,1644591703.09375,P04,D04,0,0,0
1107,52.0,-8.0,33.0,1644591703.125,P04,D04,0,0,0
1108,52.0,-8.0,33.0,1644591703.15625,P04,D04,0,0,0
1109,52.0,-8.0,33.0,1644591703.1875,P04,D04,0,0,0
1110,52.0,-8.0,33.0,1644591703.21875,P04,D04,0,0,0
1111,52.0,-8.0,33.0,1644591703.25,P04,D04,0,0,0
1112,52.0,-8.0,33.0,1644591703.28125,P04,D04,0,0,0
1113,52.0,-8.0,33.0,1644591703.3125,P04,D04,0,0,0
1114,52.0,-8.0,33.0,1644591703.34375,P04,D04,0,0,0
1115,52.0,-8.0,33.0,1644591703.375,P04,D04,0,0,0
1116,52.0,-8.0,33.0,1644591703.40625,P04,D04,0,0,0
1117,52.0,-8.0,33.0,1644591703.4375,P04,D04,0,0,0
1118,52.0,-8.0,33.0,1644591703.46875,P04,D04,0,0,0
1119,52.0,-8.0,33.0,1644591703.5,P04,D04,0,0,0
1120,52.0,-8.0,33.0,1644591703.53125,P04,D04,0,0,0
1121,52.0,-8.0,33.0,1644591703.5625,P04,D04,0,0,0
1122,52.0,-8.0,33.0,1644591703.59375,P04,D04,0,0,0
1123,52.0,-8.0,33.0,1644591703.625,P04,D04,0,0,0
1124,52.0,-8.0,33.0,1644591703.65625,P04,D04,0,0,0
1125,52.0,-8.0,33.0,1644591703.6875,P04,D04,0,0,0
1126,52.0,-8.0,33.0,1644591703.71875,P04,D04,0,0,0
1127,52.0,-8.0,33.0,1644591703.75,P04,D04,0,0,0
1128,52.0,-8.0,33.0,1644591703.78125,P04,D04,0,0,0
1129,52.0,-8.0,33.0,1644591703.8125,P04,D04,0,0,0
1130,52.0,-8.0,33.0,1644591703.84375,P04,D04,0,0,0
1131,52.0,-8.0,33.0,1644591703.875,P04,D04,0,0,0
1132,52.0,-8.0,33.0,1644591703.90625,P04,D04,0,0,0
1133,52.0,-8.0,33.0,1644591703.9375,P04,D04,0,0,0
1134,52.0,-8.0,33.0,1644591703.96875,P04,D04,0,0,0
1135,52.0,-8.0,33.0,1644591704.0,P04,D04,0,0,0
1136,52.0,-8.0,33.0,1644591704.03125,P04,D04,0,0,0
1137,52.0,-8.0,33.0,1644591704.0625,P04,D04,0,0,0
1138,52.0,-8.0,33.0,1644591704.09375,P04,D04,0,0,0
1139,52.0,-8.0,33.0,1644591704.125,P04,D04,0,0,0
1140,52.0,-8.0,33.0,1644591704.15625,P04,D04,0,0,0
1141,52.0,-8.0,33.0,1644591704.1875,P04,D04,0,0,0
1142,52.0,-8.0,33.0,1644591704.21875,P04,D04,0,0,0
1143,52.0,-8.0,33.0,1644591704.25,P04,D04,0,0,0
1144,52.0,-8.0,33.0,1644591704.28125,P04,D04,0,0,0
1145,52.0,-8.0,33.0,1644591704.3125,P04,D04,0,0,0
1146,52.0,-8.0,33.0,1644591704.34375,P04,D04,0,0,0
1147,52.0,-8.0,33.0,1644591704.375,P04,D04,0,0,0
1148,52.0,-8.0,33.0,1644591704.40625,P04,D04,0,0,0
1149,52.0,-8.0,33.0,1644591704.4375,P04,D04,0,0,0
1150,52.0,-8.0,33.0,1644591704.46875,P04,D04,0,0,0
1151,52.0,-8.0,33.0,1644591704.5,P04,D04,0,0,0
1152,52.0,-8.0,33.0,1644591704.53125,P04,D04,0,0,0
1153,52.0,-8.0,33.0,1644591704.5625,P04,D04,0,0,0
1154,52.0,-8.0,33.0,1644591704.59375,P04,D04,0,0,0
1155,52.0,-8.0,33.0,1644591704.625,P04,D04,0,0,0
1156,52.0,-8.0,33.0,1644591704.65625,P04,D04,0,0,0
1157,52.0,-8.0,33.0,1644591704.6875,P04,D04,0,0,0
1158,52.0,-8.0,33.0,1644591704.71875,P04,D04,0,0,0
1159,52.0,-8.0,32.0,1644591704.75,P04,D04,0,0,0
1160,52.0,-8.0,32.0,1644591704.78125,P04,D04,0,0,0
1161,52.0,-8.0,32.0,1644591704.8125,P04,D04,0,0,0
1162,52.0,-8.0,33.0,1644591704.84375,P04,D04,0,0,0
1163,52.0,-8.0,33.0,1644591704.875,P04,D04,0,0,0
1164,52.0,-8.0,33.0,1644591704.90625,P04,D04,0,0,0
1165,52.0,-8.0,33.0,1644591704.9375,P04,D04,0,0,0
1166,52.0,-8.0,33.0,1644591704.96875,P04,D04,0,0,0
1167,52.0,-8.0,32.0,1644591705.0,P04,D04,0,0,0
1168,52.0,-8.0,32.0,1644591705.03125,P04,D04,0,0,0
1169,52.0,-8.0,32.0,1644591705.0625,P04,D04,0,0,0
1170,52.0,-8.0,32.0,1644591705.09375,P04,D04,0,0,0
1171,52.0,-8.0,32.0,1644591705.125,P04,D04,0,0,0
1172,52.0,-8.0,33.0,1644591705.15625,P04,D04,0,0,0
1173,52.0,-8.0,32.0,1644591705.1875,P04,D04,0,0,0
1174,52.0,-8.0,32.0,1644591705.21875,P04,D04,0,0,0
1175,52.0,-8.0,32.0,1644591705.25,P04,D04,0,0,0
1176,52.0,-8.0,33.0,1644591705.28125,P04,D04,0,0,0
1177,52.0,-8.0,32.0,1644591705.3125,P04,D04,0,0,0
1178,52.0,-8.0,33.0,1644591705.34375,P04,D04,0,0,0
1179,52.0,-8.0,33.0,1644591705.375,P04,D04,0,0,0
1180,52.0,-8.0,33.0,1644591705.40625,P04,D04,0,0,0
1181,52.0,-8.0,32.0,1644591705.4375,P04,D04,0,0,0
1182,52.0,-8.0,32.0,1644591705.46875,P04,D04,0,0,0
1183,52.0,-8.0,32.0,1644591705.5,P04,D04,0,0,0
1184,53.0,-8.0,32.0,1644591705.53125,P04,D04,0,0,0
1185,52.0,-8.0,33.0,1644591705.5625,P04,D04,0,0,0
1186,52.0,-8.0,33.0,1644591705.59375,P04,D04,0,0,0
1187,52.0,-8.0,32.0,1644591705.625,P04,D04,0,0,0
1188,52.0,-8.0,33.0,1644591705.65625,P04,D04,0,0,0
1189,52.0,-8.0,33.0,1644591705.6875,P04,D04,0,0,0
1190,52.0,-8.0,33.0,1644591705.71875,P04,D04,0,0,0
1191,52.0,-8.0,32.0,1644591705.75,P04,D04,0,0,0
1192,52.0,-8.0,33.0,1644591705.78125,P04,D04,0,0,0
1193,52.0,-8.0,33.0,1644591705.8125,P04,D04,0,0,0
1194,52.0,-8.0,32.0,1644591705.84375,P04,D04,0,0,0
1195,52.0,-8.0,33.0,1644591705.875,P04,D04,0,0,0
1196,52.0,-8.0,33.0,1644591705.90625,P04,D04,0,0,0
1197,52.0,-8.0,33.0,1644591705.9375,P04,D04,0,0,0
1198,52.0,-8.0,33.0,1644591705.96875,P04,D04,0,0,0
1199,52.0,-8.0,33.0,1644591706.0,P04,D04,0,0,0
1200,52.0,-8.0,33.0,1644591706.03125,P04,D04,0,0,0
1201,52.0,-8.0,33.0,1644591706.0625,P04,D04,0,0,0
1202,52.0,-8.0,33.0,1644591706.09375,P04,D04,0,0,0
1203,52.0,-8.0,33.0,1644591706.125,P04,D04,0,0,0
1204,52.0,-8.0,32.0,1644591706.15625,P04,D04,0,0,0
1205,52.0,-8.0,33.0,1644591706.1875,P04,D04,0,0,0
1206,52.0,-8.0,33.0,1644591706.21875,P04,D04,0,0,0
1207,52.0,-8.0,33.0,1644591706.25,P04,D04,0,0,0
1208,52.0,-8.0,33.0,1644591706.28125,P04,D04,0,0,0
1209,52.0,-8.0,33.0,1644591706.3125,P04,D04,0,0,0
1210,52.0,-8.0,33.0,1644591706.34375,P04,D04,0,0,0
1211,52.0,-8.0,33.0,1644591706.375,P04,D04,0,0,0
1212,52.0,-8.0,33.0,1644591706.40625,P04,D04,0,0,0
1213,52.0,-8.0,33.0,1644591706.4375,P04,D04,0,0,0
1214,52.0,-8.0,33.0,1644591706.46875,P04,D04,0,0,0
1215,52.0,-8.0,33.0,1644591706.5,P04,D04,0,0,0
1216,52.0,-8.0,33.0,1644591706.53125,P04,D04,0,0,0
1217,52.0,-8.0,33.0,1644591706.5625,P04,D04,0,0,0
1218,52.0,-8.0,33.0,1644591706.59375,P04,D04,0,0,0
1219,52.0,-8.0,33.0,1644591706.625,P04,D04,0,0,0
1220,52.0,-8.0,33.0,1644591706.65625,P04,D04,0,0,0
1221,52.0,-8.0,33.0,1644591706.6875,P04,D04,0,0,0
1222,52.0,-8.0,33.0,1644591706.71875,P04,D04,0,0,0
1223,52.0,-8.0,33.0,1644591706.75,P04,D04,0,0,0
1224,52.0,-8.0,33.0,1644591706.78125,P04,D04,0,0,0
1225,52.0,-8.0,33.0,1644591706.8125,P04,D04,0,0,0
1226,52.0,-8.0,33.0,1644591706.84375,P04,D04,0,0,0
1227,52.0,-8.0,33.0,1644591706.875,P04,D04,0,0,0
1228,52.0,-8.0,32.0,1644591706.90625,P04,D04,0,0,0
1229,52.0,-8.0,33.0,1644591706.9375,P04,D04,0,0,0
1230,52.0,-8.0,33.0,1644591706.96875,P04,D04,0,0,0
1231,52.0,-8.0,33.0,1644591707.0,P04,D04,0,0,0
1232,52.0,-8.0,33.0,1644591707.03125,P04,D04,0,0,0
1233,52.0,-8.0,32.0,1644591707.0625,P04,D04,0,0,0
1234,52.0,-8.0,33.0,1644591707.09375,P04,D04,0,0,0
1235,52.0,-8.0,33.0,1644591707.125,P04,D04,0,0,0
1236,52.0,-8.0,32.0,1644591707.15625,P04,D04,0,0,0
1237,52.0,-8.0,33.0,1644591707.1875,P04,D04,0,0,0
1238,52.0,-8.0,33.0,1644591707.21875,P04,D04,0,0,0
1239,52.0,-8.0,33.0,1644591707.25,P04,D04,0,0,0
1240,52.0,-8.0,33.0,1644591707.28125,P04,D04,0,0,0
1241,52.0,-8.0,32.0,1644591707.3125,P04,D04,0,0,0
1242,52.0,-8.0,33.0,1644591707.34375,P04,D04,0,0,0
1243,52.0,-8.0,33.0,1644591707.375,P04,D04,0,0,0
1244,52.0,-8.0,32.0,1644591707.40625,P04,D04,0,0,0
1245,52.0,-8.0,32.0,1644591707.4375,P04,D04,0,0,0
1246,52.0,-8.0,32.0,1644591707.46875,P04,D04,0,0,0
1247,52.0,-8.0,33.0,1644591707.5,P04,D04,0,0,0
1248,52.0,-8.0,32.0,1644591707.53125,P04,D04,0,0,0
1249,52.0,-8.0,32.0,1644591707.5625,P04,D04,0,0,0
1250,52.0,-8.0,32.0,1644591707.59375,P04,D04,0,0,0
1251,52.0,-8.0,32.0,1644591707.625,P04,D04,0,0,0
1252,52.0,-8.0,33.0,1644591707.65625,P04,D04,0,0,0
1253,52.0,-8.0,32.0,1644591707.6875,P04,D04,0,0,0
1254,52.0,-8.0,33.0,1644591707.71875,P04,D04,0,0,0
1255,52.0,-8.0,33.0,1644591707.75,P04,D04,0,0,0
1256,52.0,-8.0,32.0,1644591707.78125,P04,D04,0,0,0
1257,52.0,-8.0,32.0,1644591707.8125,P04,D04,0,0,0
1258,52.0,-8.0,32.0,1644591707.84375,P04,D04,0,0,0
1259,52.0,-8.0,32.0,1644591707.875,P04,D04,0,0,0
1260,52.0,-8.0,33.0,1644591707.90625,P04,D04,0,0,0
1261,52.0,-8.0,32.0,1644591707.9375,P04,D04,0,0,0
1262,52.0,-8.0,32.0,1644591707.96875,P04,D04,0,0,0
1263,52.0,-8.0,33.0,1644591708.0,P04,D04,0,0,0
1264,52.0,-8.0,33.0,1644591708.03125,P04,D04,0,0,0
1265,52.0,-8.0,33.0,1644591708.0625,P04,D04,0,0,0
1266,52.0,-8.0,32.0,1644591708.09375,P04,D04,0,0,0
1267,52.0,-8.0,33.0,1644591708.125,P04,D04,0,0,0
1268,52.0,-8.0,33.0,1644591708.15625,P04,D04,0,0,0
1269,52.0,-8.0,33.0,1644591708.1875,P04,D04,0,0,0
1270,52.0,-8.0,33.0,1644591708.21875,P04,D04,0,0,0
1271,52.0,-8.0,33.0,1644591708.25,P04,D04,0,0,0
1272,52.0,-8.0,33.0,1644591708.28125,P04,D04,0,0,0
1273,53.0,-8.0,33.0,1644591708.3125,P04,D04,0,0,0
1274,52.0,-8.0,33.0,1644591708.34375,P04,D04,0,0,0
1275,52.0,-8.0,33.0,1644591708.375,P04,D04,0,0,0
1276,52.0,-8.0,33.0,1644591708.40625,P04,D04,0,0,0
1277,52.0,-8.0,33.0,1644591708.4375,P04,D04,0,0,0
1278,52.0,-8.0,33.0,1644591708.46875,P04,D04,0,0,0
1279,52.0,-8.0,33.0,1644591708.5,P04,D04,0,0,0
1280,52.0,-8.0,33.0,1644591708.53125,P04,D04,0,0,0
1281,52.0,-8.0,33.0,1644591708.5625,P04,D04,0,0,0
1282,52.0,-8.0,33.0,1644591708.59375,P04,D04,0,0,0
1283,52.0,-8.0,33.0,1644591708.625,P04,D04,0,0,0
1284,52.0,-8.0,33.0,1644591708.65625,P04,D04,0,0,0
1285,52.0,-8.0,33.0,1644591708.6875,P04,D04,0,0,0
1286,53.0,-8.0,33.0,1644591708.71875,P04,D04,0,0,0
1287,52.0,-8.0,33.0,1644591708.75,P04,D04,0,0,0
1288,52.0,-8.0,33.0,1644591708.78125,P04,D04,0,0,0
1289,52.0,-8.0,33.0,1644591708.8125,P04,D04,0,0,0
1290,52.0,-8.0,33.0,1644591708.84375,P04,D04,0,0,0
1291,52.0,-8.0,33.0,1644591708.875,P04,D04,0,0,0
1292,52.0,-8.0,33.0,1644591708.90625,P04,D04,0,0,0
1293,52.0,-8.0,33.0,1644591708.9375,P04,D04,0,0,0
1294,52.0,-8.0,33.0,1644591708.96875,P04,D04,0,0,0
1295,52.0,-8.0,33.0,1644591709.0,P04,D04,0,0,0
1296,52.0,-8.0,33.0,1644591709.03125,P04,D04,0,0,0
1297,52.0,-8.0,33.0,1644591709.0625,P04,D04,0,0,0
1298,52.0,-8.0,33.0,1644591709.09375,P04,D04,0,0,0
1299,52.0,-8.0,33.0,1644591709.125,P04,D04,0,0,0
1300,52.0,-8.0,33.0,1644591709.15625,P04,D04,0,0,0
1301,52.0,-8.0,33.0,1644591709.1875,P04,D04,0,0,0
1302,52.0,-8.0,33.0,1644591709.21875,P04,D04,0,0,0
1303,52.0,-8.0,33.0,1644591709.25,P04,D04,0,0,0
1304,52.0,-8.0,33.0,1644591709.28125,P04,D04,0,0,0
1305,52.0,-8.0,33.0,1644591709.3125,P04,D04,0,0,0
1306,52.0,-8.0,32.0,1644591709.34375,P04,D04,0,0,0
1307,52.0,-8.0,33.0,1644591709.375,P04,D04,0,0,0
1308,52.0,-8.0,33.0,1644591709.40625,P04,D04,0,0,0
1309,52.0,-8.0,33.0,1644591709.4375,P04,D04,0,0,0
1310,52.0,-8.0,33.0,1644591709.46875,P04,D04,0,0,0
1311,52.0,-8.0,33.0,1644591709.5,P04,D04,0,0,0
1312,52.0,-8.0,33.0,1644591709.53125,P04,D04,0,0,0
1313,52.0,-8.0,33.0,1644591709.5625,P04,D04,0,0,0
1314,52.0,-8.0,33.0,1644591709.59375,P04,D04,0,0,0
1315,52.0,-8.0,32.0,1644591709.625,P04,D04,0,0,0
1316,52.0,-8.0,33.0,1644591709.65625,P04,D04,0,0,0
1317,52.0,-8.0,33.0,1644591709.6875,P04,D04,0,0,0
1318,52.0,-8.0,33.0,1644591709.71875,P04,D04,0,0,0
1319,52.0,-8.0,33.0,1644591709.75,P04,D04,0,0,0
1320,52.0,-8.0,33.0,1644591709.78125,P04,D04,0,0,0
1321,52.0,-8.0,33.0,1644591709.8125,P04,D04,0,0,0
1322,52.0,-8.0,32.0,1644591709.84375,P04,D04,0,0,0
1323,52.0,-8.0,32.0,1644591709.875,P04,D04,0,0,0
1324,52.0,-8.0,32.0,1644591709.90625,P04,D04,0,0,0
1325,52.0,-8.0,33.0,1644591709.9375,P04,D04,0,0,0
1326,52.0,-8.0,33.0,1644591709.96875,P04,D04,0,0,0
1327,52.0,-8.0,33.0,1644591710.0,P04,D04,0,0,0
1328,52.0,-8.0,32.0,1644591710.03125,P04,D04,0,0,0
1329,53.0,-8.0,33.0,1644591710.0625,P04,D04,0,0,0
1330,52.0,-8.0,32.0,1644591710.09375,P04,D04,0,0,0
1331,52.0,-8.0,32.0,1644591710.125,P04,D04,0,0,0
1332,52.0,-8.0,32.0,1644591710.15625,P04,D04,0,0,0
1333,52.0,-8.0,33.0,1644591710.1875,P04,D04,0,0,0
1334,52.0,-8.0,32.0,1644591710.21875,P04,D04,0,0,0
1335,52.0,-8.0,32.0,1644591710.25,P04,D04,0,0,0
1336,52.0,-8.0,32.0,1644591710.28125,P04,D04,0,0,0
1337,52.0,-8.0,32.0,1644591710.3125,P04,D04,0,0,0
1338,52.0,-8.0,33.0,1644591710.34375,P04,D04,0,0,0
1339,52.0,-8.0,32.0,1644591710.375,P04,D04,0,0,0
1340,52.0,-8.0,33.0,1644591710.40625,P04,D04,0,0,0
1341,52.0,-8.0,33.0,1644591710.4375,P04,D04,0,0,0
1342,52.0,-8.0,33.0,1644591710.46875,P04,D04,0,0,0
1343,52.0,-8.0,33.0,1644591710.5,P04,D04,0,0,0
1344,52.0,-8.0,32.0,1644591710.53125,P04,D04,0,0,0
1345,52.0,-8.0,32.0,1644591710.5625,P04,D04,0,0,0
1346,52.0,-8.0,33.0,1644591710.59375,P04,D04,0,0,0
1347,53.0,-8.0,33.0,1644591710.625,P04,D04,0,0,0
1348,52.0,-8.0,33.0,1644591710.65625,P04,D04,0,0,0
1349,52.0,-8.0,32.0,1644591710.6875,P04,D04,0,0,0
1350,52.0,-8.0,32.0,1644591710.71875,P04,D04,0,0,0
1351,52.0,-8.0,33.0,1644591710.75,P04,D04,0,0,0
1352,52.0,-8.0,33.0,1644591710.78125,P04,D04,0,0,0
1353,52.0,-8.0,33.0,1644591710.8125,P04,D04,0,0,0
1354,52.0,-8.0,33.0,1644591710.84375,P04,D04,0,0,0
1355,52.0,-8.0,33.0,1644591710.875,P04,D04,0,0,0
1356,52.0,-8.0,33.0,1644591710.90625,P04,D04,0,0,0
1357,52.0,-8.0,33.0,1644591710.9375,P04,D04,0,0,0
1358,52.0,-8.0,33.0,1644591710.96875,P04,D04,0,0,0
1359,52.0,-8.0,33.0,1644591711.0,P04,D04,0,0,0
1360,52.0,-8.0,33.0,1644591711.03125,P04,D04,0,0,0
1361,52.0,-8.0,33.0,1644591711.0625,P04,D04,0,0,0
1362,52.0,-8.0,33.0,1644591711.09375,P04,D04,0,0,0
1363,52.0,-8.0,33.0,1644591711.125,P04,D04,0,0,0
1364,52.0,-8.0,33.0,1644591711.15625,P04,D04,0,0,0
1365,52.0,-8.0,33.0,1644591711.1875,P04,D04,0,0,0
1366,52.0,-8.0,32.0,1644591711.21875,P04,D04,0,0,0
1367,52.0,-8.0,33.0,1644591711.25,P04,D04,0,0,0
1368,52.0,-8.0,33.0,1644591711.28125,P04,D04,0,0,0
1369,52.0,-8.0,33.0,1644591711.3125,P04,D04,0,0,0
1370,52.0,-8.0,33.0,1644591711.34375,P04,D04,0,0,0
1371,53.0,-8.0,33.0,1644591711.375,P04,D04,0,0,0
1372,53.0,-8.0,33.0,1644591711.40625,P04,D04,0,0,0
1373,52.0,-8.0,33.0,1644591711.4375,P04,D04,0,0,0
1374,52.0,-8.0,33.0,1644591711.46875,P04,D04,0,0,0
1375,52.0,-8.0,33.0,1644591711.5,P04,D04,0,0,0
1376,52.0,-8.0,33.0,1644591711.53125,P04,D04,0,0,0
1377,52.0,-8.0,33.0,1644591711.5625,P04,D04,0,0,0
1378,52.0,-8.0,33.0,1644591711.59375,P04,D04,0,0,0
1379,52.0,-8.0,33.0,1644591711.625,P04,D04,0,0,0
1380,53.0,-8.0,33.0,1644591711.65625,P04,D04,0,0,0
1381,52.0,-8.0,33.0,1644591711.6875,P04,D04,0,0,0
1382,52.0,-8.0,33.0,1644591711.71875,P04,D04,0,0,0
1383,52.0,-8.0,33.0,1644591711.75,P04,D04,0,0,0
1384,52.0,-8.0,33.0,1644591711.78125,P04,D04,0,0,0
1385,53.0,-8.0,33.0,1644591711.8125,P04,D04,0,0,0
1386,52.0,-8.0,33.0,1644591711.84375,P04,D04,0,0,0
1387,52.0,-8.0,32.0,1644591711.875,P04,D04,0,0,0
1388,51.0,-8.0,33.0,1644591711.90625,P04,D04,0,0,0
1389,52.0,-8.0,34.0,1644591711.9375,P04,D04,0,0,0
1390,51.0,-9.0,34.0,1644591711.96875,P04,D04,0,0,0
1391,53.0,-8.0,33.0,1644591712.0,P04,D04,0,0,0
1392,52.0,-8.0,33.0,1644591712.03125,P04,D04,0,0,0
1393,52.0,-9.0,34.0,1644591712.0625,P04,D04,0,0,0
1394,52.0,-9.0,34.0,1644591712.09375,P04,D04,0,0,0
1395,51.0,-10.0,33.0,1644591712.125,P04,D04,0,0,0
1396,50.0,-9.0,33.0,1644591712.15625,P04,D04,0,0,0
1397,51.0,-9.0,34.0,1644591712.1875,P04,D04,0,0,0
1398,51.0,-9.0,34.0,1644591712.21875,P04,D04,0,0,0
1399,51.0,-8.0,35.0,1644591712.25,P04,D04,0,0,0
1400,51.0,-8.0,35.0,1644591712.28125,P04,D04,0,0,0
1401,52.0,-8.0,35.0,1644591712.3125,P04,D04,0,0,0
1402,51.0,-9.0,35.0,1644591712.34375,P04,D04,0,0,0
1403,50.0,-8.0,34.0,1644591712.375,P04,D04,0,0,0
1404,52.0,-9.0,34.0,1644591712.40625,P04,D04,0,0,0
1405,53.0,-8.0,34.0,1644591712.4375,P04,D04,0,0,0
1406,50.0,-7.0,33.0,1644591712.46875,P04,D04,0,0,0
1407,49.0,-7.0,34.0,1644591712.5,P04,D04,0,0,0
1408,53.0,-6.0,35.0,1644591712.53125,P04,D04,0,0,0
1409,51.0,-7.0,35.0,1644591712.5625,P04,D04,0,0,0
1410,49.0,-7.0,36.0,1644591712.59375,P04,D04,0,0,0
1411,50.0,-7.0,38.0,1644591712.625,P04,D04,0,0,0
1412,51.0,-8.0,36.0,1644591712.65625,P04,D04,0,0,0
1413,50.0,-8.0,35.0,1644591712.6875,P04,D04,0,0,0
1414,50.0,-8.0,34.0,1644591712.71875,P04,D04,0,0,0
1415,51.0,-8.0,34.0,1644591712.75,P04,D04,0,0,0
1416,51.0,-8.0,35.0,1644591712.78125,P04,D04,0,0,0
1417,49.0,-8.0,35.0,1644591712.8125,P04,D04,0,0,0
1418,49.0,-8.0,36.0,1644591712.84375,P04,D04,0,0,0
1419,49.0,-9.0,36.0,1644591712.875,P04,D04,0,0,0
1420,49.0,-9.0,36.0,1644591712.90625,P04,D04,0,0,0
1421,50.0,-9.0,36.0,1644591712.9375,P04,D04,0,0,0
1422,50.0,-9.0,36.0,1644591712.96875,P04,D04,0,0,0
1423,50.0,-8.0,35.0,1644591713.0,P04,D04,0,0,0
1424,51.0,-8.0,35.0,1644591713.03125,P04,D04,0,0,0
1425,50.0,-8.0,35.0,1644591713.0625,P04,D04,0,0,0
1426,50.0,-8.0,34.0,1644591713.09375,P04,D04,0,0,0
1427,51.0,-9.0,34.0,1644591713.125,P04,D04,0,0,0
1428,51.0,-9.0,34.0,1644591713.15625,P04,D04,0,0,0
1429,51.0,-9.0,35.0,1644591713.1875,P04,D04,0,0,0
1430,51.0,-8.0,35.0,1644591713.21875,P04,D04,0,0,0
1431,51.0,-8.0,35.0,1644591713.25,P04,D04,0,0,0
1432,51.0,-8.0,34.0,1644591713.28125,P04,D04,0,0,0
1433,51.0,-8.0,34.0,1644591713.3125,P04,D04,0,0,0
1434,51.0,-8.0,34.0,1644591713.34375,P04,D04,0,0,0
1435,51.0,-8.0,34.0,1644591713.375,P04,D04,0,0,0
1436,51.0,-8.0,34.0,1644591713.40625,P04,D04,0,0,0
1437,51.0,-8.0,34.0,1644591713.4375,P04,D04,0,0,0
1438,51.0,-8.0,34.0,1644591713.46875,P04,D04,0,0,0
1439,51.0,-8.0,34.0,1644591713.5,P04,D04,0,0,0
1440,51.0,-8.0,34.0,1644591713.53125,P04,D04,0,0,0
1441,51.0,-8.0,34.0,1644591713.5625,P04,D04,0,0,0
1442,51.0,-8.0,34.0,1644591713.59375,P04,D04,0,0,0
1443,51.0,-8.0,34.0,1644591713.625,P04,D04,0,0,0
1444,51.0,-8.0,34.0,1644591713.65625,P04,D04,0,0,0
1445,51.0,-8.0,34.0,1644591713.6875,P04,D04,0,0,0
1446,51.0,-8.0,34.0,1644591713.71875,P04,D04,0,0,0
1447,51.0,-8.0,35.0,1644591713.75,P04,D04,0,0,0
1448,51.0,-8.0,35.0,1644591713.78125,P04,D04,0,0,0
1449,50.0,-8.0,34.0,1644591713.8125,P04,D04,0,0,0
1450,51.0,-9.0,35.0,1644591713.84375,P04,D04,0,0,0
1451,51.0,-8.0,34.0,1644591713.875,P04,D04,0,0,0
1452,51.0,-9.0,34.0,1644591713.90625,P04,D04,0,0,0
1453,51.0,-9.0,34.0,1644591713.9375,P04,D04,0,0,0
1454,50.0,-8.0,34.0,1644591713.96875,P04,D04,0,0,0
1455,51.0,-8.0,35.0,1644591714.0,P04,D04,0,0,0
1456,51.0,-8.0,35.0,1644591714.03125,P04,D04,0,0,0
1457,51.0,-8.0,34.0,1644591714.0625,P04,D04,0,0,0
1458,51.0,-8.0,34.0,1644591714.09375,P04,D04,0,0,0
1459,51.0,-8.0,34.0,1644591714.125,P04,D04,0,0,0
1460,51.0,-8.0,34.0,1644591714.15625,P04,D04,0,0,0
1461,51.0,-8.0,34.0,1644591714.1875,P04,D04,0,0,0
1462,51.0,-8.0,34.0,1644591714.21875,P04,D04,0,0,0
1463,51.0,-8.0,34.0,1644591714.25,P04,D04,0,0,0
1464,51.0,-8.0,34.0,1644591714.28125,P04,D04,0,0,0
1465,51.0,-8.0,34.0,1644591714.3125,P04,D04,0,0,0
1466,51.0,-8.0,34.0,1644591714.34375,P04,D04,0,0,0
1467,51.0,-8.0,35.0,1644591714.375,P04,D04,0,0,0
1468,51.0,-8.0,35.0,1644591714.40625,P04,D04,0,0,0
1469,51.0,-8.0,34.0,1644591714.4375,P04,D04,0,0,0
1470,51.0,-8.0,34.0,1644591714.46875,P04,D04,0,0,0
1471,51.0,-8.0,34.0,1644591714.5,P04,D04,0,0,0
1472,51.0,-8.0,34.0,1644591714.53125,P04,D04,0,0,0
1473,51.0,-8.0,34.0,1644591714.5625,P04,D04,0,0,0
1474,51.0,-8.0,34.0,1644591714.59375,P04,D04,0,0,0
1475,51.0,-8.0,34.0,1644591714.625,P04,D04,0,0,0
1476,51.0,-8.0,35.0,1644591714.65625,P04,D04,0,0,0
1477,51.0,-8.0,34.0,1644591714.6875,P04,D04,0,0,0
1478,51.0,-8.0,34.0,1644591714.71875,P04,D04,0,0,0
1479,51.0,-8.0,34.0,1644591714.75,P04,D04,0,0,0
1480,51.0,-8.0,34.0,1644591714.78125,P04,D04,0,0,0
1481,51.0,-8.0,34.0,1644591714.8125,P04,D04,0,0,0
1482,51.0,-8.0,34.0,1644591714.84375,P04,D04,0,0,0
1483,51.0,-8.0,34.0,1644591714.875,P04,D04,0,0,0
1484,51.0,-8.0,34.0,1644591714.90625,P04,D04,0,0,0
1485,51.0,-8.0,34.0,1644591714.9375,P04,D04,0,0,0
1486,51.0,-8.0,34.0,1644591714.96875,P04,D04,0,0,0
1487,51.0,-8.0,35.0,1644591715.0,P04,D04,0,0,0
1488,51.0,-8.0,34.0,1644591715.03125,P04,D04,0,0,0
1489,51.0,-8.0,34.0,1644591715.0625,P04,D04,0,0,0
1490,51.0,-8.0,35.0,1644591715.09375,P04,D04,0,0,0
1491,51.0,-8.0,34.0,1644591715.125,P04,D04,0,0,0
1492,50.0,-8.0,34.0,1644591715.15625,P04,D04,0,0,0
1493,51.0,-8.0,34.0,1644591715.1875,P04,D04,0,0,0
1494,51.0,-8.0,34.0,1644591715.21875,P04,D04,0,0,0
1495,51.0,-8.0,35.0,1644591715.25,P04,D04,0,0,0
1496,50.0,-8.0,34.0,1644591715.28125,P04,D04,0,0,0
1497,50.0,-8.0,34.0,1644591715.3125,P04,D04,0,0,0
1498,51.0,-8.0,35.0,1644591715.34375,P04,D04,0,0,0
1499,51.0,-8.0,35.0,1644591715.375,P04,D04,0,0,0
1500,51.0,-8.0,35.0,1644591715.40625,P04,D04,0,0,0
1501,50.0,-8.0,35.0,1644591715.4375,P04,D04,0,0,0
1502,50.0,-8.0,35.0,1644591715.46875,P04,D04,0,0,0
1503,51.0,-8.0,34.0,1644591715.5,P04,D04,0,0,0
1504,51.0,-8.0,34.0,1644591715.53125,P04,D04,0,0,0
1505,50.0,-8.0,34.0,1644591715.5625,P04,D04,0,0,0
1506,51.0,-8.0,35.0,1644591715.59375,P04,D04,0,0,0
1507,51.0,-8.0,35.0,1644591715.625,P04,D04,0,0,0
1508,51.0,-8.0,35.0,1644591715.65625,P04,D04,0,0,0
1509,50.0,-8.0,35.0,1644591715.6875,P04,D04,0,0,0
1510,50.0,-8.0,35.0,1644591715.71875,P04,D04,0,0,0
1511,51.0,-8.0,35.0,1644591715.75,P04,D04,0,0,0
1512,51.0,-8.0,35.0,1644591715.78125,P04,D04,0,0,0
1513,51.0,-8.0,34.0,1644591715.8125,P04,D04,0,0,0
1514,51.0,-8.0,34.0,1644591715.84375,P04,D04,0,0,0
1515,51.0,-8.0,35.0,1644591715.875,P04,D04,0,0,0
1516,51.0,-8.0,35.0,1644591715.90625,P04,D04,0,0,0
1517,51.0,-8.0,35.0,1644591715.9375,P04,D04,0,0,0
1518,51.0,-8.0,35.0,1644591715.96875,P04,D04,0,0,0
1519,51.0,-8.0,34.0,1644591716.0,P04,D04,0,0,0
1520,51.0,-8.0,35.0,1644591716.03125,P04,D04,0,0,0
1521,51.0,-8.0,35.0,1644591716.0625,P04,D04,0,0,0
1522,51.0,-8.0,35.0,1644591716.09375,P04,D04,0,0,0
1523,51.0,-8.0,35.0,1644591716.125,P04,D04,0,0,0
1524,51.0,-8.0,35.0,1644591716.15625,P04,D04,0,0,0
1525,51.0,-8.0,35.0,1644591716.1875,P04,D04,0,0,0
1526,51.0,-8.0,35.0,1644591716.21875,P04,D04,0,0,0
1527,51.0,-8.0,35.0,1644591716.25,P04,D04,0,0,0
1528,51.0,-8.0,35.0,1644591716.28125,P04,D04,0,0,0
1529,50.0,-8.0,35.0,1644591716.3125,P04,D04,0,0,0
1530,51.0,-8.0,35.0,1644591716.34375,P04,D04,0,0,0
1531,51.0,-8.0,35.0,1644591716.375,P04,D04,0,0,0
1532,50.0,-8.0,35.0,1644591716.40625,P04,D04,0,0,0
1533,51.0,-8.0,35.0,1644591716.4375,P04,D04,0,0,0
1534,51.0,-8.0,34.0,1644591716.46875,P04,D04,0,0,0
1535,51.0,-8.0,34.0,1644591716.5,P04,D04,0,0,0
1536,51.0,-8.0,35.0,1644591716.53125,P04,D04,0,0,0
1537,51.0,-8.0,35.0,1644591716.5625,P04,D04,0,0,0
1538,51.0,-8.0,35.0,1644591716.59375,P04,D04,0,0,0
1539,51.0,-8.0,35.0,1644591716.625,P04,D04,0,0,0
1540,51.0,-8.0,35.0,1644591716.65625,P04,D04,0,0,0
1541,51.0,-8.0,34.0,1644591716.6875,P04,D04,0,0,0
1542,51.0,-8.0,34.0,1644591716.71875,P04,D04,0,0,0
1543,51.0,-8.0,34.0,1644591716.75,P04,D04,0,0,0
1544,51.0,-8.0,34.0,1644591716.78125,P04,D04,0,0,0
1545,51.0,-8.0,34.0,1644591716.8125,P04,D04,0,0,0
1546,51.0,-8.0,35.0,1644591716.84375,P04,D04,0,0,0
1547,51.0,-8.0,35.0,1644591716.875,P04,D04,0,0,0
1548,51.0,-8.0,35.0,1644591716.90625,P04,D04,0,0,0
1549,51.0,-8.0,35.0,1644591716.9375,P04,D04,0,0,0
1550,51.0,-8.0,35.0,1644591716.96875,P04,D04,0,0,0
1551,51.0,-8.0,34.0,1644591717.0,P04,D04,0,0,0
1552,51.0,-8.0,34.0,1644591717.03125,P04,D04,0,0,0
1553,51.0,-8.0,34.0,1644591717.0625,P04,D04,0,0,0
1554,51.0,-8.0,34.0,1644591717.09375,P04,D04,0,0,0
1555,51.0,-8.0,34.0,1644591717.125,P04,D04,0,0,0
1556,51.0,-8.0,34.0,1644591717.15625,P04,D04,0,0,0
1557,51.0,-8.0,34.0,1644591717.1875,P04,D04,0,0,0
1558,51.0,-8.0,34.0,1644591717.21875,P04,D04,0,0,0
1559,51.0,-8.0,34.0,1644591717.25,P04,D04,0,0,0
1560,51.0,-8.0,34.0,1644591717.28125,P04,D04,0,0,0
1561,51.0,-8.0,34.0,1644591717.3125,P04,D04,0,0,0
1562,51.0,-8.0,34.0,1644591717.34375,P04,D04,0,0,0
1563,51.0,-8.0,34.0,1644591717.375,P04,D04,0,0,0
1564,51.0,-8.0,34.0,1644591717.40625,P04,D04,0,0,0
1565,51.0,-8.0,34.0,1644591717.4375,P04,D04,0,0,0
1566,51.0,-8.0,34.0,1644591717.46875,P04,D04,0,0,0
1567,51.0,-8.0,35.0,1644591717.5,P04,D04,0,0,0
1568,51.0,-8.0,34.0,1644591717.53125,P04,D04,0,0,0
1569,51.0,-8.0,34.0,1644591717.5625,P04,D04,0,0,0
1570,51.0,-8.0,35.0,1644591717.59375,P04,D04,0,0,0
1571,51.0,-8.0,35.0,1644591717.625,P04,D04,0,0,0
1572,51.0,-8.0,35.0,1644591717.65625,P04,D04,0,0,0
1573,51.0,-8.0,34.0,1644591717.6875,P04,D04,0,0,0
1574,51.0,-8.0,34.0,1644591717.71875,P04,D04,0,0,0
1575,51.0,-8.0,35.0,1644591717.75,P04,D04,0,0,0
1576,51.0,-8.0,35.0,1644591717.78125,P04,D04,0,0,0
1577,51.0,-8.0,35.0,1644591717.8125,P04,D04,0,0,0
1578,51.0,-8.0,35.0,1644591717.84375,P04,D04,0,0,0
1579,51.0,-8.0,34.0,1644591717.875,P04,D04,0,0,0
1580,51.0,-8.0,35.0,1644591717.90625,P04,D04,0,0,0
1581,51.0,-8.0,34.0,1644591717.9375,P04,D04,0,0,0
1582,51.0,-8.0,34.0,1644591717.96875,P04,D04,0,0,0
1583,51.0,-8.0,34.0,1644591718.0,P04,D04,0,0,0
1584,51.0,-8.0,34.0,1644591718.03125,P04,D04,0,0,0
1585,51.0,-8.0,34.0,1644591718.0625,P04,D04,0,0,0
1586,51.0,-8.0,35.0,1644591718.09375,P04,D04,0,0,0
1587,51.0,-8.0,35.0,1644591718.125,P04,D04,0,0,0
1588,51.0,-8.0,34.0,1644591718.15625,P04,D04,0,0,0
1589,50.0,-8.0,35.0,1644591718.1875,P04,D04,0,0,0
1590,51.0,-8.0,35.0,1644591718.21875,P04,D04,0,0,0
1591,51.0,-8.0,35.0,1644591718.25,P04,D04,0,0,0
1592,51.0,-8.0,35.0,1644591718.28125,P04,D04,0,0,0
1593,51.0,-8.0,34.0,1644591718.3125,P04,D04,0,0,0
1594,51.0,-8.0,34.0,1644591718.34375,P04,D04,0,0,0
1595,50.0,-8.0,35.0,1644591718.375,P04,D04,0,0,0
1596,51.0,-8.0,35.0,1644591718.40625,P04,D04,0,0,0
1597,50.0,-8.0,35.0,1644591718.4375,P04,D04,0,0,0
1598,50.0,-8.0,34.0,1644591718.46875,P04,D04,0,0,0
1599,51.0,-8.0,34.0,1644591718.5,P04,D04,0,0,0
1600,51.0,-7.0,35.0,1644591718.53125,P04,D04,0,0,0
1601,50.0,-7.0,35.0,1644591718.5625,P04,D04,0,0,0
1602,51.0,-7.0,35.0,1644591718.59375,P04,D04,0,0,0
1603,51.0,-8.0,34.0,1644591718.625,P04,D04,0,0,0
1604,52.0,-8.0,34.0,1644591718.65625,P04,D04,0,0,0
1605,52.0,-8.0,34.0,1644591718.6875,P04,D04,0,0,0
1606,52.0,-9.0,34.0,1644591718.71875,P04,D04,0,0,0
1607,50.0,-9.0,34.0,1644591718.75,P04,D04,0,0,0
1608,51.0,-9.0,35.0,1644591718.78125,P04,D04,0,0,0
1609,51.0,-9.0,35.0,1644591718.8125,P04,D04,0,0,0
1610,50.0,-9.0,34.0,1644591718.84375,P04,D04,0,0,0
1611,50.0,-9.0,35.0,1644591718.875,P04,D04,0,0,0
1612,50.0,-9.0,35.0,1644591718.90625,P04,D04,0,0,0
1613,50.0,-9.0,35.0,1644591718.9375,P04,D04,0,0,0
1614,51.0,-9.0,34.0,1644591718.96875,P04,D04,0,0,0
1615,51.0,-9.0,34.0,1644591719.0,P04,D04,0,0,0
1616,50.0,-9.0,33.0,1644591719.03125,P04,D04,0,0,0
1617,50.0,-8.0,33.0,1644591719.0625,P04,D04,0,0,0
1618,51.0,-9.0,34.0,1644591719.09375,P04,D04,0,0,0
1619,51.0,-8.0,34.0,1644591719.125,P04,D04,0,0,0
1620,53.0,-7.0,33.0,1644591719.15625,P04,D04,0,0,0
1621,53.0,-9.0,33.0,1644591719.1875,P04,D04,0,0,0
1622,54.0,-9.0,33.0,1644591719.21875,P04,D04,0,0,0
1623,53.0,-9.0,31.0,1644591719.25,P04,D04,0,0,0
1624,52.0,-9.0,31.0,1644591719.28125,P04,D04,0,0,0
1625,53.0,-9.0,31.0,1644591719.3125,P04,D04,0,0,0
1626,54.0,-8.0,32.0,1644591719.34375,P04,D04,0,0,0
1627,53.0,-7.0,32.0,1644591719.375,P04,D04,0,0,0
1628,53.0,-8.0,32.0,1644591719.40625,P04,D04,0,0,0
1629,52.0,-8.0,31.0,1644591719.4375,P04,D04,0,0,0
1630,52.0,-8.0,32.0,1644591719.46875,P04,D04,0,0,0
1631,52.0,-9.0,33.0,1644591719.5,P04,D04,0,0,0
1632,52.0,-9.0,32.0,1644591719.53125,P04,D04,0,0,0
1633,52.0,-9.0,32.0,1644591719.5625,P04,D04,0,0,0
1634,53.0,-9.0,32.0,1644591719.59375,P04,D04,0,0,0
1635,53.0,-10.0,31.0,1644591719.625,P04,D04,0,0,0
1636,53.0,-9.0,31.0,1644591719.65625,P04,D04,0,0,0
1637,53.0,-9.0,29.0,1644591719.6875,P04,D04,0,0,0
1638,55.0,-9.0,31.0,1644591719.71875,P04,D04,0,0,0
1639,55.0,-10.0,32.0,1644591719.75,P04,D04,0,0,0
1640,53.0,-9.0,33.0,1644591719.78125,P04,D04,0,0,0
1641,49.0,-8.0,33.0,1644591719.8125,P04,D04,0,0,0
1642,46.0,-8.0,35.0,1644591719.84375,P04,D04,0,0,0
1643,52.0,-10.0,37.0,1644591719.875,P04,D04,0,0,0
1644,52.0,-11.0,35.0,1644591719.90625,P04,D04,0,0,0
1645,49.0,-8.0,32.0,1644591719.9375,P04,D04,0,0,0
1646,49.0,-7.0,29.0,1644591719.96875,P04,D04,0,0,0
1647,66.0,-12.0,29.0,1644591720.0,P04,D04,0,0,0
1648,61.0,-11.0,34.0,1644591720.03125,P04,D04,0,0,0
1649,44.0,-7.0,33.0,1644591720.0625,P04,D04,0,0,0
1650,46.0,-8.0,30.0,1644591720.09375,P04,D04,0,0,0
1651,54.0,-11.0,33.0,1644591720.125,P04,D04,0,0,0
1652,54.0,-8.0,36.0,1644591720.15625,P04,D04,0,0,0
1653,52.0,-7.0,34.0,1644591720.1875,P04,D04,0,0,0
1654,49.0,-10.0,32.0,1644591720.21875,P04,D04,0,0,0
1655,51.0,-11.0,34.0,1644591720.25,P04,D04,0,0,0
1656,52.0,-7.0,34.0,1644591720.28125,P04,D04,0,0,0
1657,51.0,-7.0,31.0,1644591720.3125,P04,D04,0,0,0
1658,53.0,-9.0,31.0,1644591720.34375,P04,D04,0,0,0
1659,52.0,-10.0,32.0,1644591720.375,P04,D04,0,0,0
1660,53.0,-10.0,32.0,1644591720.40625,P04,D04,0,0,0
1661,53.0,-10.0,31.0,1644591720.4375,P04,D04,0,0,0
1662,52.0,-10.0,33.0,1644591720.46875,P04,D04,0,0,0
1663,54.0,-9.0,34.0,1644591720.5,P04,D04,0,0,0
1664,52.0,-8.0,33.0,1644591720.53125,P04,D04,0,0,0
1665,50.0,-9.0,32.0,1644591720.5625,P04,D04,0,0,0
1666,53.0,-9.0,32.0,1644591720.59375,P04,D04,0,0,0
1667,54.0,-9.0,33.0,1644591720.625,P04,D04,0,0,0
1668,52.0,-9.0,33.0,1644591720.65625,P04,D04,0,0,0
1669,52.0,-8.0,31.0,1644591720.6875,P04,D04,0,0,0
1670,52.0,-8.0,32.0,1644591720.71875,P04,D04,0,0,0
1671,53.0,-8.0,33.0,1644591720.75,P04,D04,0,0,0
1672,53.0,-8.0,33.0,1644591720.78125,P04,D04,0,0,0
1673,52.0,-8.0,32.0,1644591720.8125,P04,D04,0,0,0
1674,52.0,-8.0,32.0,1644591720.84375,P04,D04,0,0,0
1675,53.0,-9.0,32.0,1644591720.875,P04,D04,0,0,0
1676,53.0,-9.0,32.0,1644591720.90625,P04,D04,0,0,0
1677,52.0,-9.0,32.0,1644591720.9375,P04,D04,0,0,0
1678,52.0,-8.0,32.0,1644591720.96875,P04,D04,0,0,0
1679,52.0,-9.0,32.0,1644591721.0,P04,D04,0,0,0
1680,52.0,-8.0,33.0,1644591721.03125,P04,D04,0,0,0
1681,52.0,-8.0,33.0,1644591721.0625,P04,D04,0,0,0
1682,52.0,-8.0,32.0,1644591721.09375,P04,D04,0,0,0
1683,52.0,-8.0,32.0,1644591721.125,P04,D04,0,0,0
1684,53.0,-8.0,32.0,1644591721.15625,P04,D04,0,0,0
1685,53.0,-8.0,32.0,1644591721.1875,P04,D04,0,0,0
1686,52.0,-8.0,32.0,1644591721.21875,P04,D04,0,0,0
1687,52.0,-8.0,32.0,1644591721.25,P04,D04,0,0,0
1688,52.0,-8.0,33.0,1644591721.28125,P04,D04,0,0,0
1689,53.0,-8.0,32.0,1644591721.3125,P04,D04,0,0,0
1690,52.0,-8.0,32.0,1644591721.34375,P04,D04,0,0,0
1691,52.0,-8.0,32.0,1644591721.375,P04,D04,0,0,0
1692,53.0,-8.0,32.0,1644591721.40625,P04,D04,0,0,0
1693,53.0,-8.0,32.0,1644591721.4375,P04,D04,0,0,0
1694,53.0,-8.0,32.0,1644591721.46875,P04,D04,0,0,0
1695,52.0,-8.0,33.0,1644591721.5,P04,D04,0,0,0
1696,52.0,-8.0,32.0,1644591721.53125,P04,D04,0,0,0
1697,52.0,-8.0,32.0,1644591721.5625,P04,D04,0,0,0
1698,52.0,-8.0,32.0,1644591721.59375,P04,D04,0,0,0
1699,53.0,-8.0,32.0,1644591721.625,P04,D04,0,0,0
1700,53.0,-8.0,33.0,1644591721.65625,P04,D04,0,0,0
1701,52.0,-8.0,33.0,1644591721.6875,P04,D04,0,0,0
1702,52.0,-8.0,32.0,1644591721.71875,P04,D04,0,0,0
1703,53.0,-8.0,32.0,1644591721.75,P04,D04,0,0,0
1704,52.0,-8.0,33.0,1644591721.78125,P04,D04,0,0,0
1705,52.0,-8.0,32.0,1644591721.8125,P04,D04,0,0,0
1706,53.0,-9.0,32.0,1644591721.84375,P04,D04,0,0,0
1707,52.0,-8.0,32.0,1644591721.875,P04,D04,0,0,0
1708,52.0,-8.0,32.0,1644591721.90625,P04,D04,0,0,0
1709,52.0,-8.0,32.0,1644591721.9375,P04,D04,0,0,0
1710,52.0,-8.0,33.0,1644591721.96875,P04,D04,0,0,0
1711,53.0,-8.0,33.0,1644591722.0,P04,D04,0,0,0
1712,52.0,-8.0,33.0,1644591722.03125,P04,D04,0,0,0
1713,52.0,-8.0,32.0,1644591722.0625,P04,D04,0,0,0
1714,52.0,-8.0,32.0,1644591722.09375,P04,D04,0,0,0
1715,52.0,-8.0,33.0,1644591722.125,P04,D04,0,0,0
1716,52.0,-8.0,32.0,1644591722.15625,P04,D04,0,0,0
1717,52.0,-8.0,32.0,1644591722.1875,P04,D04,0,0,0
1718,52.0,-8.0,33.0,1644591722.21875,P04,D04,0,0,0
1719,52.0,-8.0,33.0,1644591722.25,P04,D04,0,0,0
1720,52.0,-8.0,32.0,1644591722.28125,P04,D04,0,0,0
1721,52.0,-8.0,32.0,1644591722.3125,P04,D04,0,0,0
1722,52.0,-8.0,33.0,1644591722.34375,P04,D04,0,0,0
1723,52.0,-8.0,32.0,1644591722.375,P04,D04,0,0,0
1724,52.0,-8.0,32.0,1644591722.40625,P04,D04,0,0,0
1725,52.0,-8.0,33.0,1644591722.4375,P04,D04,0,0,0
1726,52.0,-8.0,32.0,1644591722.46875,P04,D04,0,0,0
1727,52.0,-8.0,32.0,1644591722.5,P04,D04,0,0,0
1728,52.0,-8.0,32.0,1644591722.53125,P04,D04,0,0,0
1729,52.0,-9.0,32.0,1644591722.5625,P04,D04,0,0,0
1730,53.0,-8.0,33.0,1644591722.59375,P04,D04,0,0,0
1731,52.0,-8.0,33.0,1644591722.625,P04,D04,0,0,0
1732,52.0,-8.0,33.0,1644591722.65625,P04,D04,0,0,0
1733,52.0,-8.0,32.0,1644591722.6875,P04,D04,0,0,0
1734,52.0,-8.0,33.0,1644591722.71875,P04,D04,0,0,0
1735,52.0,-8.0,33.0,1644591722.75,P04,D04,0,0,0
1736,53.0,-8.0,32.0,1644591722.78125,P04,D04,0,0,0
1737,52.0,-8.0,32.0,1644591722.8125,P04,D04,0,0,0
1738,53.0,-8.0,32.0,1644591722.84375,P04,D04,0,0,0
1739,52.0,-8.0,32.0,1644591722.875,P04,D04,0,0,0
1740,52.0,-8.0,32.0,1644591722.90625,P04,D04,0,0,0
1741,52.0,-8.0,33.0,1644591722.9375,P04,D04,0,0,0
1742,53.0,-8.0,33.0,1644591722.96875,P04,D04,0,0,0
1743,52.0,-8.0,33.0,1644591723.0,P04,D04,0,0,0
1744,52.0,-8.0,32.0,1644591723.03125,P04,D04,0,0,0
1745,52.0,-8.0,33.0,1644591723.0625,P04,D04,0,0,0
1746,52.0,-8.0,33.0,1644591723.09375,P04,D04,0,0,0
1747,52.0,-8.0,33.0,1644591723.125,P04,D04,0,0,0
1748,52.0,-8.0,32.0,1644591723.15625,P04,D04,0,0,0
1749,52.0,-8.0,33.0,1644591723.1875,P04,D04,0,0,0
1750,52.0,-8.0,32.0,1644591723.21875,P04,D04,0,0,0
1751,52.0,-8.0,33.0,1644591723.25,P04,D04,0,0,0
1752,52.0,-8.0,32.0,1644591723.28125,P04,D04,0,0,0
1753,52.0,-8.0,33.0,1644591723.3125,P04,D04,0,0,0
1754,52.0,-8.0,33.0,1644591723.34375,P04,D04,0,0,0
1755,52.0,-8.0,33.0,1644591723.375,P04,D04,0,0,0
1756,52.0,-8.0,33.0,1644591723.40625,P04,D04,0,0,0
1757,52.0,-8.0,33.0,1644591723.4375,P04,D04,0,0,0
1758,52.0,-8.0,33.0,1644591723.46875,P04,D04,0,0,0
1759,52.0,-8.0,33.0,1644591723.5,P04,D04,0,0,0
1760,52.0,-8.0,33.0,1644591723.53125,P04,D04,0,0,0
1761,52.0,-8.0,33.0,1644591723.5625,P04,D04,0,0,0
1762,52.0,-8.0,33.0,1644591723.59375,P04,D04,0,0,0
1763,52.0,-8.0,33.0,1644591723.625,P04,D04,0,0,0
1764,52.0,-8.0,33.0,1644591723.65625,P04,D04,0,0,0
1765,52.0,-8.0,33.0,1644591723.6875,P04,D04,0,0,0
1766,52.0,-8.0,33.0,1644591723.71875,P04,D04,0,0,0
1767,52.0,-8.0,33.0,1644591723.75,P04,D04,0,0,0
1768,52.0,-8.0,33.0,1644591723.78125,P04,D04,0,0,0
1769,52.0,-8.0,33.0,1644591723.8125,P04,D04,0,0,0
1770,52.0,-8.0,32.0,1644591723.84375,P04,D04,0,0,0
1771,52.0,-8.0,33.0,1644591723.875,P04,D04,0,0,0
1772,52.0,-8.0,32.0,1644591723.90625,P04,D04,0,0,0
1773,52.0,-8.0,33.0,1644591723.9375,P04,D04,0,0,0
1774,52.0,-8.0,33.0,1644591723.96875,P04,D04,0,0,0
1775,52.0,-8.0,33.0,1644591724.0,P04,D04,0,0,0
1776,52.0,-8.0,33.0,1644591724.03125,P04,D04,0,0,0
1777,52.0,-8.0,33.0,1644591724.0625,P04,D04,0,0,0
1778,52.0,-8.0,33.0,1644591724.09375,P04,D04,0,0,0
1779,52.0,-8.0,33.0,1644591724.125,P04,D04,0,0,0
1780,52.0,-8.0,33.0,1644591724.15625,P04,D04,0,0,0
1781,52.0,-8.0,33.0,1644591724.1875,P04,D04,0,0,0
1782,52.0,-8.0,33.0,1644591724.21875,P04,D04,0,0,0
1783,52.0,-8.0,33.0,1644591724.25,P04,D04,0,0,0
1784,52.0,-8.0,32.0,1644591724.28125,P04,D04,0,0,0
1785,52.0,-8.0,33.0,1644591724.3125,P04,D04,0,0,0
1786,52.0,-8.0,33.0,1644591724.34375,P04,D04,0,0,0
1787,52.0,-8.0,33.0,1644591724.375,P04,D04,0,0,0
1788,52.0,-8.0,33.0,1644591724.40625,P04,D04,0,0,0
1789,52.0,-8.0,33.0,1644591724.4375,P04,D04,0,0,0
1790,52.0,-8.0,33.0,1644591724.46875,P04,D04,0,0,0
1791,52.0,-8.0,33.0,1644591724.5,P04,D04,0,0,0
1792,52.0,-8.0,32.0,1644591724.53125,P04,D04,0,0,0
1793,52.0,-8.0,33.0,1644591724.5625,P04,D04,0,0,0
1794,52.0,-8.0,33.0,1644591724.59375,P04,D04,0,0,0
1795,52.0,-8.0,33.0,1644591724.625,P04,D04,0,0,0
1796,52.0,-8.0,33.0,1644591724.65625,P04,D04,0,0,0
1797,52.0,-8.0,33.0,1644591724.6875,P04,D04,0,0,0
1798,52.0,-8.0,33.0,1644591724.71875,P04,D04,0,0,0
1799,52.0,-8.0,33.0,1644591724.75,P04,D04,0,0,0
1800,52.0,-8.0,33.0,1644591724.78125,P04,D04,0,0,0
1801,52.0,-8.0,33.0,1644591724.8125,P04,D04,0,0,0
1802,52.0,-8.0,33.0,1644591724.84375,P04,D04,0,0,0
1803,52.0,-8.0,33.0,1644591724.875,P04,D04,0,0,0
1804,52.0,-8.0,33.0,1644591724.90625,P04,D04,0,0,0
1805,52.0,-8.0,32.0,1644591724.9375,P04,D04,0,0,0
1806,52.0,-8.0,33.0,1644591724.96875,P04,D04,0,0,0
1807,53.0,-8.0,32.0,1644591725.0,P04,D04,0,0,0
1808,52.0,-8.0,32.0,1644591725.03125,P04,D04,0,0,0
1809,52.0,-8.0,33.0,1644591725.0625,P04,D04,0,0,0
1810,53.0,-8.0,33.0,1644591725.09375,P04,D04,0,0,0
1811,52.0,-8.0,32.0,1644591725.125,P04,D04,0,0,0
1812,52.0,-8.0,32.0,1644591725.15625,P04,D04,0,0,0
1813,52.0,-8.0,32.0,1644591725.1875,P04,D04,0,0,0
1814,52.0,-8.0,32.0,1644591725.21875,P04,D04,0,0,0
1815,52.0,-8.0,32.0,1644591725.25,P04,D04,0,0,0
1816,52.0,-8.0,33.0,1644591725.28125,P04,D04,0,0,0
1817,52.0,-8.0,32.0,1644591725.3125,P04,D04,0,0,0
1818,52.0,-8.0,33.0,1644591725.34375,P04,D04,0,0,0
1819,52.0,-8.0,32.0,1644591725.375,P04,D04,0,0,0
1820,52.0,-8.0,33.0,1644591725.40625,P04,D04,0,0,0
1821,52.0,-8.0,33.0,1644591725.4375,P04,D04,0,0,0
1822,52.0,-8.0,33.0,1644591725.46875,P04,D04,0,0,0
1823,52.0,-8.0,32.0,1644591725.5,P04,D04,0,0,0
1824,52.0,-8.0,32.0,1644591725.53125,P04,D04,0,0,0
1825,52.0,-8.0,32.0,1644591725.5625,P04,D04,0,0,0
1826,52.0,-8.0,33.0,1644591725.59375,P04,D04,0,0,0
1827,52.0,-8.0,33.0,1644591725.625,P04,D04,0,0,0
1828,52.0,-8.0,33.0,1644591725.65625,P04,D04,0,0,0
1829,52.0,-8.0,32.0,1644591725.6875,P04,D04,0,0,0
1830,52.0,-8.0,32.0,1644591725.71875,P04,D04,0,0,0
1831,52.0,-8.0,33.0,1644591725.75,P04,D04,0,0,0
1832,52.0,-8.0,32.0,1644591725.78125,P04,D04,0,0,0
1833,52.0,-8.0,33.0,1644591725.8125,P04,D04,0,0,0
1834,52.0,-8.0,32.0,1644591725.84375,P04,D04,0,0,0
1835,52.0,-8.0,33.0,1644591725.875,P04,D04,0,0,0
1836,52.0,-8.0,33.0,1644591725.90625,P04,D04,0,0,0
1837,52.0,-8.0,32.0,1644591725.9375,P04,D04,0,0,0
1838,52.0,-8.0,32.0,1644591725.96875,P04,D04,0,0,0
1839,52.0,-8.0,32.0,1644591726.0,P04,D04,0,0,0
1840,52.0,-8.0,33.0,1644591726.03125,P04,D04,0,0,0
1841,52.0,-8.0,33.0,1644591726.0625,P04,D04,0,0,0
1842,52.0,-8.0,33.0,1644591726.09375,P04,D04,0,0,0
1843,52.0,-8.0,33.0,1644591726.125,P04,D04,0,0,0
1844,52.0,-8.0,33.0,1644591726.15625,P04,D04,0,0,0
1845,52.0,-8.0,33.0,1644591726.1875,P04,D04,0,0,0
1846,52.0,-8.0,33.0,1644591726.21875,P04,D04,0,0,0
1847,52.0,-8.0,33.0,1644591726.25,P04,D04,0,0,0
1848,52.0,-8.0,33.0,1644591726.28125,P04,D04,0,0,0
1849,52.0,-8.0,33.0,1644591726.3125,P04,D04,0,0,0
1850,52.0,-8.0,32.0,1644591726.34375,P04,D04,0,0,0
1851,52.0,-8.0,33.0,1644591726.375,P04,D04,0,0,0
1852,52.0,-8.0,33.0,1644591726.40625,P04,D04,0,0,0
1853,52.0,-8.0,33.0,1644591726.4375,P04,D04,0,0,0
1854,52.0,-8.0,33.0,1644591726.46875,P04,D04,0,0,0
1855,52.0,-8.0,33.0,1644591726.5,P04,D04,0,0,0
1856,52.0,-8.0,33.0,1644591726.53125,P04,D04,0,0,0
1857,52.0,-8.0,33.0,1644591726.5625,P04,D04,0,0,0
1858,52.0,-8.0,33.0,1644591726.59375,P04,D04,0,0,0
1859,52.0,-8.0,33.0,1644591726.625,P04,D04,0,0,0
1860,52.0,-8.0,33.0,1644591726.65625,P04,D04,0,0,0
1861,52.0,-8.0,33.0,1644591726.6875,P04,D04,0,0,0
1862,52.0,-8.0,33.0,1644591726.71875,P04,D04,0,0,0
1863,52.0,-8.0,33.0,1644591726.75,P04,D04,0,0,0
1864,52.0,-8.0,33.0,1644591726.78125,P04,D04,0,0,0
1865,52.0,-8.0,33.0,1644591726.8125,P04,D04,0,0,0
1866,52.0,-8.0,32.0,1644591726.84375,P04,D04,0,0,0
1867,52.0,-8.0,33.0,1644591726.875,P04,D04,0,0,0
1868,52.0,-8.0,33.0,1644591726.90625,P04,D04,0,0,0
1869,52.0,-8.0,33.0,1644591726.9375,P04,D04,0,0,0
1870,52.0,-8.0,33.0,1644591726.96875,P04,D04,0,0,0
1871,52.0,-8.0,33.0,1644591727.0,P04,D04,0,0,0
1872,52.0,-8.0,33.0,1644591727.03125,P04,D04,0,0,0
1873,52.0,-8.0,33.0,1644591727.0625,P04,D04,0,0,0
1874,52.0,-8.0,33.0,1644591727.09375,P04,D04,0,0,0
1875,52.0,-8.0,33.0,1644591727.125,P04,D04,0,0,0
1876,52.0,-8.0,33.0,1644591727.15625,P04,D04,0,0,0
1877,52.0,-8.0,33.0,1644591727.1875,P04,D04,0,0,0
1878,52.0,-8.0,33.0,1644591727.21875,P04,D04,0,0,0
1879,52.0,-8.0,32.0,1644591727.25,P04,D04,0,0,0
1880,52.0,-8.0,32.0,1644591727.28125,P04,D04,0,0,0
1881,52.0,-8.0,33.0,1644591727.3125,P04,D04,0,0,0
1882,53.0,-8.0,33.0,1644591727.34375,P04,D04,0,0,0
1883,52.0,-8.0,32.0,1644591727.375,P04,D04,0,0,0
1884,52.0,-8.0,33.0,1644591727.40625,P04,D04,0,0,0
1885,53.0,-8.0,33.0,1644591727.4375,P04,D04,0,0,0
1886,52.0,-8.0,33.0,1644591727.46875,P04,D04,0,0,0
1887,52.0,-8.0,33.0,1644591727.5,P04,D04,0,0,0
1888,52.0,-8.0,33.0,1644591727.53125,P04,D04,0,0,0
1889,52.0,-8.0,33.0,1644591727.5625,P04,D04,0,0,0
1890,52.0,-8.0,32.0,1644591727.59375,P04,D04,0,0,0
1891,52.0,-9.0,32.0,1644591727.625,P04,D04,0,0,0
1892,52.0,-8.0,32.0,1644591727.65625,P04,D04,0,0,0
1893,52.0,-8.0,32.0,1644591727.6875,P04,D04,0,0,0
1894,53.0,-8.0,33.0,1644591727.71875,P04,D04,0,0,0
1895,52.0,-8.0,32.0,1644591727.75,P04,D04,0,0,0
1896,52.0,-8.0,33.0,1644591727.78125,P04,D04,0,0,0
1897,53.0,-8.0,32.0,1644591727.8125,P04,D04,0,0,0
1898,52.0,-8.0,33.0,1644591727.84375,P04,D04,0,0,0
1899,52.0,-8.0,32.0,1644591727.875,P04,D04,0,0,0
1900,52.0,-8.0,32.0,1644591727.90625,P04,D04,0,0,0
1901,52.0,-8.0,32.0,1644591727.9375,P04,D04,0,0,0
1902,52.0,-8.0,32.0,1644591727.96875,P04,D04,0,0,0
1903,52.0,-8.0,32.0,1644591728.0,P04,D04,0,0,0
1904,52.0,-8.0,33.0,1644591728.03125,P04,D04,0,0,0
1905,52.0,-8.0,33.0,1644591728.0625,P04,D04,0,0,0
1906,52.0,-8.0,33.0,1644591728.09375,P04,D04,0,0,0
1907,52.0,-8.0,33.0,1644591728.125,P04,D04,0,0,0
1908,52.0,-8.0,33.0,1644591728.15625,P04,D04,0,0,0
1909,52.0,-8.0,33.0,1644591728.1875,P04,D04,0,0,0
1910,52.0,-8.0,33.0,1644591728.21875,P04,D04,0,0,0
1911,52.0,-8.0,33.0,1644591728.25,P04,D04,0,0,0
1912,52.0,-8.0,33.0,1644591728.28125,P04,D04,0,0,0
1913,52.0,-8.0,33.0,1644591728.3125,P04,D04,0,0,0
1914,52.0,-8.0,32.0,1644591728.34375,P04,D04,0,0,0
1915,52.0,-8.0,32.0,1644591728.375,P04,D04,0,0,0
1916,52.0,-8.0,33.0,1644591728.40625,P04,D04,0,0,0
1917,52.0,-8.0,33.0,1644591728.4375,P04,D04,0,0,0
1918,52.0,-8.0,32.0,1644591728.46875,P04,D04,0,0,0
1919,52.0,-8.0,33.0,1644591728.5,P04,D04,0,0,0
1920,53.0,-8.0,33.0,1644591728.53125,P04,D04,0,0,0
1921,52.0,-8.0,32.0,1644591728.5625,P04,D04,0,0,0
1922,52.0,-8.0,33.0,1644591728.59375,P04,D04,0,0,0
1923,52.0,-8.0,33.0,1644591728.625,P04,D04,0,0,0
1924,52.0,-8.0,33.0,1644591728.65625,P04,D04,0,0,0
1925,52.0,-8.0,32.0,1644591728.6875,P04,D04,0,0,0
1926,52.0,-8.0,33.0,1644591728.71875,P04,D04,0,0,0
1927,52.0,-8.0,33.0,1644591728.75,P04,D04,0,0,0
1928,52.0,-8.0,33.0,1644591728.78125,P04,D04,0,0,0
1929,52.0,-8.0,33.0,1644591728.8125,P04,D04,0,0,0
1930,52.0,-8.0,33.0,1644591728.84375,P04,D04,0,0,0
1931,52.0,-8.0,33.0,1644591728.875,P04,D04,0,0,0
1932,52.0,-8.0,33.0,1644591728.90625,P04,D04,0,0,0
1933,52.0,-8.0,33.0,1644591728.9375,P04,D04,0,0,0
1934,52.0,-8.0,33.0,1644591728.96875,P04,D04,0,0,0
1935,52.0,-8.0,33.0,1644591729.0,P04,D04,0,0,0
1936,52.0,-8.0,33.0,1644591729.03125,P04,D04,0,0,0
1937,52.0,-8.0,33.0,1644591729.0625,P04,D04,0,0,0
1938,52.0,-8.0,33.0,1644591729.09375,P04,D04,0,0,0
1939,53.0,-8.0,33.0,1644591729.125,P04,D04,0,0,0
1940,52.0,-8.0,33.0,1644591729.15625,P04,D04,0,0,0
1941,52.0,-8.0,33.0,1644591729.1875,P04,D04,0,0,0
1942,53.0,-8.0,33.0,1644591729.21875,P04,D04,0,0,0
1943,52.0,-8.0,32.0,1644591729.25,P04,D04,0,0,0
1944,52.0,-8.0,33.0,1644591729.28125,P04,D04,0,0,0
1945,52.0,-8.0,33.0,1644591729.3125,P04,D04,0,0,0
1946,52.0,-8.0,33.0,1644591729.34375,P04,D04,0,0,0
1947,52.0,-8.0,33.0,1644591729.375,P04,D04,0,0,0
1948,52.0,-8.0,32.0,1644591729.40625,P04,D04,0,0,0
1949,52.0,-8.0,33.0,1644591729.4375,P04,D04,0,0,0
1950,52.0,-8.0,33.0,1644591729.46875,P04,D04,0,0,0
1951,52.0,-8.0,33.0,1644591729.5,P04,D04,0,0,0
1952,52.0,-8.0,33.0,1644591729.53125,P04,D04,0,0,0
1953,52.0,-8.0,33.0,1644591729.5625,P04,D04,0,0,0
1954,52.0,-8.0,33.0,1644591729.59375,P04,D04,0,0,0
1955,52.0,-8.0,33.0,1644591729.625,P04,D04,0,0,0
1956,52.0,-9.0,33.0,1644591729.65625,P04,D04,0,0,0
1957,52.0,-8.0,33.0,1644591729.6875,P04,D04,0,0,0
1958,52.0,-8.0,33.0,1644591729.71875,P04,D04,0,0,0
1959,52.0,-8.0,33.0,1644591729.75,P04,D04,0,0,0
1960,52.0,-8.0,33.0,1644591729.78125,P04,D04,0,0,0
1961,52.0,-8.0,32.0,1644591729.8125,P04,D04,0,0,0
1962,52.0,-8.0,32.0,1644591729.84375,P04,D04,0,0,0
1963,52.0,-8.0,33.0,1644591729.875,P04,D04,0,0,0
1964,52.0,-9.0,33.0,1644591729.90625,P04,D04,0,0,0
1965,52.0,-8.0,32.0,1644591729.9375,P04,D04,0,0,0
1966,52.0,-8.0,32.0,1644591729.96875,P04,D04,0,0,0
1967,52.0,-8.0,32.0,1644591730.0,P04,D04,0,0,0
1968,52.0,-8.0,32.0,1644591730.03125,P04,D04,0,0,0
1969,52.0,-8.0,33.0,1644591730.0625,P04,D04,0,0,0
1970,52.0,-9.0,32.0,1644591730.09375,P04,D04,0,0,0
1971,52.0,-8.0,32.0,1644591730.125,P04,D04,0,0,0
1972,52.0,-8.0,33.0,1644591730.15625,P04,D04,0,0,0
1973,52.0,-8.0,33.0,1644591730.1875,P04,D04,0,0,0
1974,52.0,-8.0,33.0,1644591730.21875,P04,D04,0,0,0
1975,53.0,-8.0,33.0,1644591730.25,P04,D04,0,0,0
1976,52.0,-8.0,33.0,1644591730.28125,P04,D04,0,0,0
1977,52.0,-8.0,33.0,1644591730.3125,P04,D04,0,0,0
1978,52.0,-8.0,32.0,1644591730.34375,P04,D04,0,0,0
1979,52.0,-8.0,32.0,1644591730.375,P04,D04,0,0,0
1980,52.0,-8.0,32.0,1644591730.40625,P04,D04,0,0,0
1981,52.0,-8.0,32.0,1644591730.4375,P04,D04,0,0,0
1982,52.0,-8.0,32.0,1644591730.46875,P04,D04,0,0,0
1983,52.0,-8.0,32.0,1644591730.5,P04,D04,0,0,0
1984,52.0,-8.0,33.0,1644591730.53125,P04,D04,0,0,0
1985,52.0,-8.0,33.0,1644591730.5625,P04,D04,0,0,0
1986,52.0,-8.0,33.0,1644591730.59375,P04,D04,0,0,0
1987,52.0,-8.0,32.0,1644591730.625,P04,D04,0,0,0
1988,52.0,-8.0,32.0,1644591730.65625,P04,D04,0,0,0
1989,52.0,-8.0,33.0,1644591730.6875,P04,D04,0,0,0
1990,52.0,-8.0,33.0,1644591730.71875,P04,D04,0,0,0
1991,52.0,-8.0,32.0,1644591730.75,P04,D04,0,0,0
1992,52.0,-8.0,33.0,1644591730.78125,P04,D04,0,0,0
1993,52.0,-8.0,33.0,1644591730.8125,P04,D04,0,0,0
1994,52.0,-8.0,32.0,1644591730.84375,P04,D04,0,0,0
1995,52.0,-8.0,33.0,1644591730.875,P04,D04,0,0,0
1996,52.0,-8.0,33.0,1644591730.90625,P04,D04,0,0,0
1997,52.0,-8.0,33.0,1644591730.9375,P04,D04,0,0,0
1998,52.0,-8.0,32.0,1644591730.96875,P04,D04,0,0,0
1999,52.0,-8.0,33.0,1644591731.0,P04,D04,0,0,0
2000,52.0,-8.0,33.0,1644591731.03125,P04,D04,0,0,0
2001,52.0,-8.0,32.0,1644591731.0625,P04,D04,0,0,0
2002,52.0,-8.0,33.0,1644591731.09375,P04,D04,0,0,0
2003,52.0,-8.0,33.0,1644591731.125,P04,D04,0,0,0
2004,52.0,-8.0,33.0,1644591731.15625,P04,D04,0,0,0
2005,52.0,-8.0,33.0,1644591731.1875,P04,D04,0,0,0
2006,52.0,-8.0,33.0,1644591731.21875,P04,D04,0,0,0
2007,53.0,-8.0,33.0,1644591731.25,P04,D04,0,0,0
2008,52.0,-8.0,33.0,1644591731.28125,P04,D04,0,0,0
2009,52.0,-8.0,33.0,1644591731.3125,P04,D04,0,0,0
2010,53.0,-8.0,33.0,1644591731.34375,P04,D04,0,0,0
2011,52.0,-8.0,33.0,1644591731.375,P04,D04,0,0,0
2012,52.0,-8.0,32.0,1644591731.40625,P04,D04,0,0,0
2013,52.0,-8.0,33.0,1644591731.4375,P04,D04,0,0,0
2014,52.0,-8.0,33.0,1644591731.46875,P04,D04,0,0,0
2015,52.0,-8.0,32.0,1644591731.5,P04,D04,0,0,0
2016,52.0,-8.0,33.0,1644591731.53125,P04,D04,0,0,0
2017,52.0,-8.0,33.0,1644591731.5625,P04,D04,0,0,0
2018,52.0,-8.0,33.0,1644591731.59375,P04,D04,0,0,0
2019,52.0,-8.0,33.0,1644591731.625,P04,D04,0,0,0
2020,52.0,-8.0,33.0,1644591731.65625,P04,D04,0,0,0
2021,52.0,-8.0,32.0,1644591731.6875,P04,D04,0,0,0
2022,52.0,-8.0,32.0,1644591731.71875,P04,D04,0,0,0
2023,52.0,-8.0,32.0,1644591731.75,P04,D04,0,0,0
2024,52.0,-8.0,33.0,1644591731.78125,P04,D04,0,0,0
2025,52.0,-8.0,33.0,1644591731.8125,P04,D04,0,0,0
2026,52.0,-8.0,33.0,1644591731.84375,P04,D04,0,0,0
2027,52.0,-8.0,33.0,1644591731.875,P04,D04,0,0,0
2028,53.0,-8.0,33.0,1644591731.90625,P04,D04,0,0,0
2029,52.0,-8.0,33.0,1644591731.9375,P04,D04,0,0,0
2030,52.0,-8.0,33.0,1644591731.96875,P04,D04,0,0,0
2031,52.0,-8.0,33.0,1644591732.0,P04,D04,0,0,0
2032,52.0,-8.0,33.0,1644591732.03125,P04,D04,0,0,0
2033,52.0,-8.0,32.0,1644591732.0625,P04,D04,0,0,0
2034,52.0,-8.0,33.0,1644591732.09375,P04,D04,0,0,0
2035,52.0,-8.0,32.0,1644591732.125,P04,D04,0,0,0
2036,52.0,-8.0,33.0,1644591732.15625,P04,D04,0,0,0
2037,52.0,-8.0,32.0,1644591732.1875,P04,D04,0,0,0
2038,52.0,-8.0,32.0,1644591732.21875,P04,D04,0,0,0
2039,52.0,-8.0,33.0,1644591732.25,P04,D04,0,0,0
2040,52.0,-8.0,33.0,1644591732.28125,P04,D04,0,0,0
2041,52.0,-8.0,33.0,1644591732.3125,P04,D04,0,0,0
2042,52.0,-8.0,32.0,1644591732.34375,P04,D04,0,0,0
2043,52.0,-8.0,32.0,1644591732.375,P04,D04,0,0,0
2044,53.0,-8.0,32.0,1644591732.40625,P04,D04,0,0,0
2045,52.0,-8.0,32.0,1644591732.4375,P04,D04,0,0,0
2046,52.0,-8.0,32.0,1644591732.46875,P04,D04,0,0,0
2047,52.0,-8.0,33.0,1644591732.5,P04,D04,0,0,0
2048,52.0,-8.0,32.0,1644591732.53125,P04,D04,0,0,0
2049,52.0,-8.0,32.0,1644591732.5625,P04,D04,0,0,0
2050,52.0,-8.0,32.0,1644591732.59375,P04,D04,0,0,0
2051,52.0,-8.0,32.0,1644591732.625,P04,D04,0,0,0
2052,53.0,-9.0,32.0,1644591732.65625,P04,D04,0,0,0
2053,52.0,-9.0,32.0,1644591732.6875,P04,D04,0,0,0
2054,52.0,-8.0,33.0,1644591732.71875,P04,D04,0,0,0
2055,52.0,-8.0,32.0,1644591732.75,P04,D04,0,0,0
2056,53.0,-8.0,32.0,1644591732.78125,P04,D04,0,0,0
2057,52.0,-8.0,32.0,1644591732.8125,P04,D04,0,0,0
2058,53.0,-8.0,32.0,1644591732.84375,P04,D04,0,0,0
2059,53.0,-8.0,32.0,1644591732.875,P04,D04,0,0,0
2060,53.0,-8.0,32.0,1644591732.90625,P04,D04,0,0,0
2061,52.0,-8.0,32.0,1644591732.9375,P04,D04,0,0,0
2062,52.0,-8.0,32.0,1644591732.96875,P04,D04,0,0,0
2063,52.0,-8.0,32.0,1644591733.0,P04,D04,0,0,0
2064,52.0,-8.0,32.0,1644591733.03125,P04,D04,0,0,0
2065,52.0,-8.0,32.0,1644591733.0625,P04,D04,0,0,0
2066,52.0,-8.0,32.0,1644591733.09375,P04,D04,0,0,0
2067,52.0,-8.0,32.0,1644591733.125,P04,D04,0,0,0
2068,53.0,-8.0,32.0,1644591733.15625,P04,D04,0,0,0
2069,52.0,-8.0,32.0,1644591733.1875,P04,D04,0,0,0
2070,52.0,-8.0,32.0,1644591733.21875,P04,D04,0,0,0
2071,53.0,-8.0,32.0,1644591733.25,P04,D04,0,0,0
2072,52.0,-8.0,32.0,1644591733.28125,P04,D04,0,0,0
2073,52.0,-8.0,32.0,1644591733.3125,P04,D04,0,0,0
2074,52.0,-8.0,32.0,1644591733.34375,P04,D04,0,0,0
2075,53.0,-8.0,32.0,1644591733.375,P04,D04,0,0,0
2076,53.0,-8.0,33.0,1644591733.40625,P04,D04,0,0,0
2077,52.0,-8.0,32.0,1644591733.4375,P04,D04,0,0,0
2078,52.0,-8.0,32.0,1644591733.46875,P04,D04,0,0,0
2079,52.0,-8.0,32.0,1644591733.5,P04,D04,0,0,0
2080,52.0,-8.0,32.0,1644591733.53125,P04,D04,0,0,0
2081,52.0,-8.0,32.0,1644591733.5625,P04,D04,0,0,0
2082,52.0,-8.0,32.0,1644591733.59375,P04,D04,0,0,0
2083,52.0,-8.0,33.0,1644591733.625,P04,D04,0,0,0
2084,52.0,-8.0,33.0,1644591733.65625,P04,D04,0,0,0
2085,52.0,-8.0,32.0,1644591733.6875,P04,D04,0,0,0
2086,52.0,-8.0,33.0,1644591733.71875,P04,D04,0,0,0
2087,52.0,-8.0,32.0,1644591733.75,P04,D04,0,0,0
2088,52.0,-8.0,32.0,1644591733.78125,P04,D04,0,0,0
2089,53.0,-8.0,32.0,1644591733.8125,P04,D04,0,0,0
2090,52.0,-8.0,32.0,1644591733.84375,P04,D04,0,0,0
2091,52.0,-8.0,32.0,1644591733.875,P04,D04,0,0,0
2092,52.0,-8.0,32.0,1644591733.90625,P04,D04,0,0,0
2093,52.0,-8.0,33.0,1644591733.9375,P04,D04,0,0,0
2094,52.0,-8.0,33.0,1644591733.96875,P04,D04,0,0,0
2095,52.0,-8.0,32.0,1644591734.0,P04,D04,0,0,0
2096,53.0,-8.0,33.0,1644591734.03125,P04,D04,0,0,0
2097,52.0,-8.0,33.0,1644591734.0625,P04,D04,0,0,0
2098,52.0,-8.0,32.0,1644591734.09375,P04,D04,0,0,0
2099,52.0,-8.0,33.0,1644591734.125,P04,D04,0,0,0
2100,52.0,-8.0,33.0,1644591734.15625,P04,D04,0,0,0
2101,52.0,-8.0,32.0,1644591734.1875,P04,D04,0,0,0
2102,52.0,-8.0,32.0,1644591734.21875,P04,D04,0,0,0
2103,52.0,-8.0,32.0,1644591734.25,P04,D04,0,0,0
2104,52.0,-8.0,32.0,1644591734.28125,P04,D04,0,0,0
2105,52.0,-8.0,32.0,1644591734.3125,P04,D04,0,0,0
2106,52.0,-8.0,33.0,1644591734.34375,P04,D04,0,0,0
2107,52.0,-8.0,33.0,1644591734.375,P04,D04,0,0,0
2108,52.0,-8.0,32.0,1644591734.40625,P04,D04,0,0,0
2109,52.0,-8.0,32.0,1644591734.4375,P04,D04,0,0,0
2110,52.0,-8.0,32.0,1644591734.46875,P04,D04,0,0,0
2111,52.0,-8.0,32.0,1644591734.5,P04,D04,0,0,0
2112,53.0,-8.0,32.0,1644591734.53125,P04,D04,0,0,0
2113,52.0,-8.0,32.0,1644591734.5625,P04,D04,0,0,0
2114,52.0,-8.0,32.0,1644591734.59375,P04,D04,0,0,0
2115,52.0,-8.0,32.0,1644591734.625,P04,D04,0,0,0
2116,52.0,-8.0,32.0,1644591734.65625,P04,D04,0,0,0
2117,53.0,-8.0,32.0,1644591734.6875,P04,D04,0,0,0
2118,52.0,-9.0,32.0,1644591734.71875,P04,D04,0,0,0
2119,52.0,-9.0,32.0,1644591734.75,P04,D04,0,0,0
2120,53.0,-9.0,32.0,1644591734.78125,P04,D04,0,0,0
2121,52.0,-9.0,32.0,1644591734.8125,P04,D04,0,0,0
2122,53.0,-10.0,32.0,1644591734.84375,P04,D04,0,0,0
2123,53.0,-9.0,33.0,1644591734.875,P04,D04,0,0,0
2124,52.0,-9.0,32.0,1644591734.90625,P04,D04,0,0,0
2125,51.0,-9.0,32.0,1644591734.9375,P04,D04,0,0,0
2126,51.0,-9.0,33.0,1644591734.96875,P04,D04,0,0,0
2127,52.0,-9.0,33.0,1644591735.0,P04,D04,0,0,0
2128,52.0,-9.0,34.0,1644591735.03125,P04,D04,0,0,0
2129,52.0,-9.0,33.0,1644591735.0625,P04,D04,0,0,0
2130,52.0,-9.0,32.0,1644591735.09375,P04,D04,0,0,0
2131,52.0,-9.0,32.0,1644591735.125,P04,D04,0,0,0
2132,53.0,-9.0,33.0,1644591735.15625,P04,D04,0,0,0
2133,53.0,-8.0,32.0,1644591735.1875,P04,D04,0,0,0
2134,52.0,-9.0,33.0,1644591735.21875,P04,D04,0,0,0
2135,52.0,-9.0,33.0,1644591735.25,P04,D04,0,0,0
2136,52.0,-9.0,33.0,1644591735.28125,P04,D04,0,0,0
2137,52.0,-9.0,33.0,1644591735.3125,P04,D04,0,0,0
2138,51.0,-9.0,33.0,1644591735.34375,P04,D04,0,0,0
2139,52.0,-10.0,32.0,1644591735.375,P04,D04,0,0,0
2140,53.0,-10.0,31.0,1644591735.40625,P04,D04,0,0,0
2141,54.0,-10.0,32.0,1644591735.4375,P04,D04,0,0,0
2142,52.0,-11.0,33.0,1644591735.46875,P04,D04,0,0,0
2143,51.0,-11.0,31.0,1644591735.5,P04,D04,0,0,0
2144,52.0,-10.0,31.0,1644591735.53125,P04,D04,0,0,0
2145,52.0,-9.0,33.0,1644591735.5625,P04,D04,0,0,0
2146,51.0,-8.0,33.0,1644591735.59375,P04,D04,0,0,0
2147,50.0,-8.0,33.0,1644591735.625,P04,D04,0,0,0
2148,50.0,-8.0,33.0,1644591735.65625,P04,D04,0,0,0
2149,58.0,-12.0,31.0,1644591735.6875,P04,D04,0,0,0
2150,56.0,-12.0,33.0,1644591735.71875,P04,D04,0,0,0
2151,47.0,-8.0,33.0,1644591735.75,P04,D04,0,0,0
2152,50.0,-8.0,31.0,1644591735.78125,P04,D04,0,0,0
2153,53.0,-10.0,32.0,1644591735.8125,P04,D04,0,0,0
2154,52.0,-9.0,34.0,1644591735.84375,P04,D04,0,0,0
2155,52.0,-9.0,33.0,1644591735.875,P04,D04,0,0,0
2156,53.0,-10.0,32.0,1644591735.90625,P04,D04,0,0,0
2157,53.0,-10.0,32.0,1644591735.9375,P04,D04,0,0,0
2158,52.0,-10.0,32.0,1644591735.96875,P04,D04,0,0,0
2159,52.0,-10.0,32.0,1644591736.0,P04,D04,0,0,0
2160,53.0,-10.0,32.0,1644591736.03125,P04,D04,0,0,0
2161,53.0,-10.0,32.0,1644591736.0625,P04,D04,0,0,0
2162,52.0,-9.0,32.0,1644591736.09375,P04,D04,0,0,0
2163,53.0,-9.0,32.0,1644591736.125,P04,D04,0,0,0
2164,54.0,-9.0,32.0,1644591736.15625,P04,D04,0,0,0
2165,53.0,-9.0,32.0,1644591736.1875,P04,D04,0,0,0
2166,52.0,-10.0,31.0,1644591736.21875,P04,D04,0,0,0
2167,53.0,-10.0,32.0,1644591736.25,P04,D04,0,0,0
2168,53.0,-10.0,32.0,1644591736.28125,P04,D04,0,0,0
2169,52.0,-9.0,32.0,1644591736.3125,P04,D04,0,0,0
2170,51.0,-9.0,32.0,1644591736.34375,P04,D04,0,0,0
2171,53.0,-9.0,32.0,1644591736.375,P04,D04,0,0,0
2172,53.0,-9.0,32.0,1644591736.40625,P04,D04,0,0,0
2173,53.0,-8.0,32.0,1644591736.4375,P04,D04,0,0,0
2174,52.0,-9.0,32.0,1644591736.46875,P04,D04,0,0,0
2175,52.0,-9.0,32.0,1644591736.5,P04,D04,0,0,0
2176,52.0,-9.0,33.0,1644591736.53125,P04,D04,0,0,0
2177,53.0,-10.0,33.0,1644591736.5625,P04,D04,0,0,0
2178,51.0,-10.0,32.0,1644591736.59375,P04,D04,0,0,0
2179,52.0,-10.0,32.0,1644591736.625,P04,D04,0,0,0
2180,52.0,-10.0,32.0,1644591736.65625,P04,D04,0,0,0
2181,52.0,-10.0,32.0,1644591736.6875,P04,D04,0,0,0
2182,52.0,-9.0,33.0,1644591736.71875,P04,D04,0,0,0
2183,52.0,-9.0,32.0,1644591736.75,P04,D04,0,0,0
2184,53.0,-9.0,33.0,1644591736.78125,P04,D04,0,0,0
2185,52.0,-10.0,32.0,1644591736.8125,P04,D04,0,0,0
2186,53.0,-9.0,32.0,1644591736.84375,P04,D04,0,0,0
2187,53.0,-10.0,32.0,1644591736.875,P04,D04,0,0,0
2188,52.0,-10.0,32.0,1644591736.90625,P04,D04,0,0,0
2189,51.0,-9.0,33.0,1644591736.9375,P04,D04,0,0,0
2190,52.0,-10.0,33.0,1644591736.96875,P04,D04,0,0,0
2191,52.0,-10.0,33.0,1644591737.0,P04,D04,0,0,0
2192,52.0,-9.0,32.0,1644591737.03125,P04,D04,0,0,0
2193,53.0,-10.0,32.0,1644591737.0625,P04,D04,0,0,0
2194,52.0,-9.0,32.0,1644591737.09375,P04,D04,0,0,0
2195,53.0,-9.0,32.0,1644591737.125,P04,D04,0,0,0
2196,53.0,-9.0,32.0,1644591737.15625,P04,D04,0,0,0
2197,52.0,-9.0,31.0,1644591737.1875,P04,D04,0,0,0
2198,52.0,-9.0,32.0,1644591737.21875,P04,D04,0,0,0
2199,52.0,-9.0,33.0,1644591737.25,P04,D04,0,0,0
2200,51.0,-10.0,32.0,1644591737.28125,P04,D04,0,0,0
2201,51.0,-11.0,32.0,1644591737.3125,P04,D04,0,0,0
2202,53.0,-10.0,32.0,1644591737.34375,P04,D04,0,0,0
2203,52.0,-9.0,31.0,1644591737.375,P04,D04,0,0,0
2204,53.0,-9.0,31.0,1644591737.40625,P04,D04,0,0,0
2205,53.0,-9.0,32.0,1644591737.4375,P04,D04,0,0,0
2206,53.0,-8.0,33.0,1644591737.46875,P04,D04,0,0,0
2207,53.0,-9.0,32.0,1644591737.5,P04,D04,0,0,0
2208,52.0,-10.0,31.0,1644591737.53125,P04,D04,0,0,0
2209,51.0,-10.0,32.0,1644591737.5625,P04,D04,0,0,0
2210,54.0,-10.0,33.0,1644591737.59375,P04,D04,0,0,0
2211,53.0,-10.0,32.0,1644591737.625,P04,D04,0,0,0
2212,52.0,-9.0,31.0,1644591737.65625,P04,D04,0,0,0
2213,53.0,-9.0,32.0,1644591737.6875,P04,D04,0,0,0
2214,53.0,-9.0,32.0,1644591737.71875,P04,D04,0,0,0
2215,53.0,-9.0,32.0,1644591737.75,P04,D04,0,0,0
2216,52.0,-9.0,32.0,1644591737.78125,P04,D04,0,0,0
2217,52.0,-9.0,32.0,1644591737.8125,P04,D04,0,0,0
2218,53.0,-10.0,32.0,1644591737.84375,P04,D04,0,0,0
2219,53.0,-10.0,33.0,1644591737.875,P04,D04,0,0,0
2220,53.0,-10.0,32.0,1644591737.90625,P04,D04,0,0,0
2221,52.0,-9.0,31.0,1644591737.9375,P04,D04,0,0,0
2222,52.0,-9.0,32.0,1644591737.96875,P04,D04,0,0,0
2223,53.0,-9.0,32.0,1644591738.0,P04,D04,0,0,0
2224,53.0,-9.0,32.0,1644591738.03125,P04,D04,0,0,0
2225,52.0,-9.0,32.0,1644591738.0625,P04,D04,0,0,0
2226,52.0,-9.0,32.0,1644591738.09375,P04,D04,0,0,0
2227,53.0,-9.0,32.0,1644591738.125,P04,D04,0,0,0
2228,53.0,-9.0,32.0,1644591738.15625,P04,D04,0,0,0
2229,53.0,-9.0,32.0,1644591738.1875,P04,D04,0,0,0
2230,53.0,-9.0,32.0,1644591738.21875,P04,D04,0,0,0
2231,53.0,-9.0,32.0,1644591738.25,P04,D04,0,0,0
2232,53.0,-9.0,32.0,1644591738.28125,P04,D04,0,0,0
2233,52.0,-9.0,32.0,1644591738.3125,P04,D04,0,0,0
2234,52.0,-9.0,32.0,1644591738.34375,P04,D04,0,0,0
2235,52.0,-9.0,32.0,1644591738.375,P04,D04,0,0,0
2236,52.0,-9.0,32.0,1644591738.40625,P04,D04,0,0,0
2237,53.0,-9.0,32.0,1644591738.4375,P04,D04,0,0,0
2238,52.0,-9.0,33.0,1644591738.46875,P04,D04,0,0,0
2239,52.0,-9.0,33.0,1644591738.5,P04,D04,0,0,0
2240,52.0,-9.0,32.0,1644591738.53125,P04,D04,0,0,0
2241,52.0,-9.0,32.0,1644591738.5625,P04,D04,0,0,0
2242,52.0,-9.0,32.0,1644591738.59375,P04,D04,0,0,0
2243,53.0,-9.0,32.0,1644591738.625,P04,D04,0,0,0
2244,52.0,-9.0,32.0,1644591738.65625,P04,D04,0,0,0
2245,52.0,-9.0,32.0,1644591738.6875,P04,D04,0,0,0
2246,53.0,-9.0,32.0,1644591738.71875,P04,D04,0,0,0
2247,52.0,-9.0,32.0,1644591738.75,P04,D04,0,0,0
2248,52.0,-9.0,32.0,1644591738.78125,P04,D04,0,0,0
2249,52.0,-9.0,32.0,1644591738.8125,P04,D04,0,0,0
2250,53.0,-9.0,33.0,1644591738.84375,P04,D04,0,0,0
2251,52.0,-9.0,33.0,1644591738.875,P04,D04,0,0,0
2252,52.0,-9.0,32.0,1644591738.90625,P04,D04,0,0,0
2253,52.0,-9.0,32.0,1644591738.9375,P04,D04,0,0,0
2254,52.0,-9.0,32.0,1644591738.96875,P04,D04,0,0,0
2255,52.0,-9.0,32.0,1644591739.0,P04,D04,0,0,0
2256,52.0,-9.0,32.0,1644591739.03125,P04,D04,0,0,0
2257,52.0,-9.0,32.0,1644591739.0625,P04,D04,0,0,0
2258,52.0,-9.0,32.0,1644591739.09375,P04,D04,0,0,0
2259,52.0,-9.0,33.0,1644591739.125,P04,D04,0,0,0
2260,52.0,-9.0,32.0,1644591739.15625,P04,D04,0,0,0
2261,53.0,-9.0,32.0,1644591739.1875,P04,D04,0,0,0
2262,53.0,-9.0,32.0,1644591739.21875,P04,D04,0,0,0
2263,52.0,-10.0,32.0,1644591739.25,P04,D04,0,0,0
2264,53.0,-10.0,32.0,1644591739.28125,P04,D04,0,0,0
2265,51.0,-9.0,33.0,1644591739.3125,P04,D04,0,0,0
2266,51.0,-9.0,32.0,1644591739.34375,P04,D04,0,0,0
2267,54.0,-8.0,32.0,1644591739.375,P04,D04,0,0,0
2268,53.0,-8.0,32.0,1644591739.40625,P04,D04,0,0,0
2269,51.0,-8.0,33.0,1644591739.4375,P04,D04,0,0,0
2270,52.0,-9.0,31.0,1644591739.46875,P04,D04,0,0,0
2271,55.0,-11.0,31.0,1644591739.5,P04,D04,0,0,0
2272,51.0,-8.0,34.0,1644591739.53125,P04,D04,0,0,0
2273,49.0,-7.0,32.0,1644591739.5625,P04,D04,0,0,0
2274,53.0,-10.0,31.0,1644591739.59375,P04,D04,0,0,0
2275,53.0,-11.0,33.0,1644591739.625,P04,D04,0,0,0
2276,53.0,-9.0,33.0,1644591739.65625,P04,D04,0,0,0
2277,52.0,-9.0,32.0,1644591739.6875,P04,D04,0,0,0
2278,52.0,-10.0,32.0,1644591739.71875,P04,D04,0,0,0
2279,53.0,-10.0,33.0,1644591739.75,P04,D04,0,0,0
2280,53.0,-9.0,32.0,1644591739.78125,P04,D04,0,0,0
2281,52.0,-9.0,31.0,1644591739.8125,P04,D04,0,0,0
2282,53.0,-9.0,32.0,1644591739.84375,P04,D04,0,0,0
2283,53.0,-9.0,33.0,1644591739.875,P04,D04,0,0,0
2284,52.0,-9.0,32.0,1644591739.90625,P04,D04,0,0,0
2285,52.0,-9.0,32.0,1644591739.9375,P04,D04,0,0,0
2286,52.0,-9.0,32.0,1644591739.96875,P04,D04,0,0,0
2287,52.0,-9.0,32.0,1644591740.0,P04,D04,0,0,0
2288,52.0,-9.0,32.0,1644591740.03125,P04,D04,0,0,0
2289,52.0,-9.0,32.0,1644591740.0625,P04,D04,0,0,0
2290,52.0,-9.0,32.0,1644591740.09375,P04,D04,0,0,0
2291,53.0,-9.0,32.0,1644591740.125,P04,D04,0,0,0
2292,52.0,-9.0,32.0,1644591740.15625,P04,D04,0,0,0
2293,52.0,-9.0,32.0,1644591740.1875,P04,D04,0,0,0
2294,53.0,-9.0,32.0,1644591740.21875,P04,D04,0,0,0
2295,52.0,-9.0,32.0,1644591740.25,P04,D04,0,0,0
2296,52.0,-9.0,32.0,1644591740.28125,P04,D04,0,0,0
2297,52.0,-9.0,32.0,1644591740.3125,P04,D04,0,0,0
2298,52.0,-9.0,32.0,1644591740.34375,P04,D04,0,0,0
2299,52.0,-9.0,32.0,1644591740.375,P04,D04,0,0,0
2300,52.0,-9.0,32.0,1644591740.40625,P04,D04,0,0,0
2301,53.0,-9.0,32.0,1644591740.4375,P04,D04,0,0,0
2302,52.0,-9.0,32.0,1644591740.46875,P04,D04,0,0,0
2303,52.0,-9.0,32.0,1644591740.5,P04,D04,0,0,0
2304,53.0,-9.0,32.0,1644591740.53125,P04,D04,0,0,0
2305,52.0,-9.0,33.0,1644591740.5625,P04,D04,0,0,0
2306,52.0,-9.0,32.0,1644591740.59375,P04,D04,0,0,0
2307,52.0,-9.0,32.0,1644591740.625,P04,D04,0,0,0
2308,53.0,-9.0,32.0,1644591740.65625,P04,D04,0,0,0
2309,52.0,-9.0,32.0,1644591740.6875,P04,D04,0,0,0
2310,52.0,-9.0,32.0,1644591740.71875,P04,D04,0,0,0
2311,52.0,-9.0,32.0,1644591740.75,P04,D04,0,0,0
2312,53.0,-9.0,32.0,1644591740.78125,P04,D04,0,0,0
2313,52.0,-9.0,32.0,1644591740.8125,P04,D04,0,0,0
2314,53.0,-9.0,32.0,1644591740.84375,P04,D04,0,0,0
2315,53.0,-9.0,32.0,1644591740.875,P04,D04,0,0,0
2316,53.0,-9.0,32.0,1644591740.90625,P04,D04,0,0,0
2317,53.0,-9.0,32.0,1644591740.9375,P04,D04,0,0,0
2318,52.0,-9.0,32.0,1644591740.96875,P04,D04,0,0,0
2319,52.0,-9.0,32.0,1644591741.0,P04,D04,0,0,0
2320,52.0,-9.0,32.0,1644591741.03125,P04,D04,0,0,0
2321,52.0,-9.0,32.0,1644591741.0625,P04,D04,0,0,0
2322,52.0,-9.0,32.0,1644591741.09375,P04,D04,0,0,0
2323,52.0,-9.0,32.0,1644591741.125,P04,D04,0,0,0
2324,53.0,-9.0,32.0,1644591741.15625,P04,D04,0,0,0
2325,52.0,-9.0,32.0,1644591741.1875,P04,D04,0,0,0
2326,52.0,-9.0,32.0,1644591741.21875,P04,D04,0,0,0
2327,52.0,-9.0,32.0,1644591741.25,P04,D04,0,0,0
2328,52.0,-9.0,32.0,1644591741.28125,P04,D04,0,0,0
2329,53.0,-9.0,32.0,1644591741.3125,P04,D04,0,0,0
2330,52.0,-9.0,32.0,1644591741.34375,P04,D04,0,0,0
2331,52.0,-9.0,32.0,1644591741.375,P04,D04,0,0,0
2332,53.0,-9.0,32.0,1644591741.40625,P04,D04,0,0,0
2333,52.0,-9.0,32.0,1644591741.4375,P04,D04,0,0,0
2334,52.0,-9.0,32.0,1644591741.46875,P04,D04,0,0,0
2335,52.0,-9.0,32.0,1644591741.5,P04,D04,0,0,0
2336,52.0,-9.0,32.0,1644591741.53125,P04,D04,0,0,0
2337,52.0,-9.0,32.0,1644591741.5625,P04,D04,0,0,0
2338,52.0,-9.0,32.0,1644591741.59375,P04,D04,0,0,0
2339,52.0,-9.0,32.0,1644591741.625,P04,D04,0,0,0
2340,52.0,-9.0,32.0,1644591741.65625,P04,D04,0,0,0
2341,52.0,-9.0,32.0,1644591741.6875,P04,D04,0,0,0
2342,52.0,-9.0,33.0,1644591741.71875,P04,D04,0,0,0
2343,51.0,-9.0,33.0,1644591741.75,P04,D04,0,0,0
2344,53.0,-9.0,32.0,1644591741.78125,P04,D04,0,0,0
2345,53.0,-9.0,32.0,1644591741.8125,P04,D04,0,0,0
2346,52.0,-9.0,33.0,1644591741.84375,P04,D04,0,0,0
2347,52.0,-9.0,33.0,1644591741.875,P04,D04,0,0,0
2348,52.0,-9.0,32.0,1644591741.90625,P04,D04,0,0,0
2349,53.0,-9.0,33.0,1644591741.9375,P04,D04,0,0,0
2350,53.0,-9.0,32.0,1644591741.96875,P04,D04,0,0,0
2351,52.0,-9.0,32.0,1644591742.0,P04,D04,0,0,0
2352,52.0,-9.0,32.0,1644591742.03125,P04,D04,0,0,0
2353,52.0,-9.0,32.0,1644591742.0625,P04,D04,0,0,0
2354,53.0,-9.0,32.0,1644591742.09375,P04,D04,0,0,0
2355,51.0,-8.0,33.0,1644591742.125,P04,D04,0,0,0
2356,52.0,-8.0,32.0,1644591742.15625,P04,D04,0,0,0
2357,54.0,-9.0,32.0,1644591742.1875,P04,D04,0,0,0
2358,52.0,-9.0,33.0,1644591742.21875,P04,D04,0,0,0
2359,51.0,-9.0,32.0,1644591742.25,P04,D04,0,0,0
2360,53.0,-10.0,32.0,1644591742.28125,P04,D04,0,0,0
2361,53.0,-9.0,32.0,1644591742.3125,P04,D04,0,0,0
2362,52.0,-8.0,32.0,1644591742.34375,P04,D04,0,0,0
2363,52.0,-9.0,32.0,1644591742.375,P04,D04,0,0,0
2364,52.0,-9.0,32.0,1644591742.40625,P04,D04,0,0,0
2365,53.0,-9.0,32.0,1644591742.4375,P04,D04,0,0,0
2366,52.0,-9.0,32.0,1644591742.46875,P04,D04,0,0,0
2367,52.0,-9.0,32.0,1644591742.5,P04,D04,0,0,0
2368,52.0,-9.0,33.0,1644591742.53125,P04,D04,0,0,0
2369,52.0,-9.0,33.0,1644591742.5625,P04,D04,0,0,0
2370,52.0,-9.0,32.0,1644591742.59375,P04,D04,0,0,0
2371,52.0,-9.0,32.0,1644591742.625,P04,D04,0,0,0
2372,52.0,-9.0,32.0,1644591742.65625,P04,D04,0,0,0
2373,52.0,-9.0,32.0,1644591742.6875,P04,D04,0,0,0
2374,52.0,-9.0,32.0,1644591742.71875,P04,D04,0,0,0
2375,52.0,-9.0,32.0,1644591742.75,P04,D04,0,0,0
2376,52.0,-9.0,32.0,1644591742.78125,P04,D04,0,0,0
2377,52.0,-9.0,32.0,1644591742.8125,P04,D04,0,0,0
2378,52.0,-9.0,32.0,1644591742.84375,P04,D04,0,0,0
2379,52.0,-9.0,32.0,1644591742.875,P04,D04,0,0,0
2380,53.0,-9.0,32.0,1644591742.90625,P04,D04,0,0,0
2381,52.0,-9.0,32.0,1644591742.9375,P04,D04,0,0,0
2382,52.0,-9.0,32.0,1644591742.96875,P04,D04,0,0,0
2383,53.0,-9.0,32.0,1644591743.0,P04,D04,0,0,0
2384,52.0,-9.0,32.0,1644591743.03125,P04,D04,0,0,0
2385,52.0,-9.0,32.0,1644591743.0625,P04,D04,0,0,0
2386,53.0,-9.0,32.0,1644591743.09375,P04,D04,0,0,0
2387,53.0,-9.0,32.0,1644591743.125,P04,D04,0,0,0
2388,53.0,-9.0,32.0,1644591743.15625,P04,D04,0,0,0
2389,52.0,-9.0,32.0,1644591743.1875,P04,D04,0,0,0
2390,53.0,-9.0,32.0,1644591743.21875,P04,D04,0,0,0
2391,53.0,-9.0,32.0,1644591743.25,P04,D04,0,0,0
2392,52.0,-9.0,32.0,1644591743.28125,P04,D04,0,0,0
2393,52.0,-9.0,32.0,1644591743.3125,P04,D04,0,0,0
2394,52.0,-9.0,32.0,1644591743.34375,P04,D04,0,0,0
2395,52.0,-9.0,32.0,1644591743.375,P04,D04,0,0,0
2396,53.0,-9.0,32.0,1644591743.40625,P04,D04,0,0,0
2397,52.0,-8.0,32.0,1644591743.4375,P04,D04,0,0,0
2398,52.0,-8.0,32.0,1644591743.46875,P04,D04,0,0,0
2399,53.0,-9.0,32.0,1644591743.5,P04,D04,0,0,0
2400,53.0,-9.0,32.0,1644591743.53125,P04,D04,0,0,0
2401,53.0,-9.0,32.0,1644591743.5625,P04,D04,0,0,0
2402,53.0,-9.0,32.0,1644591743.59375,P04,D04,0,0,0
2403,53.0,-9.0,32.0,1644591743.625,P04,D04,0,0,0
2404,52.0,-9.0,32.0,1644591743.65625,P04,D04,0,0,0
2405,52.0,-9.0,31.0,1644591743.6875,P04,D04,0,0,0
2406,53.0,-8.0,31.0,1644591743.71875,P04,D04,0,0,0
2407,53.0,-8.0,32.0,1644591743.75,P04,D04,0,0,0
2408,53.0,-8.0,32.0,1644591743.78125,P04,D04,0,0,0
2409,52.0,-8.0,32.0,1644591743.8125,P04,D04,0,0,0
2410,52.0,-8.0,32.0,1644591743.84375,P04,D04,0,0,0
2411,53.0,-9.0,33.0,1644591743.875,P04,D04,0,0,0
2412,52.0,-8.0,33.0,1644591743.90625,P04,D04,0,0,0
2413,52.0,-8.0,33.0,1644591743.9375,P04,D04,0,0,0
2414,52.0,-8.0,33.0,1644591743.96875,P04,D04,0,0,0
