,acc_x,acc_y,acc_z,timestamp,participant,document,val,arou,eng
0,-29.0,-1.0,56.0,1644852744.21875,P09,D11,1,0,1
1,-29.0,-1.0,56.0,1644852744.25,P09,D11,1,0,1
2,-29.0,-1.0,56.0,1644852744.28125,P09,D11,1,0,1
3,-29.0,-1.0,56.0,1644852744.3125,P09,D11,1,0,1
4,-29.0,-1.0,56.0,1644852744.34375,P09,D11,1,0,1
5,-29.0,-1.0,56.0,1644852744.375,P09,D11,1,0,1
6,-29.0,-1.0,56.0,1644852744.40625,P09,D11,1,0,1
7,-29.0,-1.0,56.0,1644852744.4375,P09,D11,1,0,1
8,-29.0,-1.0,56.0,1644852744.46875,P09,D11,1,0,1
9,-29.0,-1.0,56.0,1644852744.5,P09,D11,1,0,1
10,-29.0,-1.0,57.0,1644852744.53125,P09,D11,1,0,1
11,-29.0,-1.0,56.0,1644852744.5625,P09,D11,1,0,1
12,-29.0,-1.0,56.0,1644852744.59375,P09,D11,1,0,1
13,-29.0,0.0,56.0,1644852744.625,P09,D11,1,0,1
14,-29.0,-1.0,56.0,1644852744.65625,P09,D11,1,0,1
15,-29.0,-1.0,56.0,1644852744.6875,P09,D11,1,0,1
16,-29.0,0.0,56.0,1644852744.71875,P09,D11,1,0,1
17,-29.0,-1.0,56.0,1644852744.75,P09,D11,1,0,1
18,-29.0,-1.0,56.0,1644852744.78125,P09,D11,1,0,1
19,-29.0,-1.0,56.0,1644852744.8125,P09,D11,1,0,1
20,-29.0,-1.0,56.0,1644852744.84375,P09,D11,1,0,1
21,-29.0,-1.0,56.0,1644852744.875,P09,D11,1,0,1
22,-29.0,-1.0,56.0,1644852744.90625,P09,D11,1,0,1
23,-29.0,-1.0,56.0,1644852744.9375,P09,D11,1,0,1
24,-29.0,0.0,56.0,1644852744.96875,P09,D11,1,0,1
25,-29.0,0.0,56.0,1644852745.0,P09,D11,1,0,1
26,-29.0,-1.0,56.0,1644852745.03125,P09,D11,1,0,1
27,-29.0,-1.0,56.0,1644852745.0625,P09,D11,1,0,1
28,-29.0,-1.0,56.0,1644852745.09375,P09,D11,1,0,1
29,-29.0,-1.0,56.0,1644852745.125,P09,D11,1,0,1
30,-29.0,-1.0,56.0,1644852745.15625,P09,D11,1,0,1
31,-29.0,-1.0,56.0,1644852745.1875,P09,D11,1,0,1
32,-29.0,0.0,56.0,1644852745.21875,P09,D11,1,0,1
33,-29.0,-1.0,56.0,1644852745.25,P09,D11,1,0,1
34,-29.0,-1.0,56.0,1644852745.28125,P09,D11,1,0,1
35,-29.0,-1.0,56.0,1644852745.3125,P09,D11,1,0,1
36,-29.0,-1.0,56.0,1644852745.34375,P09,D11,1,0,1
37,-29.0,-1.0,56.0,1644852745.375,P09,D11,1,0,1
38,-29.0,-1.0,56.0,1644852745.40625,P09,D11,1,0,1
39,-29.0,-1.0,56.0,1644852745.4375,P09,D11,1,0,1
40,-29.0,-1.0,56.0,1644852745.46875,P09,D11,1,0,1
41,-29.0,0.0,56.0,1644852745.5,P09,D11,1,0,1
42,-29.0,-1.0,56.0,1644852745.53125,P09,D11,1,0,1
43,-29.0,-1.0,56.0,1644852745.5625,P09,D11,1,0,1
44,-29.0,-1.0,56.0,1644852745.59375,P09,D11,1,0,1
45,-29.0,-1.0,57.0,1644852745.625,P09,D11,1,0,1
46,-29.0,-1.0,56.0,1644852745.65625,P09,D11,1,0,1
47,-29.0,-1.0,56.0,1644852745.6875,P09,D11,1,0,1
48,-29.0,-1.0,56.0,1644852745.71875,P09,D11,1,0,1
49,-29.0,-1.0,56.0,1644852745.75,P09,D11,1,0,1
50,-29.0,-1.0,56.0,1644852745.78125,P09,D11,1,0,1
51,-29.0,-1.0,56.0,1644852745.8125,P09,D11,1,0,1
52,-29.0,-1.0,56.0,1644852745.84375,P09,D11,1,0,1
53,-29.0,-1.0,56.0,1644852745.875,P09,D11,1,0,1
54,-29.0,-1.0,56.0,1644852745.90625,P09,D11,1,0,1
55,-29.0,-1.0,56.0,1644852745.9375,P09,D11,1,0,1
56,-29.0,-1.0,56.0,1644852745.96875,P09,D11,1,0,1
57,-29.0,-1.0,56.0,1644852746.0,P09,D11,1,0,1
58,-29.0,-1.0,56.0,1644852746.03125,P09,D11,1,0,1
59,-29.0,-1.0,56.0,1644852746.0625,P09,D11,1,0,1
60,-29.0,-1.0,56.0,1644852746.09375,P09,D11,1,0,1
61,-29.0,-1.0,56.0,1644852746.125,P09,D11,1,0,1
62,-29.0,-1.0,56.0,1644852746.15625,P09,D11,1,0,1
63,-29.0,0.0,56.0,1644852746.1875,P09,D11,1,0,1
64,-29.0,-1.0,56.0,1644852746.21875,P09,D11,1,0,1
65,-29.0,-1.0,56.0,1644852746.25,P09,D11,1,0,1
66,-29.0,-1.0,56.0,1644852746.28125,P09,D11,1,0,1
67,-29.0,-1.0,56.0,1644852746.3125,P09,D11,1,0,1
68,-29.0,-1.0,56.0,1644852746.34375,P09,D11,1,0,1
69,-29.0,0.0,56.0,1644852746.375,P09,D11,1,0,1
70,-29.0,-1.0,56.0,1644852746.40625,P09,D11,1,0,1
71,-29.0,-1.0,56.0,1644852746.4375,P09,D11,1,0,1
72,-29.0,-1.0,56.0,1644852746.46875,P09,D11,1,0,1
73,-29.0,0.0,56.0,1644852746.5,P09,D11,1,0,1
74,-29.0,0.0,56.0,1644852746.53125,P09,D11,1,0,1
75,-29.0,-1.0,56.0,1644852746.5625,P09,D11,1,0,1
76,-29.0,0.0,56.0,1644852746.59375,P09,D11,1,0,1
77,-29.0,-1.0,56.0,1644852746.625,P09,D11,1,0,1
78,-29.0,-1.0,56.0,1644852746.65625,P09,D11,1,0,1
79,-29.0,-1.0,56.0,1644852746.6875,P09,D11,1,0,1
80,-29.0,-1.0,56.0,1644852746.71875,P09,D11,1,0,1
81,-29.0,-1.0,56.0,1644852746.75,P09,D11,1,0,1
82,-29.0,-1.0,56.0,1644852746.78125,P09,D11,1,0,1
83,-29.0,-1.0,56.0,1644852746.8125,P09,D11,1,0,1
84,-29.0,-1.0,56.0,1644852746.84375,P09,D11,1,0,1
85,-29.0,-1.0,56.0,1644852746.875,P09,D11,1,0,1
86,-29.0,-1.0,56.0,1644852746.90625,P09,D11,1,0,1
87,-29.0,-1.0,56.0,1644852746.9375,P09,D11,1,0,1
88,-29.0,-1.0,56.0,1644852746.96875,P09,D11,1,0,1
89,-29.0,-1.0,56.0,1644852747.0,P09,D11,1,0,1
90,-29.0,-1.0,56.0,1644852747.03125,P09,D11,1,0,1
91,-29.0,-1.0,56.0,1644852747.0625,P09,D11,1,0,1
92,-29.0,-1.0,57.0,1644852747.09375,P09,D11,1,0,1
93,-29.0,-1.0,56.0,1644852747.125,P09,D11,1,0,1
94,-29.0,-1.0,56.0,1644852747.15625,P09,D11,1,0,1
95,-29.0,-1.0,56.0,1644852747.1875,P09,D11,1,0,1
96,-29.0,-1.0,56.0,1644852747.21875,P09,D11,1,0,1
97,-29.0,-1.0,56.0,1644852747.25,P09,D11,1,0,1
98,-29.0,-1.0,56.0,1644852747.28125,P09,D11,1,0,1
99,-29.0,-1.0,56.0,1644852747.3125,P09,D11,1,0,1
100,-29.0,-1.0,56.0,1644852747.34375,P09,D11,1,0,1
101,-29.0,-1.0,56.0,1644852747.375,P09,D11,1,0,1
102,-29.0,-1.0,56.0,1644852747.40625,P09,D11,1,0,1
103,-29.0,0.0,56.0,1644852747.4375,P09,D11,1,0,1
104,-29.0,0.0,56.0,1644852747.46875,P09,D11,1,0,1
105,-29.0,-1.0,56.0,1644852747.5,P09,D11,1,0,1
106,-29.0,-1.0,56.0,1644852747.53125,P09,D11,1,0,1
107,-29.0,-1.0,56.0,1644852747.5625,P09,D11,1,0,1
108,-29.0,-1.0,56.0,1644852747.59375,P09,D11,1,0,1
109,-29.0,0.0,56.0,1644852747.625,P09,D11,1,0,1
110,-29.0,-1.0,56.0,1644852747.65625,P09,D11,1,0,1
111,-29.0,-1.0,56.0,1644852747.6875,P09,D11,1,0,1
112,-29.0,-1.0,56.0,1644852747.71875,P09,D11,1,0,1
113,-29.0,0.0,56.0,1644852747.75,P09,D11,1,0,1
114,-29.0,0.0,56.0,1644852747.78125,P09,D11,1,0,1
115,-29.0,-1.0,56.0,1644852747.8125,P09,D11,1,0,1
116,-29.0,-1.0,56.0,1644852747.84375,P09,D11,1,0,1
117,-28.0,-1.0,56.0,1644852747.875,P09,D11,1,0,1
118,-29.0,-1.0,56.0,1644852747.90625,P09,D11,1,0,1
119,-29.0,-1.0,56.0,1644852747.9375,P09,D11,1,0,1
120,-29.0,-1.0,56.0,1644852747.96875,P09,D11,1,0,1
121,-29.0,0.0,56.0,1644852748.0,P09,D11,1,0,1
122,-29.0,-1.0,56.0,1644852748.03125,P09,D11,1,0,1
123,-29.0,0.0,57.0,1644852748.0625,P09,D11,1,0,1
124,-29.0,-1.0,56.0,1644852748.09375,P09,D11,1,0,1
125,-29.0,-1.0,56.0,1644852748.125,P09,D11,1,0,1
126,-29.0,-1.0,56.0,1644852748.15625,P09,D11,1,0,1
127,-29.0,-1.0,56.0,1644852748.1875,P09,D11,1,0,1
128,-29.0,-1.0,56.0,1644852748.21875,P09,D11,1,0,1
129,-29.0,-1.0,56.0,1644852748.25,P09,D11,1,0,1
130,-29.0,-1.0,56.0,1644852748.28125,P09,D11,1,0,1
131,-28.0,-1.0,56.0,1644852748.3125,P09,D11,1,0,1
132,-29.0,-1.0,56.0,1644852748.34375,P09,D11,1,0,1
133,-29.0,-1.0,57.0,1644852748.375,P09,D11,1,0,1
134,-29.0,-1.0,56.0,1644852748.40625,P09,D11,1,0,1
135,-29.0,-1.0,56.0,1644852748.4375,P09,D11,1,0,1
136,-28.0,-1.0,56.0,1644852748.46875,P09,D11,1,0,1
137,-29.0,-1.0,56.0,1644852748.5,P09,D11,1,0,1
138,-29.0,-1.0,56.0,1644852748.53125,P09,D11,1,0,1
139,-28.0,-1.0,56.0,1644852748.5625,P09,D11,1,0,1
140,-28.0,-1.0,56.0,1644852748.59375,P09,D11,1,0,1
141,-29.0,0.0,56.0,1644852748.625,P09,D11,1,0,1
142,-29.0,0.0,57.0,1644852748.65625,P09,D11,1,0,1
143,-29.0,-1.0,56.0,1644852748.6875,P09,D11,1,0,1
144,-29.0,-1.0,56.0,1644852748.71875,P09,D11,1,0,1
145,-29.0,-1.0,56.0,1644852748.75,P09,D11,1,0,1
146,-29.0,-1.0,57.0,1644852748.78125,P09,D11,1,0,1
147,-29.0,-1.0,57.0,1644852748.8125,P09,D11,1,0,1
148,-28.0,0.0,56.0,1644852748.84375,P09,D11,1,0,1
149,-29.0,0.0,56.0,1644852748.875,P09,D11,1,0,1
150,-28.0,-1.0,56.0,1644852748.90625,P09,D11,1,0,1
151,-29.0,-1.0,57.0,1644852748.9375,P09,D11,1,0,1
152,-29.0,-1.0,56.0,1644852748.96875,P09,D11,1,0,1
153,-29.0,0.0,56.0,1644852749.0,P09,D11,1,0,1
154,-28.0,-1.0,56.0,1644852749.03125,P09,D11,1,0,1
155,-29.0,-1.0,56.0,1644852749.0625,P09,D11,1,0,1
156,-29.0,0.0,57.0,1644852749.09375,P09,D11,1,0,1
157,-29.0,-1.0,57.0,1644852749.125,P09,D11,1,0,1
158,-29.0,-1.0,56.0,1644852749.15625,P09,D11,1,0,1
159,-29.0,0.0,56.0,1644852749.1875,P09,D11,1,0,1
160,-29.0,-1.0,56.0,1644852749.21875,P09,D11,1,0,1
161,-29.0,-1.0,56.0,1644852749.25,P09,D11,1,0,1
162,-29.0,-1.0,56.0,1644852749.28125,P09,D11,1,0,1
163,-29.0,-1.0,56.0,1644852749.3125,P09,D11,1,0,1
164,-29.0,-1.0,56.0,1644852749.34375,P09,D11,1,0,1
165,-28.0,-1.0,56.0,1644852749.375,P09,D11,1,0,1
166,-29.0,0.0,56.0,1644852749.40625,P09,D11,1,0,1
167,-29.0,-1.0,56.0,1644852749.4375,P09,D11,1,0,1
168,-28.0,-1.0,57.0,1644852749.46875,P09,D11,1,0,1
169,-28.0,0.0,57.0,1644852749.5,P09,D11,1,0,1
170,-29.0,-1.0,56.0,1644852749.53125,P09,D11,1,0,1
171,-28.0,-1.0,57.0,1644852749.5625,P09,D11,1,0,1
172,-29.0,-1.0,56.0,1644852749.59375,P09,D11,1,0,1
173,-29.0,0.0,56.0,1644852749.625,P09,D11,1,0,1
174,-29.0,-1.0,57.0,1644852749.65625,P09,D11,1,0,1
175,-28.0,-1.0,56.0,1644852749.6875,P09,D11,1,0,1
176,-29.0,-1.0,56.0,1644852749.71875,P09,D11,1,0,1
177,-28.0,0.0,57.0,1644852749.75,P09,D11,1,0,1
178,-29.0,-1.0,56.0,1644852749.78125,P09,D11,1,0,1
179,-29.0,-1.0,56.0,1644852749.8125,P09,D11,1,0,1
180,-28.0,-1.0,56.0,1644852749.84375,P09,D11,1,0,1
181,-28.0,0.0,56.0,1644852749.875,P09,D11,1,0,1
182,-28.0,-1.0,56.0,1644852749.90625,P09,D11,1,0,1
183,-28.0,-1.0,57.0,1644852749.9375,P09,D11,1,0,1
184,-29.0,-1.0,56.0,1644852749.96875,P09,D11,1,0,1
185,-28.0,0.0,57.0,1644852750.0,P09,D11,1,0,1
186,-28.0,-1.0,57.0,1644852750.03125,P09,D11,1,0,1
187,-28.0,-1.0,57.0,1644852750.0625,P09,D11,1,0,1
188,-28.0,-1.0,57.0,1644852750.09375,P09,D11,1,0,1
189,-28.0,0.0,57.0,1644852750.125,P09,D11,1,0,1
190,-28.0,-1.0,57.0,1644852750.15625,P09,D11,1,0,1
191,-28.0,-1.0,56.0,1644852750.1875,P09,D11,1,0,1
192,-28.0,-1.0,57.0,1644852750.21875,P09,D11,1,0,1
193,-28.0,-1.0,56.0,1644852750.25,P09,D11,1,0,1
194,-28.0,-1.0,57.0,1644852750.28125,P09,D11,1,0,1
195,-28.0,-1.0,56.0,1644852750.3125,P09,D11,1,0,1
196,-26.0,0.0,57.0,1644852750.34375,P09,D11,1,0,1
197,-27.0,0.0,57.0,1644852750.375,P09,D11,1,0,1
198,-32.0,-2.0,55.0,1644852750.40625,P09,D11,1,0,1
199,-32.0,-1.0,55.0,1644852750.4375,P09,D11,1,0,1
200,-28.0,-1.0,57.0,1644852750.46875,P09,D11,1,0,1
201,-29.0,-1.0,56.0,1644852750.5,P09,D11,1,0,1
202,-29.0,-1.0,56.0,1644852750.53125,P09,D11,1,0,1
203,-29.0,0.0,56.0,1644852750.5625,P09,D11,1,0,1
204,-29.0,-1.0,56.0,1644852750.59375,P09,D11,1,0,1
205,-29.0,-1.0,56.0,1644852750.625,P09,D11,1,0,1
206,-30.0,-1.0,56.0,1644852750.65625,P09,D11,1,0,1
207,-29.0,0.0,56.0,1644852750.6875,P09,D11,1,0,1
208,-29.0,-1.0,56.0,1644852750.71875,P09,D11,1,0,1
209,-29.0,-1.0,56.0,1644852750.75,P09,D11,1,0,1
210,-29.0,0.0,56.0,1644852750.78125,P09,D11,1,0,1
211,-29.0,-1.0,56.0,1644852750.8125,P09,D11,1,0,1
212,-29.0,-1.0,56.0,1644852750.84375,P09,D11,1,0,1
213,-29.0,-1.0,56.0,1644852750.875,P09,D11,1,0,1
214,-29.0,-1.0,56.0,1644852750.90625,P09,D11,1,0,1
215,-29.0,-1.0,56.0,1644852750.9375,P09,D11,1,0,1
216,-29.0,-1.0,56.0,1644852750.96875,P09,D11,1,0,1
217,-29.0,-1.0,56.0,1644852751.0,P09,D11,1,0,1
218,-29.0,-1.0,56.0,1644852751.03125,P09,D11,1,0,1
219,-29.0,-1.0,56.0,1644852751.0625,P09,D11,1,0,1
220,-29.0,-1.0,56.0,1644852751.09375,P09,D11,1,0,1
221,-29.0,-1.0,56.0,1644852751.125,P09,D11,1,0,1
222,-29.0,0.0,56.0,1644852751.15625,P09,D11,1,0,1
223,-29.0,-1.0,56.0,1644852751.1875,P09,D11,1,0,1
224,-29.0,-1.0,56.0,1644852751.21875,P09,D11,1,0,1
225,-29.0,0.0,56.0,1644852751.25,P09,D11,1,0,1
226,-29.0,-1.0,56.0,1644852751.28125,P09,D11,1,0,1
227,-29.0,-1.0,56.0,1644852751.3125,P09,D11,1,0,1
228,-29.0,-1.0,56.0,1644852751.34375,P09,D11,1,0,1
229,-29.0,-1.0,56.0,1644852751.375,P09,D11,1,0,1
230,-29.0,-1.0,56.0,1644852751.40625,P09,D11,1,0,1
231,-29.0,-1.0,56.0,1644852751.4375,P09,D11,1,0,1
232,-29.0,-1.0,56.0,1644852751.46875,P09,D11,1,0,1
233,-29.0,-1.0,56.0,1644852751.5,P09,D11,1,0,1
234,-29.0,0.0,56.0,1644852751.53125,P09,D11,1,0,1
235,-29.0,-1.0,56.0,1644852751.5625,P09,D11,1,0,1
236,-29.0,-1.0,56.0,1644852751.59375,P09,D11,1,0,1
237,-29.0,0.0,56.0,1644852751.625,P09,D11,1,0,1
238,-29.0,-1.0,56.0,1644852751.65625,P09,D11,1,0,1
239,-29.0,-1.0,56.0,1644852751.6875,P09,D11,1,0,1
240,-29.0,-1.0,56.0,1644852751.71875,P09,D11,1,0,1
241,-29.0,-1.0,56.0,1644852751.75,P09,D11,1,0,1
242,-29.0,-1.0,56.0,1644852751.78125,P09,D11,1,0,1
243,-29.0,-1.0,56.0,1644852751.8125,P09,D11,1,0,1
244,-29.0,-1.0,56.0,1644852751.84375,P09,D11,1,0,1
245,-29.0,-1.0,56.0,1644852751.875,P09,D11,1,0,1
246,-29.0,-1.0,56.0,1644852751.90625,P09,D11,1,0,1
247,-29.0,-1.0,56.0,1644852751.9375,P09,D11,1,0,1
248,-29.0,-1.0,56.0,1644852751.96875,P09,D11,1,0,1
249,-29.0,-1.0,56.0,1644852752.0,P09,D11,1,0,1
250,-29.0,0.0,56.0,1644852752.03125,P09,D11,1,0,1
251,-29.0,0.0,56.0,1644852752.0625,P09,D11,1,0,1
252,-29.0,-1.0,56.0,1644852752.09375,P09,D11,1,0,1
253,-29.0,-1.0,56.0,1644852752.125,P09,D11,1,0,1
254,-29.0,-1.0,56.0,1644852752.15625,P09,D11,1,0,1
255,-29.0,-1.0,56.0,1644852752.1875,P09,D11,1,0,1
256,-29.0,0.0,56.0,1644852752.21875,P09,D11,1,0,1
257,-29.0,-1.0,56.0,1644852752.25,P09,D11,1,0,1
258,-29.0,-1.0,56.0,1644852752.28125,P09,D11,1,0,1
259,-29.0,-1.0,56.0,1644852752.3125,P09,D11,1,0,1
260,-29.0,0.0,56.0,1644852752.34375,P09,D11,1,0,1
261,-29.0,0.0,56.0,1644852752.375,P09,D11,1,0,1
262,-29.0,-1.0,56.0,1644852752.40625,P09,D11,1,0,1
263,-29.0,-1.0,56.0,1644852752.4375,P09,D11,1,0,1
264,-29.0,0.0,56.0,1644852752.46875,P09,D11,1,0,1
265,-29.0,0.0,56.0,1644852752.5,P09,D11,1,0,1
266,-29.0,-1.0,56.0,1644852752.53125,P09,D11,1,0,1
267,-29.0,-1.0,56.0,1644852752.5625,P09,D11,1,0,1
268,-29.0,0.0,56.0,1644852752.59375,P09,D11,1,0,1
269,-29.0,-1.0,56.0,1644852752.625,P09,D11,1,0,1
270,-29.0,-1.0,56.0,1644852752.65625,P09,D11,1,0,1
271,-29.0,-1.0,56.0,1644852752.6875,P09,D11,1,0,1
272,-29.0,0.0,56.0,1644852752.71875,P09,D11,1,0,1
273,-29.0,-1.0,56.0,1644852752.75,P09,D11,1,0,1
274,-29.0,-1.0,56.0,1644852752.78125,P09,D11,1,0,1
275,-29.0,-1.0,56.0,1644852752.8125,P09,D11,1,0,1
276,-29.0,0.0,56.0,1644852752.84375,P09,D11,1,0,1
277,-29.0,-1.0,56.0,1644852752.875,P09,D11,1,0,1
278,-29.0,-1.0,56.0,1644852752.90625,P09,D11,1,0,1
279,-29.0,0.0,56.0,1644852752.9375,P09,D11,1,0,1
280,-29.0,-1.0,56.0,1644852752.96875,P09,D11,1,0,1
281,-29.0,-1.0,56.0,1644852753.0,P09,D11,1,0,1
282,-29.0,-1.0,56.0,1644852753.03125,P09,D11,1,0,1
283,-29.0,-1.0,56.0,1644852753.0625,P09,D11,1,0,1
284,-29.0,-1.0,56.0,1644852753.09375,P09,D11,1,0,1
285,-29.0,-1.0,56.0,1644852753.125,P09,D11,1,0,1
286,-29.0,-1.0,56.0,1644852753.15625,P09,D11,1,0,1
287,-29.0,-1.0,56.0,1644852753.1875,P09,D11,1,0,1
288,-29.0,0.0,56.0,1644852753.21875,P09,D11,1,0,1
289,-29.0,-1.0,56.0,1644852753.25,P09,D11,1,0,1
290,-29.0,-1.0,56.0,1644852753.28125,P09,D11,1,0,1
291,-29.0,0.0,56.0,1644852753.3125,P09,D11,1,0,1
292,-29.0,-1.0,56.0,1644852753.34375,P09,D11,1,0,1
293,-29.0,-1.0,56.0,1644852753.375,P09,D11,1,0,1
294,-29.0,-1.0,56.0,1644852753.40625,P09,D11,1,0,1
295,-29.0,0.0,56.0,1644852753.4375,P09,D11,1,0,1
296,-29.0,0.0,56.0,1644852753.46875,P09,D11,1,0,1
297,-29.0,-1.0,56.0,1644852753.5,P09,D11,1,0,1
298,-29.0,-1.0,56.0,1644852753.53125,P09,D11,1,0,1
299,-29.0,0.0,56.0,1644852753.5625,P09,D11,1,0,1
300,-29.0,0.0,56.0,1644852753.59375,P09,D11,1,0,1
301,-29.0,-1.0,56.0,1644852753.625,P09,D11,1,0,1
302,-29.0,-1.0,56.0,1644852753.65625,P09,D11,1,0,1
303,-29.0,0.0,56.0,1644852753.6875,P09,D11,1,0,1
304,-29.0,-1.0,56.0,1644852753.71875,P09,D11,1,0,1
305,-29.0,0.0,56.0,1644852753.75,P09,D11,1,0,1
306,-29.0,-1.0,56.0,1644852753.78125,P09,D11,1,0,1
307,-29.0,-1.0,56.0,1644852753.8125,P09,D11,1,0,1
308,-29.0,-1.0,56.0,1644852753.84375,P09,D11,1,0,1
309,-29.0,-1.0,56.0,1644852753.875,P09,D11,1,0,1
310,-29.0,-1.0,56.0,1644852753.90625,P09,D11,1,0,1
311,-29.0,-1.0,56.0,1644852753.9375,P09,D11,1,0,1
312,-29.0,-1.0,56.0,1644852753.96875,P09,D11,1,0,1
313,-29.0,-1.0,56.0,1644852754.0,P09,D11,1,0,1
314,-29.0,0.0,56.0,1644852754.03125,P09,D11,1,0,1
315,-29.0,-1.0,56.0,1644852754.0625,P09,D11,1,0,1
316,-29.0,-1.0,56.0,1644852754.09375,P09,D11,1,0,1
317,-29.0,-1.0,56.0,1644852754.125,P09,D11,1,0,1
318,-29.0,-1.0,56.0,1644852754.15625,P09,D11,1,0,1
319,-29.0,-1.0,56.0,1644852754.1875,P09,D11,1,0,1
320,-29.0,-1.0,56.0,1644852754.21875,P09,D11,1,0,1
321,-29.0,-1.0,56.0,1644852754.25,P09,D11,1,0,1
322,-29.0,-1.0,56.0,1644852754.28125,P09,D11,1,0,1
323,-29.0,-1.0,56.0,1644852754.3125,P09,D11,1,0,1
324,-29.0,-1.0,56.0,1644852754.34375,P09,D11,1,0,1
325,-29.0,0.0,56.0,1644852754.375,P09,D11,1,0,1
326,-29.0,-1.0,56.0,1644852754.40625,P09,D11,1,0,1
327,-29.0,-1.0,56.0,1644852754.4375,P09,D11,1,0,1
328,-29.0,-1.0,56.0,1644852754.46875,P09,D11,1,0,1
329,-29.0,-1.0,56.0,1644852754.5,P09,D11,1,0,1
330,-29.0,-1.0,56.0,1644852754.53125,P09,D11,1,0,1
331,-29.0,-1.0,56.0,1644852754.5625,P09,D11,1,0,1
332,-29.0,-1.0,56.0,1644852754.59375,P09,D11,1,0,1
333,-29.0,-1.0,56.0,1644852754.625,P09,D11,1,0,1
334,-29.0,0.0,56.0,1644852754.65625,P09,D11,1,0,1
335,-29.0,-1.0,56.0,1644852754.6875,P09,D11,1,0,1
336,-29.0,-1.0,56.0,1644852754.71875,P09,D11,1,0,1
337,-29.0,-1.0,56.0,1644852754.75,P09,D11,1,0,1
338,-29.0,-1.0,56.0,1644852754.78125,P09,D11,1,0,1
339,-29.0,-1.0,56.0,1644852754.8125,P09,D11,1,0,1
340,-29.0,-1.0,56.0,1644852754.84375,P09,D11,1,0,1
341,-29.0,-1.0,56.0,1644852754.875,P09,D11,1,0,1
342,-29.0,-1.0,56.0,1644852754.90625,P09,D11,1,0,1
343,-29.0,-1.0,56.0,1644852754.9375,P09,D11,1,0,1
344,-29.0,-1.0,56.0,1644852754.96875,P09,D11,1,0,1
345,-29.0,-1.0,56.0,1644852755.0,P09,D11,1,0,1
346,-29.0,-1.0,56.0,1644852755.03125,P09,D11,1,0,1
347,-29.0,-1.0,56.0,1644852755.0625,P09,D11,1,0,1
348,-29.0,-1.0,57.0,1644852755.09375,P09,D11,1,0,1
349,-29.0,-1.0,56.0,1644852755.125,P09,D11,1,0,1
350,-29.0,-1.0,56.0,1644852755.15625,P09,D11,1,0,1
351,-29.0,0.0,56.0,1644852755.1875,P09,D11,1,0,1
352,-29.0,-1.0,56.0,1644852755.21875,P09,D11,1,0,1
353,-29.0,-1.0,56.0,1644852755.25,P09,D11,1,0,1
354,-29.0,-1.0,56.0,1644852755.28125,P09,D11,1,0,1
355,-29.0,-1.0,56.0,1644852755.3125,P09,D11,1,0,1
356,-29.0,0.0,56.0,1644852755.34375,P09,D11,1,0,1
357,-29.0,-1.0,56.0,1644852755.375,P09,D11,1,0,1
358,-29.0,0.0,56.0,1644852755.40625,P09,D11,1,0,1
359,-29.0,-1.0,56.0,1644852755.4375,P09,D11,1,0,1
360,-29.0,-1.0,56.0,1644852755.46875,P09,D11,1,0,1
361,-29.0,0.0,56.0,1644852755.5,P09,D11,1,0,1
362,-29.0,-1.0,56.0,1644852755.53125,P09,D11,1,0,1
363,-29.0,0.0,56.0,1644852755.5625,P09,D11,1,0,1
364,-29.0,-1.0,56.0,1644852755.59375,P09,D11,1,0,1
365,-29.0,-1.0,56.0,1644852755.625,P09,D11,1,0,1
366,-29.0,-1.0,56.0,1644852755.65625,P09,D11,1,0,1
367,-29.0,-1.0,56.0,1644852755.6875,P09,D11,1,0,1
368,-29.0,-1.0,56.0,1644852755.71875,P09,D11,1,0,1
369,-29.0,-1.0,56.0,1644852755.75,P09,D11,1,0,1
370,-29.0,0.0,56.0,1644852755.78125,P09,D11,1,0,1
371,-29.0,-1.0,56.0,1644852755.8125,P09,D11,1,0,1
372,-29.0,-1.0,56.0,1644852755.84375,P09,D11,1,0,1
373,-29.0,-1.0,56.0,1644852755.875,P09,D11,1,0,1
374,-29.0,-1.0,56.0,1644852755.90625,P09,D11,1,0,1
375,-29.0,-1.0,56.0,1644852755.9375,P09,D11,1,0,1
376,-29.0,-1.0,56.0,1644852755.96875,P09,D11,1,0,1
377,-29.0,-1.0,56.0,1644852756.0,P09,D11,1,0,1
378,-29.0,0.0,56.0,1644852756.03125,P09,D11,1,0,1
379,-29.0,-1.0,56.0,1644852756.0625,P09,D11,1,0,1
380,-29.0,-1.0,56.0,1644852756.09375,P09,D11,1,0,1
381,-29.0,-1.0,56.0,1644852756.125,P09,D11,1,0,1
382,-29.0,0.0,56.0,1644852756.15625,P09,D11,1,0,1
383,-29.0,-1.0,56.0,1644852756.1875,P09,D11,1,0,1
384,-29.0,-1.0,56.0,1644852756.21875,P09,D11,1,0,1
385,-29.0,0.0,56.0,1644852756.25,P09,D11,1,0,1
386,-29.0,-1.0,56.0,1644852756.28125,P09,D11,1,0,1
387,-29.0,-1.0,56.0,1644852756.3125,P09,D11,1,0,1
388,-29.0,-1.0,56.0,1644852756.34375,P09,D11,1,0,1
389,-29.0,-1.0,56.0,1644852756.375,P09,D11,1,0,1
390,-29.0,-1.0,56.0,1644852756.40625,P09,D11,1,0,1
391,-29.0,-1.0,56.0,1644852756.4375,P09,D11,1,0,1
392,-29.0,-1.0,56.0,1644852756.46875,P09,D11,1,0,1
393,-29.0,-1.0,56.0,1644852756.5,P09,D11,1,0,1
394,-29.0,-1.0,56.0,1644852756.53125,P09,D11,1,0,1
395,-29.0,-1.0,56.0,1644852756.5625,P09,D11,1,0,1
396,-29.0,-1.0,56.0,1644852756.59375,P09,D11,1,0,1
397,-29.0,0.0,56.0,1644852756.625,P09,D11,1,0,1
398,-29.0,-1.0,56.0,1644852756.65625,P09,D11,1,0,1
399,-29.0,-1.0,56.0,1644852756.6875,P09,D11,1,0,1
400,-29.0,-1.0,56.0,1644852756.71875,P09,D11,1,0,1
401,-29.0,-1.0,56.0,1644852756.75,P09,D11,1,0,1
402,-29.0,-1.0,56.0,1644852756.78125,P09,D11,1,0,1
403,-29.0,0.0,56.0,1644852756.8125,P09,D11,1,0,1
404,-29.0,-1.0,56.0,1644852756.84375,P09,D11,1,0,1
405,-29.0,-1.0,56.0,1644852756.875,P09,D11,1,0,1
406,-29.0,-1.0,56.0,1644852756.90625,P09,D11,1,0,1
407,-29.0,0.0,56.0,1644852756.9375,P09,D11,1,0,1
408,-29.0,0.0,56.0,1644852756.96875,P09,D11,1,0,1
409,-29.0,-1.0,56.0,1644852757.0,P09,D11,1,0,1
410,-29.0,-1.0,56.0,1644852757.03125,P09,D11,1,0,1
411,-29.0,0.0,56.0,1644852757.0625,P09,D11,1,0,1
412,-29.0,0.0,56.0,1644852757.09375,P09,D11,1,0,1
413,-29.0,-1.0,56.0,1644852757.125,P09,D11,1,0,1
414,-29.0,-1.0,56.0,1644852757.15625,P09,D11,1,0,1
415,-29.0,-1.0,56.0,1644852757.1875,P09,D11,1,0,1
416,-29.0,-1.0,56.0,1644852757.21875,P09,D11,1,0,1
417,-29.0,-1.0,56.0,1644852757.25,P09,D11,1,0,1
418,-29.0,0.0,56.0,1644852757.28125,P09,D11,1,0,1
419,-29.0,0.0,56.0,1644852757.3125,P09,D11,1,0,1
420,-29.0,-1.0,56.0,1644852757.34375,P09,D11,1,0,1
421,-29.0,-1.0,56.0,1644852757.375,P09,D11,1,0,1
422,-29.0,-1.0,56.0,1644852757.40625,P09,D11,1,0,1
423,-29.0,-1.0,56.0,1644852757.4375,P09,D11,1,0,1
424,-29.0,-1.0,56.0,1644852757.46875,P09,D11,1,0,1
425,-29.0,-1.0,56.0,1644852757.5,P09,D11,1,0,1
426,-29.0,-1.0,56.0,1644852757.53125,P09,D11,1,0,1
427,-29.0,-1.0,56.0,1644852757.5625,P09,D11,1,0,1
428,-29.0,0.0,56.0,1644852757.59375,P09,D11,1,0,1
429,-29.0,-1.0,56.0,1644852757.625,P09,D11,1,0,1
430,-29.0,-1.0,56.0,1644852757.65625,P09,D11,1,0,1
431,-29.0,-1.0,56.0,1644852757.6875,P09,D11,1,0,1
432,-29.0,0.0,56.0,1644852757.71875,P09,D11,1,0,1
433,-29.0,-1.0,56.0,1644852757.75,P09,D11,1,0,1
434,-29.0,0.0,56.0,1644852757.78125,P09,D11,1,0,1
435,-29.0,-1.0,56.0,1644852757.8125,P09,D11,1,0,1
436,-29.0,-1.0,56.0,1644852757.84375,P09,D11,1,0,1
437,-29.0,-1.0,56.0,1644852757.875,P09,D11,1,0,1
438,-29.0,-1.0,56.0,1644852757.90625,P09,D11,1,0,1
439,-29.0,-1.0,56.0,1644852757.9375,P09,D11,1,0,1
440,-29.0,-1.0,56.0,1644852757.96875,P09,D11,1,0,1
441,-29.0,-1.0,56.0,1644852758.0,P09,D11,1,0,1
442,-29.0,-1.0,56.0,1644852758.03125,P09,D11,1,0,1
443,-29.0,0.0,56.0,1644852758.0625,P09,D11,1,0,1
444,-29.0,0.0,56.0,1644852758.09375,P09,D11,1,0,1
445,-29.0,-1.0,56.0,1644852758.125,P09,D11,1,0,1
446,-29.0,-1.0,56.0,1644852758.15625,P09,D11,1,0,1
447,-29.0,-1.0,56.0,1644852758.1875,P09,D11,1,0,1
448,-29.0,-1.0,56.0,1644852758.21875,P09,D11,1,0,1
449,-29.0,-1.0,56.0,1644852758.25,P09,D11,1,0,1
450,-29.0,0.0,56.0,1644852758.28125,P09,D11,1,0,1
451,-29.0,0.0,56.0,1644852758.3125,P09,D11,1,0,1
452,-29.0,-1.0,56.0,1644852758.34375,P09,D11,1,0,1
453,-29.0,-1.0,56.0,1644852758.375,P09,D11,1,0,1
454,-29.0,-1.0,56.0,1644852758.40625,P09,D11,1,0,1
455,-29.0,-1.0,56.0,1644852758.4375,P09,D11,1,0,1
456,-29.0,0.0,56.0,1644852758.46875,P09,D11,1,0,1
457,-29.0,-1.0,56.0,1644852758.5,P09,D11,1,0,1
458,-29.0,-1.0,56.0,1644852758.53125,P09,D11,1,0,1
459,-29.0,-1.0,56.0,1644852758.5625,P09,D11,1,0,1
460,-29.0,-1.0,56.0,1644852758.59375,P09,D11,1,0,1
461,-29.0,-1.0,56.0,1644852758.625,P09,D11,1,0,1
462,-29.0,-1.0,56.0,1644852758.65625,P09,D11,1,0,1
463,-29.0,-1.0,57.0,1644852758.6875,P09,D11,1,0,1
464,-29.0,-1.0,56.0,1644852758.71875,P09,D11,1,0,1
465,-29.0,-1.0,56.0,1644852758.75,P09,D11,1,0,1
466,-29.0,0.0,56.0,1644852758.78125,P09,D11,1,0,1
467,-29.0,-1.0,56.0,1644852758.8125,P09,D11,1,0,1
468,-29.0,-1.0,56.0,1644852758.84375,P09,D11,1,0,1
469,-29.0,-1.0,56.0,1644852758.875,P09,D11,1,0,1
470,-29.0,-1.0,56.0,1644852758.90625,P09,D11,1,0,1
471,-29.0,-1.0,56.0,1644852758.9375,P09,D11,1,0,1
472,-29.0,-1.0,56.0,1644852758.96875,P09,D11,1,0,1
473,-29.0,-1.0,56.0,1644852759.0,P09,D11,1,0,1
474,-29.0,0.0,56.0,1644852759.03125,P09,D11,1,0,1
475,-29.0,-1.0,56.0,1644852759.0625,P09,D11,1,0,1
476,-29.0,-1.0,56.0,1644852759.09375,P09,D11,1,0,1
477,-29.0,-1.0,56.0,1644852759.125,P09,D11,1,0,1
478,-29.0,0.0,56.0,1644852759.15625,P09,D11,1,0,1
479,-29.0,-1.0,56.0,1644852759.1875,P09,D11,1,0,1
480,-29.0,-1.0,56.0,1644852759.21875,P09,D11,1,0,1
481,-29.0,-1.0,56.0,1644852759.25,P09,D11,1,0,1
482,-29.0,-1.0,56.0,1644852759.28125,P09,D11,1,0,1
483,-29.0,-1.0,56.0,1644852759.3125,P09,D11,1,0,1
484,-29.0,-1.0,56.0,1644852759.34375,P09,D11,1,0,1
485,-29.0,-1.0,56.0,1644852759.375,P09,D11,1,0,1
486,-29.0,-1.0,56.0,1644852759.40625,P09,D11,1,0,1
487,-29.0,-1.0,56.0,1644852759.4375,P09,D11,1,0,1
488,-29.0,-1.0,56.0,1644852759.46875,P09,D11,1,0,1
489,-29.0,-1.0,56.0,1644852759.5,P09,D11,1,0,1
490,-29.0,-1.0,56.0,1644852759.53125,P09,D11,1,0,1
491,-29.0,0.0,56.0,1644852759.5625,P09,D11,1,0,1
492,-29.0,-1.0,56.0,1644852759.59375,P09,D11,1,0,1
493,-29.0,-1.0,56.0,1644852759.625,P09,D11,1,0,1
494,-29.0,-1.0,56.0,1644852759.65625,P09,D11,1,0,1
495,-29.0,0.0,56.0,1644852759.6875,P09,D11,1,0,1
496,-29.0,-1.0,56.0,1644852759.71875,P09,D11,1,0,1
497,-29.0,-1.0,56.0,1644852759.75,P09,D11,1,0,1
498,-29.0,-1.0,56.0,1644852759.78125,P09,D11,1,0,1
499,-29.0,-1.0,56.0,1644852759.8125,P09,D11,1,0,1
500,-29.0,-1.0,56.0,1644852759.84375,P09,D11,1,0,1
501,-29.0,-1.0,56.0,1644852759.875,P09,D11,1,0,1
502,-29.0,-1.0,56.0,1644852759.90625,P09,D11,1,0,1
503,-29.0,0.0,56.0,1644852759.9375,P09,D11,1,0,1
504,-29.0,-1.0,56.0,1644852759.96875,P09,D11,1,0,1
505,-29.0,-1.0,56.0,1644852760.0,P09,D11,1,0,1
506,-29.0,-1.0,56.0,1644852760.03125,P09,D11,1,0,1
507,-29.0,-1.0,56.0,1644852760.0625,P09,D11,1,0,1
508,-29.0,-1.0,56.0,1644852760.09375,P09,D11,1,0,1
509,-29.0,-1.0,56.0,1644852760.125,P09,D11,1,0,1
510,-29.0,-1.0,56.0,1644852760.15625,P09,D11,1,0,1
511,-29.0,-1.0,56.0,1644852760.1875,P09,D11,1,0,1
512,-29.0,-1.0,56.0,1644852760.21875,P09,D11,1,0,1
513,-29.0,-1.0,56.0,1644852760.25,P09,D11,1,0,1
514,-29.0,-1.0,56.0,1644852760.28125,P09,D11,1,0,1
515,-29.0,-1.0,57.0,1644852760.3125,P09,D11,1,0,1
516,-29.0,-1.0,56.0,1644852760.34375,P09,D11,1,0,1
517,-29.0,-1.0,56.0,1644852760.375,P09,D11,1,0,1
518,-29.0,-1.0,56.0,1644852760.40625,P09,D11,1,0,1
519,-29.0,-1.0,56.0,1644852760.4375,P09,D11,1,0,1
520,-29.0,0.0,56.0,1644852760.46875,P09,D11,1,0,1
521,-29.0,-1.0,56.0,1644852760.5,P09,D11,1,0,1
522,-29.0,-1.0,56.0,1644852760.53125,P09,D11,1,0,1
523,-29.0,-1.0,56.0,1644852760.5625,P09,D11,1,0,1
524,-29.0,0.0,56.0,1644852760.59375,P09,D11,1,0,1
525,-29.0,-1.0,56.0,1644852760.625,P09,D11,1,0,1
526,-29.0,-1.0,56.0,1644852760.65625,P09,D11,1,0,1
527,-29.0,-1.0,56.0,1644852760.6875,P09,D11,1,0,1
528,-29.0,0.0,56.0,1644852760.71875,P09,D11,1,0,1
529,-29.0,-1.0,56.0,1644852760.75,P09,D11,1,0,1
530,-28.0,-1.0,56.0,1644852760.78125,P09,D11,1,0,1
531,-29.0,-1.0,56.0,1644852760.8125,P09,D11,1,0,1
532,-29.0,0.0,57.0,1644852760.84375,P09,D11,1,0,1
533,-29.0,-1.0,56.0,1644852760.875,P09,D11,1,0,1
534,-29.0,-1.0,56.0,1644852760.90625,P09,D11,1,0,1
535,-29.0,0.0,57.0,1644852760.9375,P09,D11,1,0,1
536,-29.0,-1.0,57.0,1644852760.96875,P09,D11,1,0,1
537,-29.0,-1.0,57.0,1644852761.0,P09,D11,1,0,1
538,-29.0,-1.0,56.0,1644852761.03125,P09,D11,1,0,1
539,-29.0,0.0,56.0,1644852761.0625,P09,D11,1,0,1
540,-29.0,-1.0,57.0,1644852761.09375,P09,D11,1,0,1
541,-29.0,-1.0,56.0,1644852761.125,P09,D11,1,0,1
542,-29.0,-1.0,56.0,1644852761.15625,P09,D11,1,0,1
543,-29.0,0.0,56.0,1644852761.1875,P09,D11,1,0,1
544,-29.0,-1.0,56.0,1644852761.21875,P09,D11,1,0,1
545,-29.0,-1.0,56.0,1644852761.25,P09,D11,1,0,1
546,-29.0,-1.0,56.0,1644852761.28125,P09,D11,1,0,1
547,-29.0,-1.0,56.0,1644852761.3125,P09,D11,1,0,1
548,-29.0,-1.0,57.0,1644852761.34375,P09,D11,1,0,1
549,-29.0,-1.0,56.0,1644852761.375,P09,D11,1,0,1
550,-29.0,-1.0,56.0,1644852761.40625,P09,D11,1,0,1
551,-29.0,-1.0,56.0,1644852761.4375,P09,D11,1,0,1
552,-29.0,-1.0,56.0,1644852761.46875,P09,D11,1,0,1
553,-29.0,-1.0,56.0,1644852761.5,P09,D11,1,0,1
554,-29.0,-1.0,56.0,1644852761.53125,P09,D11,1,0,1
555,-29.0,-1.0,56.0,1644852761.5625,P09,D11,1,0,1
556,-29.0,-1.0,56.0,1644852761.59375,P09,D11,1,0,1
557,-29.0,-1.0,56.0,1644852761.625,P09,D11,1,0,1
558,-29.0,-1.0,56.0,1644852761.65625,P09,D11,1,0,1
559,-29.0,-1.0,56.0,1644852761.6875,P09,D11,1,0,1
560,-29.0,0.0,56.0,1644852761.71875,P09,D11,1,0,1
561,-29.0,-1.0,56.0,1644852761.75,P09,D11,1,0,1
562,-29.0,0.0,56.0,1644852761.78125,P09,D11,1,0,1
563,-29.0,-1.0,56.0,1644852761.8125,P09,D11,1,0,1
564,-29.0,0.0,56.0,1644852761.84375,P09,D11,1,0,1
565,-29.0,0.0,56.0,1644852761.875,P09,D11,1,0,1
566,-29.0,-1.0,56.0,1644852761.90625,P09,D11,1,0,1
567,-29.0,-1.0,56.0,1644852761.9375,P09,D11,1,0,1
568,-29.0,-1.0,56.0,1644852761.96875,P09,D11,1,0,1
569,-29.0,-1.0,56.0,1644852762.0,P09,D11,1,0,1
570,-29.0,-1.0,57.0,1644852762.03125,P09,D11,1,0,1
571,-29.0,-1.0,56.0,1644852762.0625,P09,D11,1,0,1
572,-29.0,-1.0,56.0,1644852762.09375,P09,D11,1,0,1
573,-29.0,-1.0,56.0,1644852762.125,P09,D11,1,0,1
574,-29.0,-1.0,56.0,1644852762.15625,P09,D11,1,0,1
575,-29.0,-1.0,56.0,1644852762.1875,P09,D11,1,0,1
576,-29.0,-1.0,56.0,1644852762.21875,P09,D11,1,0,1
577,-29.0,0.0,56.0,1644852762.25,P09,D11,1,0,1
578,-29.0,-1.0,56.0,1644852762.28125,P09,D11,1,0,1
579,-29.0,-1.0,56.0,1644852762.3125,P09,D11,1,0,1
580,-29.0,-1.0,56.0,1644852762.34375,P09,D11,1,0,1
581,-29.0,-1.0,56.0,1644852762.375,P09,D11,1,0,1
582,-29.0,-1.0,57.0,1644852762.40625,P09,D11,1,0,1
583,-29.0,-1.0,56.0,1644852762.4375,P09,D11,1,0,1
584,-29.0,0.0,56.0,1644852762.46875,P09,D11,1,0,1
585,-29.0,-1.0,56.0,1644852762.5,P09,D11,1,0,1
586,-29.0,-1.0,56.0,1644852762.53125,P09,D11,1,0,1
587,-29.0,-1.0,56.0,1644852762.5625,P09,D11,1,0,1
588,-29.0,-1.0,56.0,1644852762.59375,P09,D11,1,0,1
589,-29.0,-1.0,56.0,1644852762.625,P09,D11,1,0,1
590,-29.0,-1.0,56.0,1644852762.65625,P09,D11,1,0,1
591,-29.0,0.0,56.0,1644852762.6875,P09,D11,1,0,1
592,-29.0,-1.0,56.0,1644852762.71875,P09,D11,1,0,1
593,-29.0,-1.0,56.0,1644852762.75,P09,D11,1,0,1
594,-29.0,-1.0,56.0,1644852762.78125,P09,D11,1,0,1
595,-29.0,-1.0,56.0,1644852762.8125,P09,D11,1,0,1
596,-29.0,-1.0,56.0,1644852762.84375,P09,D11,1,0,1
597,-29.0,0.0,56.0,1644852762.875,P09,D11,1,0,1
598,-29.0,-1.0,57.0,1644852762.90625,P09,D11,1,0,1
599,-29.0,-1.0,56.0,1644852762.9375,P09,D11,1,0,1
600,-29.0,-1.0,56.0,1644852762.96875,P09,D11,1,0,1
601,-29.0,0.0,56.0,1644852763.0,P09,D11,1,0,1
602,-29.0,-1.0,56.0,1644852763.03125,P09,D11,1,0,1
603,-29.0,-1.0,56.0,1644852763.0625,P09,D11,1,0,1
604,-29.0,0.0,57.0,1644852763.09375,P09,D11,1,0,1
605,-29.0,-1.0,56.0,1644852763.125,P09,D11,1,0,1
606,-29.0,-1.0,56.0,1644852763.15625,P09,D11,1,0,1
607,-29.0,-1.0,56.0,1644852763.1875,P09,D11,1,0,1
608,-29.0,-1.0,57.0,1644852763.21875,P09,D11,1,0,1
609,-29.0,-1.0,56.0,1644852763.25,P09,D11,1,0,1
610,-29.0,-1.0,56.0,1644852763.28125,P09,D11,1,0,1
611,-29.0,0.0,56.0,1644852763.3125,P09,D11,1,0,1
612,-29.0,-1.0,56.0,1644852763.34375,P09,D11,1,0,1
613,-29.0,-1.0,56.0,1644852763.375,P09,D11,1,0,1
614,-29.0,-1.0,56.0,1644852763.40625,P09,D11,1,0,1
615,-29.0,-1.0,56.0,1644852763.4375,P09,D11,1,0,1
616,-29.0,0.0,56.0,1644852763.46875,P09,D11,1,0,1
617,-29.0,-1.0,56.0,1644852763.5,P09,D11,1,0,1
618,-29.0,0.0,56.0,1644852763.53125,P09,D11,1,0,1
619,-29.0,-1.0,56.0,1644852763.5625,P09,D11,1,0,1
620,-29.0,-1.0,56.0,1644852763.59375,P09,D11,1,0,1
621,-29.0,-1.0,56.0,1644852763.625,P09,D11,1,0,1
622,-29.0,0.0,56.0,1644852763.65625,P09,D11,1,0,1
623,-29.0,0.0,56.0,1644852763.6875,P09,D11,1,0,1
624,-29.0,-1.0,56.0,1644852763.71875,P09,D11,1,0,1
625,-29.0,-1.0,56.0,1644852763.75,P09,D11,1,0,1
626,-29.0,0.0,57.0,1644852763.78125,P09,D11,1,0,1
627,-28.0,0.0,56.0,1644852763.8125,P09,D11,1,0,1
628,-29.0,-1.0,56.0,1644852763.84375,P09,D11,1,0,1
629,-29.0,-1.0,56.0,1644852763.875,P09,D11,1,0,1
630,-29.0,0.0,56.0,1644852763.90625,P09,D11,1,0,1
631,-29.0,-1.0,56.0,1644852763.9375,P09,D11,1,0,1
632,-29.0,-1.0,56.0,1644852763.96875,P09,D11,1,0,1
633,-29.0,-1.0,56.0,1644852764.0,P09,D11,1,0,1
634,-29.0,-1.0,56.0,1644852764.03125,P09,D11,1,0,1
635,-29.0,-1.0,56.0,1644852764.0625,P09,D11,1,0,1
636,-29.0,-1.0,56.0,1644852764.09375,P09,D11,1,0,1
637,-29.0,-1.0,56.0,1644852764.125,P09,D11,1,0,1
638,-29.0,-1.0,56.0,1644852764.15625,P09,D11,1,0,1
639,-29.0,-1.0,56.0,1644852764.1875,P09,D11,1,0,1
640,-29.0,-1.0,56.0,1644852764.21875,P09,D11,1,0,1
641,-29.0,-1.0,56.0,1644852764.25,P09,D11,1,0,1
642,-29.0,-1.0,56.0,1644852764.28125,P09,D11,1,0,1
643,-29.0,-1.0,56.0,1644852764.3125,P09,D11,1,0,1
644,-29.0,0.0,57.0,1644852764.34375,P09,D11,1,0,1
645,-29.0,-1.0,56.0,1644852764.375,P09,D11,1,0,1
646,-29.0,-1.0,56.0,1644852764.40625,P09,D11,1,0,1
647,-29.0,0.0,56.0,1644852764.4375,P09,D11,1,0,1
648,-29.0,-1.0,56.0,1644852764.46875,P09,D11,1,0,1
649,-29.0,-1.0,56.0,1644852764.5,P09,D11,1,0,1
650,-29.0,-1.0,56.0,1644852764.53125,P09,D11,1,0,1
651,-29.0,-1.0,56.0,1644852764.5625,P09,D11,1,0,1
652,-29.0,0.0,56.0,1644852764.59375,P09,D11,1,0,1
653,-29.0,0.0,56.0,1644852764.625,P09,D11,1,0,1
654,-29.0,0.0,56.0,1644852764.65625,P09,D11,1,0,1
655,-29.0,-1.0,56.0,1644852764.6875,P09,D11,1,0,1
656,-29.0,0.0,56.0,1644852764.71875,P09,D11,1,0,1
657,-29.0,-1.0,56.0,1644852764.75,P09,D11,1,0,1
658,-29.0,0.0,57.0,1644852764.78125,P09,D11,1,0,1
659,-29.0,-1.0,56.0,1644852764.8125,P09,D11,1,0,1
660,-29.0,-1.0,56.0,1644852764.84375,P09,D11,1,0,1
661,-29.0,-1.0,56.0,1644852764.875,P09,D11,1,0,1
662,-29.0,-1.0,56.0,1644852764.90625,P09,D11,1,0,1
663,-29.0,-1.0,56.0,1644852764.9375,P09,D11,1,0,1
664,-29.0,-1.0,56.0,1644852764.96875,P09,D11,1,0,1
665,-29.0,-1.0,56.0,1644852765.0,P09,D11,1,0,1
666,-29.0,-1.0,56.0,1644852765.03125,P09,D11,1,0,1
667,-29.0,-1.0,56.0,1644852765.0625,P09,D11,1,0,1
668,-29.0,-1.0,57.0,1644852765.09375,P09,D11,1,0,1
669,-29.0,-1.0,56.0,1644852765.125,P09,D11,1,0,1
670,-29.0,-1.0,57.0,1644852765.15625,P09,D11,1,0,1
671,-29.0,-1.0,56.0,1644852765.1875,P09,D11,1,0,1
672,-29.0,-1.0,56.0,1644852765.21875,P09,D11,1,0,1
673,-29.0,-1.0,56.0,1644852765.25,P09,D11,1,0,1
674,-29.0,0.0,56.0,1644852765.28125,P09,D11,1,0,1
675,-29.0,-1.0,56.0,1644852765.3125,P09,D11,1,0,1
676,-29.0,-1.0,56.0,1644852765.34375,P09,D11,1,0,1
677,-29.0,-1.0,56.0,1644852765.375,P09,D11,1,0,1
678,-29.0,-1.0,56.0,1644852765.40625,P09,D11,1,0,1
679,-29.0,-1.0,56.0,1644852765.4375,P09,D11,1,0,1
680,-29.0,-1.0,56.0,1644852765.46875,P09,D11,1,0,1
681,-29.0,-1.0,56.0,1644852765.5,P09,D11,1,0,1
682,-29.0,-1.0,57.0,1644852765.53125,P09,D11,1,0,1
683,-29.0,-1.0,56.0,1644852765.5625,P09,D11,1,0,1
684,-29.0,-1.0,56.0,1644852765.59375,P09,D11,1,0,1
685,-29.0,0.0,56.0,1644852765.625,P09,D11,1,0,1
686,-29.0,0.0,56.0,1644852765.65625,P09,D11,1,0,1
687,-29.0,-1.0,56.0,1644852765.6875,P09,D11,1,0,1
688,-29.0,-1.0,56.0,1644852765.71875,P09,D11,1,0,1
689,-29.0,-1.0,56.0,1644852765.75,P09,D11,1,0,1
690,-29.0,-1.0,56.0,1644852765.78125,P09,D11,1,0,1
691,-29.0,-1.0,56.0,1644852765.8125,P09,D11,1,0,1
692,-29.0,-1.0,56.0,1644852765.84375,P09,D11,1,0,1
693,-29.0,-1.0,56.0,1644852765.875,P09,D11,1,0,1
694,-29.0,-1.0,56.0,1644852765.90625,P09,D11,1,0,1
695,-29.0,-1.0,57.0,1644852765.9375,P09,D11,1,0,1
696,-29.0,-1.0,56.0,1644852765.96875,P09,D11,1,0,1
697,-29.0,-1.0,56.0,1644852766.0,P09,D11,1,0,1
698,-29.0,-1.0,56.0,1644852766.03125,P09,D11,1,0,1
699,-29.0,0.0,56.0,1644852766.0625,P09,D11,1,0,1
700,-29.0,-1.0,56.0,1644852766.09375,P09,D11,1,0,1
701,-29.0,-1.0,56.0,1644852766.125,P09,D11,1,0,1
702,-29.0,-1.0,56.0,1644852766.15625,P09,D11,1,0,1
703,-29.0,-1.0,56.0,1644852766.1875,P09,D11,1,0,1
704,-29.0,-1.0,56.0,1644852766.21875,P09,D11,1,0,1
705,-29.0,-1.0,56.0,1644852766.25,P09,D11,1,0,1
706,-29.0,0.0,56.0,1644852766.28125,P09,D11,1,0,1
707,-29.0,-1.0,56.0,1644852766.3125,P09,D11,1,0,1
708,-29.0,-1.0,56.0,1644852766.34375,P09,D11,1,0,1
709,-29.0,-1.0,57.0,1644852766.375,P09,D11,1,0,1
710,-29.0,-1.0,56.0,1644852766.40625,P09,D11,1,0,1
711,-29.0,-1.0,56.0,1644852766.4375,P09,D11,1,0,1
712,-29.0,-1.0,56.0,1644852766.46875,P09,D11,1,0,1
713,-29.0,-1.0,56.0,1644852766.5,P09,D11,1,0,1
714,-29.0,-1.0,56.0,1644852766.53125,P09,D11,1,0,1
715,-29.0,-1.0,56.0,1644852766.5625,P09,D11,1,0,1
716,-29.0,-1.0,56.0,1644852766.59375,P09,D11,1,0,1
717,-29.0,-1.0,56.0,1644852766.625,P09,D11,1,0,1
718,-29.0,-1.0,56.0,1644852766.65625,P09,D11,1,0,1
719,-29.0,-1.0,56.0,1644852766.6875,P09,D11,1,0,1
720,-29.0,0.0,56.0,1644852766.71875,P09,D11,1,0,1
721,-29.0,-1.0,56.0,1644852766.75,P09,D11,1,0,1
722,-29.0,0.0,56.0,1644852766.78125,P09,D11,1,0,1
723,-29.0,-1.0,56.0,1644852766.8125,P09,D11,1,0,1
724,-29.0,-1.0,56.0,1644852766.84375,P09,D11,1,0,1
725,-29.0,0.0,56.0,1644852766.875,P09,D11,1,0,1
726,-29.0,-1.0,56.0,1644852766.90625,P09,D11,1,0,1
727,-29.0,-1.0,56.0,1644852766.9375,P09,D11,1,0,1
728,-29.0,-1.0,56.0,1644852766.96875,P09,D11,1,0,1
729,-29.0,0.0,56.0,1644852767.0,P09,D11,1,0,1
730,-29.0,-1.0,56.0,1644852767.03125,P09,D11,1,0,1
731,-29.0,-1.0,57.0,1644852767.0625,P09,D11,1,0,1
732,-29.0,-1.0,56.0,1644852767.09375,P09,D11,1,0,1
733,-29.0,-1.0,56.0,1644852767.125,P09,D11,1,0,1
734,-29.0,-1.0,56.0,1644852767.15625,P09,D11,1,0,1
735,-29.0,-1.0,56.0,1644852767.1875,P09,D11,1,0,1
736,-29.0,-1.0,56.0,1644852767.21875,P09,D11,1,0,1
737,-29.0,-1.0,56.0,1644852767.25,P09,D11,1,0,1
738,-29.0,-1.0,56.0,1644852767.28125,P09,D11,1,0,1
739,-29.0,-1.0,56.0,1644852767.3125,P09,D11,1,0,1
740,-29.0,-1.0,56.0,1644852767.34375,P09,D11,1,0,1
741,-29.0,-1.0,56.0,1644852767.375,P09,D11,1,0,1
742,-29.0,-1.0,56.0,1644852767.40625,P09,D11,1,0,1
743,-29.0,-1.0,56.0,1644852767.4375,P09,D11,1,0,1
744,-29.0,-1.0,56.0,1644852767.46875,P09,D11,1,0,1
745,-29.0,-1.0,56.0,1644852767.5,P09,D11,1,0,1
746,-29.0,-1.0,56.0,1644852767.53125,P09,D11,1,0,1
747,-29.0,0.0,56.0,1644852767.5625,P09,D11,1,0,1
748,-29.0,-1.0,56.0,1644852767.59375,P09,D11,1,0,1
749,-29.0,-1.0,56.0,1644852767.625,P09,D11,1,0,1
750,-29.0,-1.0,56.0,1644852767.65625,P09,D11,1,0,1
751,-29.0,-1.0,56.0,1644852767.6875,P09,D11,1,0,1
752,-29.0,0.0,56.0,1644852767.71875,P09,D11,1,0,1
753,-29.0,-1.0,56.0,1644852767.75,P09,D11,1,0,1
754,-29.0,-1.0,56.0,1644852767.78125,P09,D11,1,0,1
755,-29.0,-1.0,56.0,1644852767.8125,P09,D11,1,0,1
756,-29.0,0.0,56.0,1644852767.84375,P09,D11,1,0,1
757,-29.0,-1.0,56.0,1644852767.875,P09,D11,1,0,1
758,-29.0,-1.0,56.0,1644852767.90625,P09,D11,1,0,1
759,-29.0,-1.0,56.0,1644852767.9375,P09,D11,1,0,1
760,-29.0,-1.0,56.0,1644852767.96875,P09,D11,1,0,1
761,-29.0,-1.0,56.0,1644852768.0,P09,D11,1,0,1
762,-29.0,0.0,56.0,1644852768.03125,P09,D11,1,0,1
763,-29.0,-1.0,56.0,1644852768.0625,P09,D11,1,0,1
764,-29.0,-1.0,56.0,1644852768.09375,P09,D11,1,0,1
765,-29.0,-1.0,56.0,1644852768.125,P09,D11,1,0,1
766,-29.0,0.0,56.0,1644852768.15625,P09,D11,1,0,1
767,-29.0,-1.0,56.0,1644852768.1875,P09,D11,1,0,1
768,-29.0,-1.0,56.0,1644852768.21875,P09,D11,1,0,1
769,-29.0,-1.0,56.0,1644852768.25,P09,D11,1,0,1
770,-29.0,0.0,56.0,1644852768.28125,P09,D11,1,0,1
771,-29.0,-1.0,56.0,1644852768.3125,P09,D11,1,0,1
772,-29.0,-1.0,56.0,1644852768.34375,P09,D11,1,0,1
773,-29.0,-1.0,56.0,1644852768.375,P09,D11,1,0,1
774,-29.0,-1.0,56.0,1644852768.40625,P09,D11,1,0,1
775,-29.0,-1.0,56.0,1644852768.4375,P09,D11,1,0,1
776,-29.0,-1.0,56.0,1644852768.46875,P09,D11,1,0,1
777,-29.0,-1.0,56.0,1644852768.5,P09,D11,1,0,1
778,-29.0,0.0,56.0,1644852768.53125,P09,D11,1,0,1
779,-29.0,0.0,56.0,1644852768.5625,P09,D11,1,0,1
780,-29.0,-1.0,56.0,1644852768.59375,P09,D11,1,0,1
781,-29.0,-1.0,56.0,1644852768.625,P09,D11,1,0,1
782,-29.0,0.0,56.0,1644852768.65625,P09,D11,1,0,1
783,-29.0,-1.0,56.0,1644852768.6875,P09,D11,1,0,1
784,-29.0,-1.0,56.0,1644852768.71875,P09,D11,1,0,1
785,-29.0,-1.0,56.0,1644852768.75,P09,D11,1,0,1
786,-29.0,-1.0,56.0,1644852768.78125,P09,D11,1,0,1
787,-29.0,-1.0,56.0,1644852768.8125,P09,D11,1,0,1
788,-29.0,-1.0,56.0,1644852768.84375,P09,D11,1,0,1
789,-29.0,0.0,56.0,1644852768.875,P09,D11,1,0,1
790,-29.0,-1.0,56.0,1644852768.90625,P09,D11,1,0,1
791,-29.0,-1.0,56.0,1644852768.9375,P09,D11,1,0,1
792,-29.0,0.0,56.0,1644852768.96875,P09,D11,1,0,1
793,-29.0,-1.0,56.0,1644852769.0,P09,D11,1,0,1
794,-29.0,-1.0,56.0,1644852769.03125,P09,D11,1,0,1
795,-29.0,-1.0,56.0,1644852769.0625,P09,D11,1,0,1
796,-29.0,-1.0,56.0,1644852769.09375,P09,D11,1,0,1
797,-29.0,-1.0,56.0,1644852769.125,P09,D11,1,0,1
798,-29.0,-1.0,56.0,1644852769.15625,P09,D11,1,0,1
799,-29.0,-1.0,56.0,1644852769.1875,P09,D11,1,0,1
800,-29.0,-1.0,56.0,1644852769.21875,P09,D11,1,0,1
801,-29.0,-1.0,56.0,1644852769.25,P09,D11,1,0,1
802,-29.0,-1.0,56.0,1644852769.28125,P09,D11,1,0,1
803,-29.0,-1.0,56.0,1644852769.3125,P09,D11,1,0,1
804,-29.0,-1.0,56.0,1644852769.34375,P09,D11,1,0,1
805,-29.0,-1.0,56.0,1644852769.375,P09,D11,1,0,1
806,-29.0,-1.0,56.0,1644852769.40625,P09,D11,1,0,1
807,-29.0,-1.0,56.0,1644852769.4375,P09,D11,1,0,1
808,-29.0,-1.0,56.0,1644852769.46875,P09,D11,1,0,1
809,-29.0,-1.0,56.0,1644852769.5,P09,D11,1,0,1
810,-29.0,-1.0,56.0,1644852769.53125,P09,D11,1,0,1
811,-29.0,-1.0,56.0,1644852769.5625,P09,D11,1,0,1
812,-29.0,-1.0,56.0,1644852769.59375,P09,D11,1,0,1
813,-29.0,-1.0,56.0,1644852769.625,P09,D11,1,0,1
814,-29.0,-1.0,57.0,1644852769.65625,P09,D11,1,0,1
815,-29.0,0.0,56.0,1644852769.6875,P09,D11,1,0,1
816,-29.0,-1.0,56.0,1644852769.71875,P09,D11,1,0,1
817,-29.0,-1.0,56.0,1644852769.75,P09,D11,1,0,1
818,-29.0,-1.0,56.0,1644852769.78125,P09,D11,1,0,1
819,-29.0,0.0,57.0,1644852769.8125,P09,D11,1,0,1
820,-29.0,0.0,56.0,1644852769.84375,P09,D11,1,0,1
821,-29.0,-1.0,56.0,1644852769.875,P09,D11,1,0,1
822,-29.0,-1.0,56.0,1644852769.90625,P09,D11,1,0,1
823,-29.0,0.0,56.0,1644852769.9375,P09,D11,1,0,1
824,-29.0,0.0,56.0,1644852769.96875,P09,D11,1,0,1
825,-29.0,-1.0,56.0,1644852770.0,P09,D11,1,0,1
826,-29.0,-1.0,56.0,1644852770.03125,P09,D11,1,0,1
827,-29.0,-1.0,57.0,1644852770.0625,P09,D11,1,0,1
828,-29.0,-1.0,56.0,1644852770.09375,P09,D11,1,0,1
829,-29.0,-1.0,56.0,1644852770.125,P09,D11,1,0,1
830,-29.0,-1.0,56.0,1644852770.15625,P09,D11,1,0,1
831,-29.0,-1.0,56.0,1644852770.1875,P09,D11,1,0,1
832,-29.0,-1.0,56.0,1644852770.21875,P09,D11,1,0,1
833,-29.0,0.0,56.0,1644852770.25,P09,D11,1,0,1
834,-29.0,-1.0,56.0,1644852770.28125,P09,D11,1,0,1
835,-29.0,0.0,56.0,1644852770.3125,P09,D11,1,0,1
836,-29.0,-1.0,57.0,1644852770.34375,P09,D11,1,0,1
837,-29.0,-1.0,56.0,1644852770.375,P09,D11,1,0,1
838,-29.0,-1.0,56.0,1644852770.40625,P09,D11,1,0,1
839,-29.0,-1.0,56.0,1644852770.4375,P09,D11,1,0,1
840,-29.0,-1.0,56.0,1644852770.46875,P09,D11,1,0,1
841,-29.0,0.0,56.0,1644852770.5,P09,D11,1,0,1
842,-29.0,-1.0,56.0,1644852770.53125,P09,D11,1,0,1
843,-29.0,-1.0,56.0,1644852770.5625,P09,D11,1,0,1
844,-29.0,-1.0,56.0,1644852770.59375,P09,D11,1,0,1
845,-29.0,0.0,56.0,1644852770.625,P09,D11,1,0,1
846,-28.0,-1.0,56.0,1644852770.65625,P09,D11,1,0,1
847,-29.0,-1.0,57.0,1644852770.6875,P09,D11,1,0,1
848,-29.0,-1.0,56.0,1644852770.71875,P09,D11,1,0,1
849,-29.0,-1.0,56.0,1644852770.75,P09,D11,1,0,1
850,-29.0,-1.0,56.0,1644852770.78125,P09,D11,1,0,1
851,-29.0,-1.0,57.0,1644852770.8125,P09,D11,1,0,1
852,-29.0,-1.0,56.0,1644852770.84375,P09,D11,1,0,1
853,-29.0,-1.0,56.0,1644852770.875,P09,D11,1,0,1
854,-29.0,-1.0,56.0,1644852770.90625,P09,D11,1,0,1
855,-29.0,-1.0,56.0,1644852770.9375,P09,D11,1,0,1
856,-29.0,0.0,56.0,1644852770.96875,P09,D11,1,0,1
857,-29.0,-1.0,56.0,1644852771.0,P09,D11,1,0,1
858,-29.0,-1.0,56.0,1644852771.03125,P09,D11,1,0,1
859,-29.0,-1.0,56.0,1644852771.0625,P09,D11,1,0,1
860,-29.0,-1.0,56.0,1644852771.09375,P09,D11,1,0,1
861,-29.0,-1.0,57.0,1644852771.125,P09,D11,1,0,1
862,-29.0,0.0,56.0,1644852771.15625,P09,D11,1,0,1
863,-29.0,-1.0,56.0,1644852771.1875,P09,D11,1,0,1
864,-29.0,-1.0,56.0,1644852771.21875,P09,D11,1,0,1
865,-29.0,0.0,57.0,1644852771.25,P09,D11,1,0,1
866,-29.0,-1.0,56.0,1644852771.28125,P09,D11,1,0,1
867,-29.0,-1.0,56.0,1644852771.3125,P09,D11,1,0,1
868,-29.0,-1.0,56.0,1644852771.34375,P09,D11,1,0,1
869,-29.0,-1.0,56.0,1644852771.375,P09,D11,1,0,1
870,-29.0,-1.0,56.0,1644852771.40625,P09,D11,1,0,1
871,-29.0,-1.0,56.0,1644852771.4375,P09,D11,1,0,1
872,-29.0,-1.0,56.0,1644852771.46875,P09,D11,1,0,1
873,-29.0,0.0,56.0,1644852771.5,P09,D11,1,0,1
874,-29.0,-1.0,56.0,1644852771.53125,P09,D11,1,0,1
875,-29.0,0.0,57.0,1644852771.5625,P09,D11,1,0,1
876,-29.0,-1.0,56.0,1644852771.59375,P09,D11,1,0,1
877,-29.0,0.0,56.0,1644852771.625,P09,D11,1,0,1
878,-29.0,0.0,56.0,1644852771.65625,P09,D11,1,0,1
879,-29.0,-1.0,56.0,1644852771.6875,P09,D11,1,0,1
880,-29.0,-1.0,56.0,1644852771.71875,P09,D11,1,0,1
881,-29.0,-1.0,56.0,1644852771.75,P09,D11,1,0,1
882,-29.0,-1.0,57.0,1644852771.78125,P09,D11,1,0,1
883,-29.0,-1.0,56.0,1644852771.8125,P09,D11,1,0,1
884,-29.0,-1.0,56.0,1644852771.84375,P09,D11,1,0,1
885,-29.0,-1.0,56.0,1644852771.875,P09,D11,1,0,1
886,-29.0,-1.0,56.0,1644852771.90625,P09,D11,1,0,1
887,-29.0,-1.0,56.0,1644852771.9375,P09,D11,1,0,1
888,-29.0,0.0,56.0,1644852771.96875,P09,D11,1,0,1
889,-29.0,-1.0,56.0,1644852772.0,P09,D11,1,0,1
890,-29.0,-1.0,56.0,1644852772.03125,P09,D11,1,0,1
891,-29.0,0.0,56.0,1644852772.0625,P09,D11,1,0,1
892,-29.0,0.0,56.0,1644852772.09375,P09,D11,1,0,1
893,-29.0,-1.0,56.0,1644852772.125,P09,D11,1,0,1
894,-29.0,-1.0,56.0,1644852772.15625,P09,D11,1,0,1
895,-29.0,-1.0,56.0,1644852772.1875,P09,D11,1,0,1
896,-29.0,-1.0,56.0,1644852772.21875,P09,D11,1,0,1
897,-29.0,0.0,56.0,1644852772.25,P09,D11,1,0,1
898,-29.0,-1.0,56.0,1644852772.28125,P09,D11,1,0,1
899,-29.0,-1.0,56.0,1644852772.3125,P09,D11,1,0,1
900,-29.0,-1.0,56.0,1644852772.34375,P09,D11,1,0,1
901,-29.0,-1.0,57.0,1644852772.375,P09,D11,1,0,1
902,-29.0,0.0,57.0,1644852772.40625,P09,D11,1,0,1
903,-29.0,-1.0,57.0,1644852772.4375,P09,D11,1,0,1
904,-29.0,-1.0,56.0,1644852772.46875,P09,D11,1,0,1
905,-29.0,-1.0,56.0,1644852772.5,P09,D11,1,0,1
906,-29.0,-1.0,56.0,1644852772.53125,P09,D11,1,0,1
907,-29.0,-1.0,56.0,1644852772.5625,P09,D11,1,0,1
908,-29.0,-1.0,57.0,1644852772.59375,P09,D11,1,0,1
909,-29.0,0.0,56.0,1644852772.625,P09,D11,1,0,1
910,-29.0,-1.0,56.0,1644852772.65625,P09,D11,1,0,1
911,-29.0,-1.0,56.0,1644852772.6875,P09,D11,1,0,1
912,-29.0,-1.0,56.0,1644852772.71875,P09,D11,1,0,1
913,-29.0,0.0,56.0,1644852772.75,P09,D11,1,0,1
914,-29.0,-1.0,56.0,1644852772.78125,P09,D11,1,0,1
915,-29.0,-1.0,56.0,1644852772.8125,P09,D11,1,0,1
916,-29.0,-1.0,56.0,1644852772.84375,P09,D11,1,0,1
917,-29.0,-1.0,56.0,1644852772.875,P09,D11,1,0,1
918,-29.0,0.0,56.0,1644852772.90625,P09,D11,1,0,1
919,-29.0,-1.0,56.0,1644852772.9375,P09,D11,1,0,1
920,-29.0,-1.0,57.0,1644852772.96875,P09,D11,1,0,1
921,-29.0,-1.0,56.0,1644852773.0,P09,D11,1,0,1
922,-29.0,-1.0,56.0,1644852773.03125,P09,D11,1,0,1
923,-29.0,0.0,56.0,1644852773.0625,P09,D11,1,0,1
924,-28.0,0.0,56.0,1644852773.09375,P09,D11,1,0,1
925,-29.0,-1.0,56.0,1644852773.125,P09,D11,1,0,1
926,-29.0,-1.0,56.0,1644852773.15625,P09,D11,1,0,1
927,-29.0,-1.0,56.0,1644852773.1875,P09,D11,1,0,1
928,-28.0,-1.0,57.0,1644852773.21875,P09,D11,1,0,1
929,-29.0,0.0,56.0,1644852773.25,P09,D11,1,0,1
930,-29.0,0.0,56.0,1644852773.28125,P09,D11,1,0,1
931,-29.0,-1.0,56.0,1644852773.3125,P09,D11,1,0,1
932,-29.0,-1.0,56.0,1644852773.34375,P09,D11,1,0,1
933,-29.0,-1.0,56.0,1644852773.375,P09,D11,1,0,1
934,-29.0,-1.0,56.0,1644852773.40625,P09,D11,1,0,1
935,-29.0,0.0,56.0,1644852773.4375,P09,D11,1,0,1
936,-29.0,-1.0,56.0,1644852773.46875,P09,D11,1,0,1
937,-29.0,-1.0,56.0,1644852773.5,P09,D11,1,0,1
938,-29.0,-1.0,56.0,1644852773.53125,P09,D11,1,0,1
939,-29.0,0.0,56.0,1644852773.5625,P09,D11,1,0,1
940,-29.0,0.0,56.0,1644852773.59375,P09,D11,1,0,1
941,-29.0,-1.0,56.0,1644852773.625,P09,D11,1,0,1
942,-29.0,-1.0,56.0,1644852773.65625,P09,D11,1,0,1
943,-29.0,-1.0,56.0,1644852773.6875,P09,D11,1,0,1
944,-28.0,-1.0,56.0,1644852773.71875,P09,D11,1,0,1
945,-29.0,-1.0,56.0,1644852773.75,P09,D11,1,0,1
946,-29.0,-1.0,56.0,1644852773.78125,P09,D11,1,0,1
947,-29.0,0.0,56.0,1644852773.8125,P09,D11,1,0,1
948,-29.0,0.0,56.0,1644852773.84375,P09,D11,1,0,1
949,-29.0,-1.0,56.0,1644852773.875,P09,D11,1,0,1
950,-29.0,-1.0,56.0,1644852773.90625,P09,D11,1,0,1
951,-29.0,0.0,56.0,1644852773.9375,P09,D11,1,0,1
952,-29.0,-1.0,56.0,1644852773.96875,P09,D11,1,0,1
953,-29.0,-1.0,56.0,1644852774.0,P09,D11,1,0,1
954,-29.0,0.0,56.0,1644852774.03125,P09,D11,1,0,1
955,-29.0,0.0,56.0,1644852774.0625,P09,D11,1,0,1
956,-29.0,-1.0,56.0,1644852774.09375,P09,D11,1,0,1
957,-29.0,-1.0,56.0,1644852774.125,P09,D11,1,0,1
958,-29.0,-1.0,56.0,1644852774.15625,P09,D11,1,0,1
959,-29.0,-1.0,56.0,1644852774.1875,P09,D11,1,0,1
960,-29.0,-1.0,56.0,1644852774.21875,P09,D11,1,0,1
961,-29.0,-1.0,56.0,1644852774.25,P09,D11,1,0,1
962,-29.0,-1.0,56.0,1644852774.28125,P09,D11,1,0,1
963,-29.0,-1.0,57.0,1644852774.3125,P09,D11,1,0,1
964,-29.0,-1.0,56.0,1644852774.34375,P09,D11,1,0,1
965,-29.0,-1.0,56.0,1644852774.375,P09,D11,1,0,1
966,-29.0,0.0,56.0,1644852774.40625,P09,D11,1,0,1
967,-29.0,0.0,56.0,1644852774.4375,P09,D11,1,0,1
968,-29.0,-1.0,56.0,1644852774.46875,P09,D11,1,0,1
969,-29.0,0.0,56.0,1644852774.5,P09,D11,1,0,1
970,-29.0,-1.0,56.0,1644852774.53125,P09,D11,1,0,1
971,-29.0,-1.0,56.0,1644852774.5625,P09,D11,1,0,1
972,-29.0,-1.0,56.0,1644852774.59375,P09,D11,1,0,1
973,-29.0,0.0,56.0,1644852774.625,P09,D11,1,0,1
974,-29.0,-1.0,56.0,1644852774.65625,P09,D11,1,0,1
975,-29.0,-1.0,56.0,1644852774.6875,P09,D11,1,0,1
976,-29.0,-1.0,56.0,1644852774.71875,P09,D11,1,0,1
977,-29.0,-1.0,56.0,1644852774.75,P09,D11,1,0,1
978,-29.0,-1.0,56.0,1644852774.78125,P09,D11,1,0,1
979,-29.0,-1.0,56.0,1644852774.8125,P09,D11,1,0,1
980,-29.0,-1.0,57.0,1644852774.84375,P09,D11,1,0,1
981,-29.0,-1.0,56.0,1644852774.875,P09,D11,1,0,1
982,-29.0,-1.0,56.0,1644852774.90625,P09,D11,1,0,1
983,-29.0,-1.0,57.0,1644852774.9375,P09,D11,1,0,1
984,-29.0,0.0,56.0,1644852774.96875,P09,D11,1,0,1
985,-29.0,-1.0,56.0,1644852775.0,P09,D11,1,0,1
986,-29.0,-1.0,56.0,1644852775.03125,P09,D11,1,0,1
987,-29.0,-1.0,56.0,1644852775.0625,P09,D11,1,0,1
988,-29.0,-1.0,56.0,1644852775.09375,P09,D11,1,0,1
989,-29.0,0.0,57.0,1644852775.125,P09,D11,1,0,1
990,-29.0,0.0,56.0,1644852775.15625,P09,D11,1,0,1
991,-29.0,-1.0,56.0,1644852775.1875,P09,D11,1,0,1
992,-29.0,-1.0,56.0,1644852775.21875,P09,D11,1,0,1
993,-29.0,0.0,57.0,1644852775.25,P09,D11,1,0,1
994,-29.0,-1.0,56.0,1644852775.28125,P09,D11,1,0,1
995,-29.0,0.0,56.0,1644852775.3125,P09,D11,1,0,1
996,-29.0,-1.0,56.0,1644852775.34375,P09,D11,1,0,1
997,-29.0,-1.0,56.0,1644852775.375,P09,D11,1,0,1
998,-29.0,-1.0,56.0,1644852775.40625,P09,D11,1,0,1
999,-29.0,-1.0,56.0,1644852775.4375,P09,D11,1,0,1
1000,-29.0,-1.0,56.0,1644852775.46875,P09,D11,1,0,1
1001,-29.0,0.0,56.0,1644852775.5,P09,D11,1,0,1
1002,-29.0,-1.0,56.0,1644852775.53125,P09,D11,1,0,1
1003,-29.0,-1.0,56.0,1644852775.5625,P09,D11,1,0,1
1004,-29.0,0.0,56.0,1644852775.59375,P09,D11,1,0,1
1005,-29.0,-1.0,56.0,1644852775.625,P09,D11,1,0,1
1006,-29.0,-1.0,56.0,1644852775.65625,P09,D11,1,0,1
1007,-29.0,-1.0,56.0,1644852775.6875,P09,D11,1,0,1
1008,-29.0,-1.0,56.0,1644852775.71875,P09,D11,1,0,1
1009,-29.0,0.0,56.0,1644852775.75,P09,D11,1,0,1
1010,-29.0,-1.0,56.0,1644852775.78125,P09,D11,1,0,1
1011,-29.0,-1.0,56.0,1644852775.8125,P09,D11,1,0,1
1012,-29.0,-1.0,56.0,1644852775.84375,P09,D11,1,0,1
1013,-29.0,0.0,56.0,1644852775.875,P09,D11,1,0,1
1014,-29.0,-1.0,56.0,1644852775.90625,P09,D11,1,0,1
1015,-28.0,-1.0,56.0,1644852775.9375,P09,D11,1,0,1
1016,-29.0,-1.0,56.0,1644852775.96875,P09,D11,1,0,1
1017,-29.0,-1.0,56.0,1644852776.0,P09,D11,1,0,1
1018,-29.0,-1.0,56.0,1644852776.03125,P09,D11,1,0,1
1019,-29.0,-1.0,56.0,1644852776.0625,P09,D11,1,0,1
1020,-29.0,0.0,56.0,1644852776.09375,P09,D11,1,0,1
1021,-29.0,-1.0,56.0,1644852776.125,P09,D11,1,0,1
1022,-29.0,-1.0,56.0,1644852776.15625,P09,D11,1,0,1
1023,-29.0,-1.0,57.0,1644852776.1875,P09,D11,1,0,1
1024,-29.0,-1.0,56.0,1644852776.21875,P09,D11,1,0,1
1025,-29.0,-1.0,56.0,1644852776.25,P09,D11,1,0,1
1026,-29.0,0.0,56.0,1644852776.28125,P09,D11,1,0,1
1027,-29.0,0.0,56.0,1644852776.3125,P09,D11,1,0,1
1028,-29.0,0.0,56.0,1644852776.34375,P09,D11,1,0,1
1029,-29.0,-1.0,56.0,1644852776.375,P09,D11,1,0,1
1030,-29.0,0.0,56.0,1644852776.40625,P09,D11,1,0,1
1031,-29.0,-1.0,56.0,1644852776.4375,P09,D11,1,0,1
1032,-29.0,-1.0,57.0,1644852776.46875,P09,D11,1,0,1
1033,-29.0,-1.0,56.0,1644852776.5,P09,D11,1,0,1
1034,-29.0,-1.0,56.0,1644852776.53125,P09,D11,1,0,1
1035,-29.0,-1.0,56.0,1644852776.5625,P09,D11,1,0,1
1036,-29.0,-1.0,56.0,1644852776.59375,P09,D11,1,0,1
1037,-29.0,-1.0,56.0,1644852776.625,P09,D11,1,0,1
1038,-29.0,-1.0,56.0,1644852776.65625,P09,D11,1,0,1
1039,-29.0,-1.0,57.0,1644852776.6875,P09,D11,1,0,1
1040,-29.0,0.0,56.0,1644852776.71875,P09,D11,1,0,1
1041,-29.0,-1.0,56.0,1644852776.75,P09,D11,1,0,1
1042,-29.0,0.0,56.0,1644852776.78125,P09,D11,1,0,1
1043,-29.0,-1.0,56.0,1644852776.8125,P09,D11,1,0,1
1044,-29.0,-1.0,56.0,1644852776.84375,P09,D11,1,0,1
1045,-29.0,0.0,56.0,1644852776.875,P09,D11,1,0,1
1046,-29.0,0.0,56.0,1644852776.90625,P09,D11,1,0,1
1047,-29.0,-1.0,56.0,1644852776.9375,P09,D11,1,0,1
1048,-29.0,-1.0,56.0,1644852776.96875,P09,D11,1,0,1
1049,-29.0,-1.0,56.0,1644852777.0,P09,D11,1,0,1
1050,-29.0,-1.0,56.0,1644852777.03125,P09,D11,1,0,1
1051,-29.0,-1.0,56.0,1644852777.0625,P09,D11,1,0,1
1052,-29.0,-1.0,56.0,1644852777.09375,P09,D11,1,0,1
1053,-29.0,-1.0,56.0,1644852777.125,P09,D11,1,0,1
1054,-29.0,0.0,56.0,1644852777.15625,P09,D11,1,0,1
1055,-29.0,-1.0,57.0,1644852777.1875,P09,D11,1,0,1
1056,-29.0,0.0,56.0,1644852777.21875,P09,D11,1,0,1
1057,-29.0,-1.0,56.0,1644852777.25,P09,D11,1,0,1
1058,-28.0,0.0,56.0,1644852777.28125,P09,D11,1,0,1
1059,-29.0,-1.0,56.0,1644852777.3125,P09,D11,1,0,1
1060,-29.0,-1.0,56.0,1644852777.34375,P09,D11,1,0,1
1061,-29.0,-1.0,56.0,1644852777.375,P09,D11,1,0,1
1062,-29.0,-1.0,56.0,1644852777.40625,P09,D11,1,0,1
1063,-29.0,-1.0,56.0,1644852777.4375,P09,D11,1,0,1
1064,-29.0,-1.0,56.0,1644852777.46875,P09,D11,1,0,1
1065,-29.0,-1.0,56.0,1644852777.5,P09,D11,1,0,1
1066,-29.0,-1.0,56.0,1644852777.53125,P09,D11,1,0,1
1067,-29.0,-1.0,56.0,1644852777.5625,P09,D11,1,0,1
1068,-29.0,-1.0,56.0,1644852777.59375,P09,D11,1,0,1
1069,-29.0,-1.0,56.0,1644852777.625,P09,D11,1,0,1
1070,-29.0,-1.0,56.0,1644852777.65625,P09,D11,1,0,1
1071,-29.0,-1.0,56.0,1644852777.6875,P09,D11,1,0,1
1072,-29.0,-1.0,56.0,1644852777.71875,P09,D11,1,0,1
1073,-29.0,0.0,56.0,1644852777.75,P09,D11,1,0,1
1074,-29.0,-1.0,56.0,1644852777.78125,P09,D11,1,0,1
1075,-29.0,-1.0,56.0,1644852777.8125,P09,D11,1,0,1
1076,-29.0,-1.0,56.0,1644852777.84375,P09,D11,1,0,1
1077,-28.0,0.0,56.0,1644852777.875,P09,D11,1,0,1
1078,-29.0,-1.0,57.0,1644852777.90625,P09,D11,1,0,1
1079,-29.0,-1.0,56.0,1644852777.9375,P09,D11,1,0,1
1080,-29.0,-1.0,56.0,1644852777.96875,P09,D11,1,0,1
1081,-29.0,-1.0,56.0,1644852778.0,P09,D11,1,0,1
1082,-29.0,-1.0,56.0,1644852778.03125,P09,D11,1,0,1
1083,-29.0,-1.0,56.0,1644852778.0625,P09,D11,1,0,1
1084,-29.0,-1.0,56.0,1644852778.09375,P09,D11,1,0,1
1085,-29.0,0.0,57.0,1644852778.125,P09,D11,1,0,1
1086,-29.0,-1.0,56.0,1644852778.15625,P09,D11,1,0,1
1087,-29.0,-1.0,56.0,1644852778.1875,P09,D11,1,0,1
1088,-29.0,0.0,56.0,1644852778.21875,P09,D11,1,0,1
1089,-28.0,-1.0,56.0,1644852778.25,P09,D11,1,0,1
1090,-29.0,0.0,56.0,1644852778.28125,P09,D11,1,0,1
1091,-28.0,-1.0,56.0,1644852778.3125,P09,D11,1,0,1
1092,-29.0,-1.0,56.0,1644852778.34375,P09,D11,1,0,1
1093,-29.0,-1.0,56.0,1644852778.375,P09,D11,1,0,1
1094,-29.0,0.0,56.0,1644852778.40625,P09,D11,1,0,1
1095,-29.0,0.0,57.0,1644852778.4375,P09,D11,1,0,1
1096,-28.0,-1.0,56.0,1644852778.46875,P09,D11,1,0,1
1097,-28.0,0.0,57.0,1644852778.5,P09,D11,1,0,1
1098,-29.0,-1.0,56.0,1644852778.53125,P09,D11,1,0,1
1099,-28.0,-1.0,57.0,1644852778.5625,P09,D11,1,0,1
1100,-28.0,-1.0,56.0,1644852778.59375,P09,D11,1,0,1
1101,-28.0,0.0,57.0,1644852778.625,P09,D11,1,0,1
1102,-28.0,-1.0,56.0,1644852778.65625,P09,D11,1,0,1
1103,-29.0,-1.0,56.0,1644852778.6875,P09,D11,1,0,1
1104,-29.0,-1.0,56.0,1644852778.71875,P09,D11,1,0,1
1105,-28.0,-1.0,57.0,1644852778.75,P09,D11,1,0,1
1106,-28.0,0.0,56.0,1644852778.78125,P09,D11,1,0,1
1107,-28.0,0.0,56.0,1644852778.8125,P09,D11,1,0,1
1108,-29.0,0.0,57.0,1644852778.84375,P09,D11,1,0,1
1109,-29.0,0.0,56.0,1644852778.875,P09,D11,1,0,1
1110,-29.0,-1.0,56.0,1644852778.90625,P09,D11,1,0,1
1111,-29.0,-1.0,56.0,1644852778.9375,P09,D11,1,0,1
1112,-28.0,0.0,56.0,1644852778.96875,P09,D11,1,0,1
