,acc_x,acc_y,acc_z,timestamp,participant,document,val,arou,eng
0,-29.0,1.0,56.0,1644851895.6875,P09,D08,0,0,1
1,-29.0,1.0,56.0,1644851895.71875,P09,D08,0,0,1
2,-28.0,1.0,57.0,1644851895.75,P09,D08,0,0,1
3,-28.0,1.0,56.0,1644851895.78125,P09,D08,0,0,1
4,-29.0,1.0,56.0,1644851895.8125,P09,D08,0,0,1
5,-29.0,1.0,56.0,1644851895.84375,P09,D08,0,0,1
6,-29.0,1.0,56.0,1644851895.875,P09,D08,0,0,1
7,-28.0,1.0,56.0,1644851895.90625,P09,D08,0,0,1
8,-28.0,1.0,56.0,1644851895.9375,P09,D08,0,0,1
9,-29.0,1.0,56.0,1644851895.96875,P09,D08,0,0,1
10,-29.0,1.0,56.0,1644851896.0,P09,D08,0,0,1
11,-28.0,1.0,56.0,1644851896.03125,P09,D08,0,0,1
12,-28.0,1.0,56.0,1644851896.0625,P09,D08,0,0,1
13,-29.0,1.0,57.0,1644851896.09375,P09,D08,0,0,1
14,-28.0,1.0,56.0,1644851896.125,P09,D08,0,0,1
15,-28.0,1.0,56.0,1644851896.15625,P09,D08,0,0,1
16,-29.0,1.0,56.0,1644851896.1875,P09,D08,0,0,1
17,-28.0,1.0,56.0,1644851896.21875,P09,D08,0,0,1
18,-29.0,1.0,57.0,1644851896.25,P09,D08,0,0,1
19,-28.0,1.0,56.0,1644851896.28125,P09,D08,0,0,1
20,-28.0,1.0,56.0,1644851896.3125,P09,D08,0,0,1
21,-28.0,1.0,57.0,1644851896.34375,P09,D08,0,0,1
22,-28.0,1.0,56.0,1644851896.375,P09,D08,0,0,1
23,-29.0,1.0,57.0,1644851896.40625,P09,D08,0,0,1
24,-28.0,1.0,56.0,1644851896.4375,P09,D08,0,0,1
25,-29.0,1.0,56.0,1644851896.46875,P09,D08,0,0,1
26,-28.0,1.0,57.0,1644851896.5,P09,D08,0,0,1
27,-28.0,1.0,57.0,1644851896.53125,P09,D08,0,0,1
28,-28.0,1.0,57.0,1644851896.5625,P09,D08,0,0,1
29,-28.0,1.0,56.0,1644851896.59375,P09,D08,0,0,1
30,-28.0,1.0,56.0,1644851896.625,P09,D08,0,0,1
31,-28.0,1.0,57.0,1644851896.65625,P09,D08,0,0,1
32,-28.0,1.0,56.0,1644851896.6875,P09,D08,0,0,1
33,-28.0,1.0,57.0,1644851896.71875,P09,D08,0,0,1
34,-28.0,1.0,57.0,1644851896.75,P09,D08,0,0,1
35,-28.0,1.0,57.0,1644851896.78125,P09,D08,0,0,1
36,-28.0,1.0,57.0,1644851896.8125,P09,D08,0,0,1
37,-28.0,1.0,57.0,1644851896.84375,P09,D08,0,0,1
38,-28.0,1.0,57.0,1644851896.875,P09,D08,0,0,1
39,-28.0,1.0,56.0,1644851896.90625,P09,D08,0,0,1
40,-28.0,1.0,57.0,1644851896.9375,P09,D08,0,0,1
41,-28.0,1.0,57.0,1644851896.96875,P09,D08,0,0,1
42,-28.0,1.0,57.0,1644851897.0,P09,D08,0,0,1
43,-28.0,1.0,57.0,1644851897.03125,P09,D08,0,0,1
44,-28.0,1.0,56.0,1644851897.0625,P09,D08,0,0,1
45,-28.0,1.0,57.0,1644851897.09375,P09,D08,0,0,1
46,-28.0,1.0,57.0,1644851897.125,P09,D08,0,0,1
47,-28.0,1.0,57.0,1644851897.15625,P09,D08,0,0,1
48,-28.0,1.0,57.0,1644851897.1875,P09,D08,0,0,1
49,-28.0,1.0,57.0,1644851897.21875,P09,D08,0,0,1
50,-28.0,1.0,57.0,1644851897.25,P09,D08,0,0,1
51,-28.0,1.0,57.0,1644851897.28125,P09,D08,0,0,1
52,-28.0,1.0,57.0,1644851897.3125,P09,D08,0,0,1
53,-28.0,1.0,57.0,1644851897.34375,P09,D08,0,0,1
54,-28.0,1.0,57.0,1644851897.375,P09,D08,0,0,1
55,-28.0,1.0,57.0,1644851897.40625,P09,D08,0,0,1
56,-28.0,1.0,56.0,1644851897.4375,P09,D08,0,0,1
57,-28.0,1.0,56.0,1644851897.46875,P09,D08,0,0,1
58,-28.0,1.0,57.0,1644851897.5,P09,D08,0,0,1
59,-28.0,1.0,56.0,1644851897.53125,P09,D08,0,0,1
60,-28.0,1.0,57.0,1644851897.5625,P09,D08,0,0,1
61,-28.0,1.0,57.0,1644851897.59375,P09,D08,0,0,1
62,-28.0,1.0,57.0,1644851897.625,P09,D08,0,0,1
63,-28.0,1.0,56.0,1644851897.65625,P09,D08,0,0,1
64,-28.0,1.0,56.0,1644851897.6875,P09,D08,0,0,1
65,-28.0,1.0,56.0,1644851897.71875,P09,D08,0,0,1
66,-28.0,1.0,57.0,1644851897.75,P09,D08,0,0,1
67,-28.0,1.0,57.0,1644851897.78125,P09,D08,0,0,1
68,-28.0,1.0,57.0,1644851897.8125,P09,D08,0,0,1
69,-28.0,1.0,57.0,1644851897.84375,P09,D08,0,0,1
70,-28.0,1.0,57.0,1644851897.875,P09,D08,0,0,1
71,-28.0,1.0,57.0,1644851897.90625,P09,D08,0,0,1
72,-28.0,1.0,57.0,1644851897.9375,P09,D08,0,0,1
73,-28.0,1.0,57.0,1644851897.96875,P09,D08,0,0,1
74,-28.0,1.0,57.0,1644851898.0,P09,D08,0,0,1
75,-28.0,1.0,57.0,1644851898.03125,P09,D08,0,0,1
76,-28.0,1.0,57.0,1644851898.0625,P09,D08,0,0,1
77,-28.0,1.0,57.0,1644851898.09375,P09,D08,0,0,1
78,-28.0,1.0,56.0,1644851898.125,P09,D08,0,0,1
79,-28.0,1.0,57.0,1644851898.15625,P09,D08,0,0,1
80,-28.0,1.0,57.0,1644851898.1875,P09,D08,0,0,1
81,-28.0,1.0,57.0,1644851898.21875,P09,D08,0,0,1
82,-28.0,1.0,57.0,1644851898.25,P09,D08,0,0,1
83,-28.0,1.0,57.0,1644851898.28125,P09,D08,0,0,1
84,-28.0,1.0,57.0,1644851898.3125,P09,D08,0,0,1
85,-28.0,1.0,57.0,1644851898.34375,P09,D08,0,0,1
86,-28.0,1.0,57.0,1644851898.375,P09,D08,0,0,1
87,-28.0,1.0,56.0,1644851898.40625,P09,D08,0,0,1
88,-28.0,1.0,57.0,1644851898.4375,P09,D08,0,0,1
89,-28.0,1.0,56.0,1644851898.46875,P09,D08,0,0,1
90,-28.0,1.0,56.0,1644851898.5,P09,D08,0,0,1
91,-28.0,1.0,56.0,1644851898.53125,P09,D08,0,0,1
92,-28.0,1.0,56.0,1644851898.5625,P09,D08,0,0,1
93,-28.0,1.0,57.0,1644851898.59375,P09,D08,0,0,1
94,-29.0,1.0,56.0,1644851898.625,P09,D08,0,0,1
95,-29.0,1.0,56.0,1644851898.65625,P09,D08,0,0,1
96,-29.0,1.0,56.0,1644851898.6875,P09,D08,0,0,1
97,-29.0,1.0,57.0,1644851898.71875,P09,D08,0,0,1
98,-28.0,1.0,56.0,1644851898.75,P09,D08,0,0,1
99,-28.0,1.0,56.0,1644851898.78125,P09,D08,0,0,1
100,-29.0,1.0,56.0,1644851898.8125,P09,D08,0,0,1
101,-29.0,1.0,56.0,1644851898.84375,P09,D08,0,0,1
102,-29.0,1.0,57.0,1644851898.875,P09,D08,0,0,1
103,-29.0,1.0,56.0,1644851898.90625,P09,D08,0,0,1
104,-29.0,1.0,56.0,1644851898.9375,P09,D08,0,0,1
105,-28.0,1.0,57.0,1644851898.96875,P09,D08,0,0,1
106,-29.0,1.0,56.0,1644851899.0,P09,D08,0,0,1
107,-29.0,1.0,56.0,1644851899.03125,P09,D08,0,0,1
108,-29.0,1.0,56.0,1644851899.0625,P09,D08,0,0,1
109,-28.0,1.0,57.0,1644851899.09375,P09,D08,0,0,1
110,-29.0,1.0,56.0,1644851899.125,P09,D08,0,0,1
111,-28.0,1.0,56.0,1644851899.15625,P09,D08,0,0,1
112,-28.0,1.0,56.0,1644851899.1875,P09,D08,0,0,1
113,-29.0,1.0,56.0,1644851899.21875,P09,D08,0,0,1
114,-28.0,1.0,57.0,1644851899.25,P09,D08,0,0,1
115,-28.0,1.0,57.0,1644851899.28125,P09,D08,0,0,1
116,-29.0,1.0,56.0,1644851899.3125,P09,D08,0,0,1
117,-29.0,1.0,57.0,1644851899.34375,P09,D08,0,0,1
118,-28.0,1.0,56.0,1644851899.375,P09,D08,0,0,1
119,-29.0,1.0,57.0,1644851899.40625,P09,D08,0,0,1
120,-28.0,1.0,57.0,1644851899.4375,P09,D08,0,0,1
121,-28.0,1.0,56.0,1644851899.46875,P09,D08,0,0,1
122,-28.0,1.0,56.0,1644851899.5,P09,D08,0,0,1
123,-28.0,1.0,57.0,1644851899.53125,P09,D08,0,0,1
124,-28.0,1.0,57.0,1644851899.5625,P09,D08,0,0,1
125,-28.0,1.0,57.0,1644851899.59375,P09,D08,0,0,1
126,-28.0,1.0,56.0,1644851899.625,P09,D08,0,0,1
127,-28.0,1.0,56.0,1644851899.65625,P09,D08,0,0,1
128,-28.0,1.0,57.0,1644851899.6875,P09,D08,0,0,1
129,-29.0,1.0,56.0,1644851899.71875,P09,D08,0,0,1
130,-28.0,1.0,57.0,1644851899.75,P09,D08,0,0,1
131,-28.0,1.0,57.0,1644851899.78125,P09,D08,0,0,1
132,-28.0,1.0,56.0,1644851899.8125,P09,D08,0,0,1
133,-29.0,1.0,56.0,1644851899.84375,P09,D08,0,0,1
134,-28.0,1.0,57.0,1644851899.875,P09,D08,0,0,1
135,-28.0,1.0,56.0,1644851899.90625,P09,D08,0,0,1
136,-28.0,1.0,56.0,1644851899.9375,P09,D08,0,0,1
137,-28.0,1.0,56.0,1644851899.96875,P09,D08,0,0,1
138,-28.0,1.0,56.0,1644851900.0,P09,D08,0,0,1
139,-28.0,1.0,56.0,1644851900.03125,P09,D08,0,0,1
140,-28.0,1.0,57.0,1644851900.0625,P09,D08,0,0,1
141,-28.0,1.0,57.0,1644851900.09375,P09,D08,0,0,1
142,-28.0,1.0,56.0,1644851900.125,P09,D08,0,0,1
143,-29.0,1.0,56.0,1644851900.15625,P09,D08,0,0,1
144,-29.0,1.0,56.0,1644851900.1875,P09,D08,0,0,1
145,-28.0,1.0,57.0,1644851900.21875,P09,D08,0,0,1
146,-28.0,2.0,57.0,1644851900.25,P09,D08,0,0,1
147,-29.0,1.0,56.0,1644851900.28125,P09,D08,0,0,1
148,-29.0,0.0,56.0,1644851900.3125,P09,D08,0,0,1
149,-28.0,2.0,56.0,1644851900.34375,P09,D08,0,0,1
150,-29.0,1.0,56.0,1644851900.375,P09,D08,0,0,1
151,-29.0,1.0,56.0,1644851900.40625,P09,D08,0,0,1
152,-28.0,1.0,56.0,1644851900.4375,P09,D08,0,0,1
153,-29.0,1.0,56.0,1644851900.46875,P09,D08,0,0,1
154,-29.0,1.0,56.0,1644851900.5,P09,D08,0,0,1
155,-30.0,1.0,56.0,1644851900.53125,P09,D08,0,0,1
156,-29.0,1.0,56.0,1644851900.5625,P09,D08,0,0,1
157,-30.0,1.0,55.0,1644851900.59375,P09,D08,0,0,1
158,-27.0,1.0,57.0,1644851900.625,P09,D08,0,0,1
159,-28.0,1.0,56.0,1644851900.65625,P09,D08,0,0,1
160,-30.0,1.0,56.0,1644851900.6875,P09,D08,0,0,1
161,-30.0,1.0,56.0,1644851900.71875,P09,D08,0,0,1
162,-29.0,1.0,56.0,1644851900.75,P09,D08,0,0,1
163,-29.0,1.0,56.0,1644851900.78125,P09,D08,0,0,1
164,-30.0,1.0,56.0,1644851900.8125,P09,D08,0,0,1
165,-29.0,1.0,56.0,1644851900.84375,P09,D08,0,0,1
166,-29.0,1.0,56.0,1644851900.875,P09,D08,0,0,1
167,-30.0,1.0,56.0,1644851900.90625,P09,D08,0,0,1
168,-29.0,1.0,56.0,1644851900.9375,P09,D08,0,0,1
169,-28.0,1.0,56.0,1644851900.96875,P09,D08,0,0,1
170,-28.0,1.0,56.0,1644851901.0,P09,D08,0,0,1
171,-29.0,1.0,56.0,1644851901.03125,P09,D08,0,0,1
172,-29.0,1.0,56.0,1644851901.0625,P09,D08,0,0,1
173,-28.0,0.0,56.0,1644851901.09375,P09,D08,0,0,1
174,-28.0,1.0,57.0,1644851901.125,P09,D08,0,0,1
175,-29.0,1.0,56.0,1644851901.15625,P09,D08,0,0,1
176,-30.0,1.0,55.0,1644851901.1875,P09,D08,0,0,1
177,-31.0,1.0,56.0,1644851901.21875,P09,D08,0,0,1
178,-30.0,1.0,55.0,1644851901.25,P09,D08,0,0,1
179,-30.0,1.0,56.0,1644851901.28125,P09,D08,0,0,1
180,-29.0,1.0,56.0,1644851901.3125,P09,D08,0,0,1
181,-28.0,1.0,56.0,1644851901.34375,P09,D08,0,0,1
182,-28.0,1.0,56.0,1644851901.375,P09,D08,0,0,1
183,-29.0,1.0,56.0,1644851901.40625,P09,D08,0,0,1
184,-29.0,1.0,57.0,1644851901.4375,P09,D08,0,0,1
185,-28.0,1.0,57.0,1644851901.46875,P09,D08,0,0,1
186,-28.0,1.0,56.0,1644851901.5,P09,D08,0,0,1
187,-29.0,1.0,56.0,1644851901.53125,P09,D08,0,0,1
188,-29.0,1.0,56.0,1644851901.5625,P09,D08,0,0,1
189,-28.0,1.0,57.0,1644851901.59375,P09,D08,0,0,1
190,-29.0,1.0,56.0,1644851901.625,P09,D08,0,0,1
191,-28.0,1.0,56.0,1644851901.65625,P09,D08,0,0,1
192,-28.0,1.0,57.0,1644851901.6875,P09,D08,0,0,1
193,-29.0,1.0,56.0,1644851901.71875,P09,D08,0,0,1
194,-29.0,1.0,57.0,1644851901.75,P09,D08,0,0,1
195,-29.0,1.0,56.0,1644851901.78125,P09,D08,0,0,1
196,-29.0,1.0,56.0,1644851901.8125,P09,D08,0,0,1
197,-29.0,1.0,56.0,1644851901.84375,P09,D08,0,0,1
198,-29.0,1.0,56.0,1644851901.875,P09,D08,0,0,1
199,-29.0,1.0,56.0,1644851901.90625,P09,D08,0,0,1
200,-28.0,0.0,57.0,1644851901.9375,P09,D08,0,0,1
201,-28.0,1.0,56.0,1644851901.96875,P09,D08,0,0,1
202,-29.0,1.0,56.0,1644851902.0,P09,D08,0,0,1
203,-29.0,1.0,56.0,1644851902.03125,P09,D08,0,0,1
204,-29.0,1.0,56.0,1644851902.0625,P09,D08,0,0,1
205,-29.0,1.0,56.0,1644851902.09375,P09,D08,0,0,1
206,-30.0,1.0,56.0,1644851902.125,P09,D08,0,0,1
207,-29.0,0.0,56.0,1644851902.15625,P09,D08,0,0,1
208,-29.0,1.0,56.0,1644851902.1875,P09,D08,0,0,1
209,-29.0,1.0,56.0,1644851902.21875,P09,D08,0,0,1
210,-29.0,1.0,56.0,1644851902.25,P09,D08,0,0,1
211,-29.0,1.0,56.0,1644851902.28125,P09,D08,0,0,1
212,-29.0,1.0,56.0,1644851902.3125,P09,D08,0,0,1
213,-30.0,0.0,56.0,1644851902.34375,P09,D08,0,0,1
214,-29.0,1.0,56.0,1644851902.375,P09,D08,0,0,1
215,-30.0,1.0,56.0,1644851902.40625,P09,D08,0,0,1
216,-29.0,1.0,56.0,1644851902.4375,P09,D08,0,0,1
217,-29.0,1.0,56.0,1644851902.46875,P09,D08,0,0,1
218,-29.0,1.0,56.0,1644851902.5,P09,D08,0,0,1
219,-30.0,1.0,56.0,1644851902.53125,P09,D08,0,0,1
220,-29.0,1.0,56.0,1644851902.5625,P09,D08,0,0,1
221,-29.0,0.0,56.0,1644851902.59375,P09,D08,0,0,1
222,-29.0,1.0,56.0,1644851902.625,P09,D08,0,0,1
223,-29.0,1.0,56.0,1644851902.65625,P09,D08,0,0,1
224,-29.0,1.0,56.0,1644851902.6875,P09,D08,0,0,1
225,-29.0,1.0,56.0,1644851902.71875,P09,D08,0,0,1
226,-29.0,1.0,56.0,1644851902.75,P09,D08,0,0,1
227,-29.0,1.0,56.0,1644851902.78125,P09,D08,0,0,1
228,-28.0,1.0,56.0,1644851902.8125,P09,D08,0,0,1
229,-29.0,0.0,57.0,1644851902.84375,P09,D08,0,0,1
230,-29.0,0.0,56.0,1644851902.875,P09,D08,0,0,1
231,-29.0,0.0,56.0,1644851902.90625,P09,D08,0,0,1
232,-28.0,1.0,56.0,1644851902.9375,P09,D08,0,0,1
233,-29.0,1.0,56.0,1644851902.96875,P09,D08,0,0,1
234,-29.0,1.0,56.0,1644851903.0,P09,D08,0,0,1
235,-28.0,0.0,56.0,1644851903.03125,P09,D08,0,0,1
236,-29.0,1.0,56.0,1644851903.0625,P09,D08,0,0,1
237,-29.0,1.0,56.0,1644851903.09375,P09,D08,0,0,1
238,-29.0,1.0,56.0,1644851903.125,P09,D08,0,0,1
239,-29.0,1.0,56.0,1644851903.15625,P09,D08,0,0,1
240,-29.0,1.0,56.0,1644851903.1875,P09,D08,0,0,1
241,-28.0,1.0,56.0,1644851903.21875,P09,D08,0,0,1
242,-29.0,1.0,56.0,1644851903.25,P09,D08,0,0,1
243,-29.0,1.0,56.0,1644851903.28125,P09,D08,0,0,1
244,-28.0,1.0,57.0,1644851903.3125,P09,D08,0,0,1
245,-29.0,1.0,56.0,1644851903.34375,P09,D08,0,0,1
246,-29.0,0.0,56.0,1644851903.375,P09,D08,0,0,1
247,-29.0,1.0,56.0,1644851903.40625,P09,D08,0,0,1
248,-29.0,1.0,57.0,1644851903.4375,P09,D08,0,0,1
249,-29.0,1.0,56.0,1644851903.46875,P09,D08,0,0,1
250,-29.0,1.0,57.0,1644851903.5,P09,D08,0,0,1
251,-29.0,0.0,56.0,1644851903.53125,P09,D08,0,0,1
252,-29.0,1.0,56.0,1644851903.5625,P09,D08,0,0,1
253,-29.0,0.0,56.0,1644851903.59375,P09,D08,0,0,1
254,-29.0,1.0,56.0,1644851903.625,P09,D08,0,0,1
255,-29.0,1.0,56.0,1644851903.65625,P09,D08,0,0,1
256,-29.0,1.0,56.0,1644851903.6875,P09,D08,0,0,1
257,-29.0,1.0,56.0,1644851903.71875,P09,D08,0,0,1
258,-29.0,1.0,56.0,1644851903.75,P09,D08,0,0,1
259,-29.0,1.0,56.0,1644851903.78125,P09,D08,0,0,1
260,-29.0,1.0,56.0,1644851903.8125,P09,D08,0,0,1
261,-29.0,1.0,56.0,1644851903.84375,P09,D08,0,0,1
262,-29.0,1.0,57.0,1644851903.875,P09,D08,0,0,1
263,-29.0,1.0,56.0,1644851903.90625,P09,D08,0,0,1
264,-29.0,1.0,56.0,1644851903.9375,P09,D08,0,0,1
265,-29.0,1.0,56.0,1644851903.96875,P09,D08,0,0,1
266,-29.0,1.0,56.0,1644851904.0,P09,D08,0,0,1
267,-29.0,1.0,56.0,1644851904.03125,P09,D08,0,0,1
268,-29.0,1.0,56.0,1644851904.0625,P09,D08,0,0,1
269,-29.0,1.0,56.0,1644851904.09375,P09,D08,0,0,1
270,-29.0,1.0,56.0,1644851904.125,P09,D08,0,0,1
271,-29.0,1.0,57.0,1644851904.15625,P09,D08,0,0,1
272,-29.0,1.0,56.0,1644851904.1875,P09,D08,0,0,1
273,-29.0,1.0,56.0,1644851904.21875,P09,D08,0,0,1
274,-29.0,1.0,56.0,1644851904.25,P09,D08,0,0,1
275,-29.0,1.0,56.0,1644851904.28125,P09,D08,0,0,1
276,-29.0,1.0,56.0,1644851904.3125,P09,D08,0,0,1
277,-28.0,1.0,56.0,1644851904.34375,P09,D08,0,0,1
278,-29.0,1.0,56.0,1644851904.375,P09,D08,0,0,1
279,-29.0,1.0,56.0,1644851904.40625,P09,D08,0,0,1
280,-29.0,1.0,56.0,1644851904.4375,P09,D08,0,0,1
281,-29.0,1.0,56.0,1644851904.46875,P09,D08,0,0,1
282,-29.0,1.0,56.0,1644851904.5,P09,D08,0,0,1
283,-29.0,1.0,56.0,1644851904.53125,P09,D08,0,0,1
284,-29.0,0.0,56.0,1644851904.5625,P09,D08,0,0,1
285,-29.0,1.0,56.0,1644851904.59375,P09,D08,0,0,1
286,-29.0,1.0,56.0,1644851904.625,P09,D08,0,0,1
287,-29.0,0.0,56.0,1644851904.65625,P09,D08,0,0,1
288,-29.0,1.0,56.0,1644851904.6875,P09,D08,0,0,1
289,-29.0,1.0,56.0,1644851904.71875,P09,D08,0,0,1
290,-29.0,1.0,56.0,1644851904.75,P09,D08,0,0,1
291,-29.0,1.0,56.0,1644851904.78125,P09,D08,0,0,1
292,-28.0,1.0,56.0,1644851904.8125,P09,D08,0,0,1
293,-29.0,1.0,57.0,1644851904.84375,P09,D08,0,0,1
294,-29.0,1.0,56.0,1644851904.875,P09,D08,0,0,1
295,-29.0,1.0,56.0,1644851904.90625,P09,D08,0,0,1
296,-29.0,1.0,56.0,1644851904.9375,P09,D08,0,0,1
297,-28.0,1.0,57.0,1644851904.96875,P09,D08,0,0,1
298,-29.0,1.0,56.0,1644851905.0,P09,D08,0,0,1
299,-29.0,1.0,56.0,1644851905.03125,P09,D08,0,0,1
300,-29.0,1.0,56.0,1644851905.0625,P09,D08,0,0,1
301,-29.0,1.0,56.0,1644851905.09375,P09,D08,0,0,1
302,-29.0,0.0,56.0,1644851905.125,P09,D08,0,0,1
303,-29.0,1.0,56.0,1644851905.15625,P09,D08,0,0,1
304,-29.0,1.0,57.0,1644851905.1875,P09,D08,0,0,1
305,-29.0,1.0,57.0,1644851905.21875,P09,D08,0,0,1
306,-29.0,1.0,56.0,1644851905.25,P09,D08,0,0,1
307,-29.0,1.0,56.0,1644851905.28125,P09,D08,0,0,1
308,-29.0,1.0,56.0,1644851905.3125,P09,D08,0,0,1
309,-29.0,1.0,56.0,1644851905.34375,P09,D08,0,0,1
310,-29.0,0.0,56.0,1644851905.375,P09,D08,0,0,1
311,-29.0,1.0,56.0,1644851905.40625,P09,D08,0,0,1
312,-29.0,1.0,56.0,1644851905.4375,P09,D08,0,0,1
313,-29.0,1.0,56.0,1644851905.46875,P09,D08,0,0,1
314,-29.0,1.0,56.0,1644851905.5,P09,D08,0,0,1
315,-29.0,1.0,57.0,1644851905.53125,P09,D08,0,0,1
316,-29.0,1.0,56.0,1644851905.5625,P09,D08,0,0,1
317,-29.0,1.0,56.0,1644851905.59375,P09,D08,0,0,1
318,-28.0,1.0,56.0,1644851905.625,P09,D08,0,0,1
319,-29.0,1.0,56.0,1644851905.65625,P09,D08,0,0,1
320,-29.0,1.0,56.0,1644851905.6875,P09,D08,0,0,1
321,-29.0,1.0,56.0,1644851905.71875,P09,D08,0,0,1
322,-29.0,1.0,56.0,1644851905.75,P09,D08,0,0,1
323,-28.0,1.0,56.0,1644851905.78125,P09,D08,0,0,1
324,-29.0,1.0,56.0,1644851905.8125,P09,D08,0,0,1
325,-29.0,1.0,56.0,1644851905.84375,P09,D08,0,0,1
326,-28.0,1.0,57.0,1644851905.875,P09,D08,0,0,1
327,-29.0,1.0,56.0,1644851905.90625,P09,D08,0,0,1
328,-29.0,1.0,56.0,1644851905.9375,P09,D08,0,0,1
329,-28.0,1.0,56.0,1644851905.96875,P09,D08,0,0,1
330,-29.0,1.0,57.0,1644851906.0,P09,D08,0,0,1
331,-29.0,1.0,56.0,1644851906.03125,P09,D08,0,0,1
332,-29.0,1.0,56.0,1644851906.0625,P09,D08,0,0,1
333,-29.0,1.0,56.0,1644851906.09375,P09,D08,0,0,1
334,-28.0,1.0,56.0,1644851906.125,P09,D08,0,0,1
335,-29.0,1.0,56.0,1644851906.15625,P09,D08,0,0,1
336,-29.0,1.0,56.0,1644851906.1875,P09,D08,0,0,1
337,-29.0,1.0,56.0,1644851906.21875,P09,D08,0,0,1
338,-28.0,1.0,56.0,1644851906.25,P09,D08,0,0,1
339,-29.0,1.0,56.0,1644851906.28125,P09,D08,0,0,1
340,-29.0,1.0,56.0,1644851906.3125,P09,D08,0,0,1
341,-28.0,1.0,56.0,1644851906.34375,P09,D08,0,0,1
342,-29.0,1.0,56.0,1644851906.375,P09,D08,0,0,1
343,-29.0,1.0,56.0,1644851906.40625,P09,D08,0,0,1
344,-28.0,1.0,57.0,1644851906.4375,P09,D08,0,0,1
345,-29.0,1.0,57.0,1644851906.46875,P09,D08,0,0,1
346,-29.0,1.0,56.0,1644851906.5,P09,D08,0,0,1
347,-29.0,1.0,56.0,1644851906.53125,P09,D08,0,0,1
348,-29.0,1.0,56.0,1644851906.5625,P09,D08,0,0,1
349,-29.0,1.0,56.0,1644851906.59375,P09,D08,0,0,1
350,-29.0,1.0,56.0,1644851906.625,P09,D08,0,0,1
351,-28.0,1.0,56.0,1644851906.65625,P09,D08,0,0,1
352,-29.0,0.0,56.0,1644851906.6875,P09,D08,0,0,1
353,-28.0,1.0,56.0,1644851906.71875,P09,D08,0,0,1
354,-29.0,1.0,56.0,1644851906.75,P09,D08,0,0,1
355,-29.0,1.0,56.0,1644851906.78125,P09,D08,0,0,1
356,-28.0,1.0,56.0,1644851906.8125,P09,D08,0,0,1
357,-28.0,1.0,56.0,1644851906.84375,P09,D08,0,0,1
358,-29.0,1.0,56.0,1644851906.875,P09,D08,0,0,1
359,-28.0,1.0,57.0,1644851906.90625,P09,D08,0,0,1
360,-29.0,1.0,56.0,1644851906.9375,P09,D08,0,0,1
361,-29.0,1.0,57.0,1644851906.96875,P09,D08,0,0,1
362,-28.0,1.0,56.0,1644851907.0,P09,D08,0,0,1
363,-29.0,1.0,56.0,1644851907.03125,P09,D08,0,0,1
364,-29.0,1.0,56.0,1644851907.0625,P09,D08,0,0,1
365,-29.0,1.0,56.0,1644851907.09375,P09,D08,0,0,1
366,-28.0,1.0,56.0,1644851907.125,P09,D08,0,0,1
367,-28.0,1.0,57.0,1644851907.15625,P09,D08,0,0,1
368,-29.0,1.0,56.0,1644851907.1875,P09,D08,0,0,1
369,-29.0,1.0,56.0,1644851907.21875,P09,D08,0,0,1
370,-28.0,1.0,56.0,1644851907.25,P09,D08,0,0,1
371,-28.0,1.0,57.0,1644851907.28125,P09,D08,0,0,1
372,-29.0,1.0,56.0,1644851907.3125,P09,D08,0,0,1
373,-28.0,1.0,57.0,1644851907.34375,P09,D08,0,0,1
374,-28.0,1.0,56.0,1644851907.375,P09,D08,0,0,1
375,-28.0,1.0,57.0,1644851907.40625,P09,D08,0,0,1
376,-29.0,1.0,57.0,1644851907.4375,P09,D08,0,0,1
377,-29.0,1.0,56.0,1644851907.46875,P09,D08,0,0,1
378,-29.0,1.0,56.0,1644851907.5,P09,D08,0,0,1
379,-28.0,1.0,56.0,1644851907.53125,P09,D08,0,0,1
380,-29.0,1.0,56.0,1644851907.5625,P09,D08,0,0,1
381,-29.0,1.0,56.0,1644851907.59375,P09,D08,0,0,1
382,-28.0,1.0,57.0,1644851907.625,P09,D08,0,0,1
383,-28.0,1.0,57.0,1644851907.65625,P09,D08,0,0,1
384,-29.0,1.0,56.0,1644851907.6875,P09,D08,0,0,1
385,-28.0,1.0,57.0,1644851907.71875,P09,D08,0,0,1
386,-29.0,1.0,56.0,1644851907.75,P09,D08,0,0,1
387,-29.0,1.0,57.0,1644851907.78125,P09,D08,0,0,1
388,-28.0,1.0,57.0,1644851907.8125,P09,D08,0,0,1
389,-28.0,1.0,56.0,1644851907.84375,P09,D08,0,0,1
390,-29.0,1.0,56.0,1644851907.875,P09,D08,0,0,1
391,-28.0,1.0,57.0,1644851907.90625,P09,D08,0,0,1
392,-28.0,1.0,57.0,1644851907.9375,P09,D08,0,0,1
393,-29.0,1.0,56.0,1644851907.96875,P09,D08,0,0,1
394,-28.0,1.0,56.0,1644851908.0,P09,D08,0,0,1
395,-28.0,1.0,57.0,1644851908.03125,P09,D08,0,0,1
396,-29.0,1.0,56.0,1644851908.0625,P09,D08,0,0,1
397,-28.0,1.0,57.0,1644851908.09375,P09,D08,0,0,1
398,-28.0,1.0,56.0,1644851908.125,P09,D08,0,0,1
399,-29.0,1.0,56.0,1644851908.15625,P09,D08,0,0,1
400,-28.0,1.0,57.0,1644851908.1875,P09,D08,0,0,1
401,-29.0,1.0,56.0,1644851908.21875,P09,D08,0,0,1
402,-28.0,1.0,56.0,1644851908.25,P09,D08,0,0,1
403,-29.0,0.0,56.0,1644851908.28125,P09,D08,0,0,1
404,-28.0,1.0,57.0,1644851908.3125,P09,D08,0,0,1
405,-28.0,1.0,56.0,1644851908.34375,P09,D08,0,0,1
406,-28.0,1.0,56.0,1644851908.375,P09,D08,0,0,1
407,-28.0,1.0,57.0,1644851908.40625,P09,D08,0,0,1
408,-29.0,1.0,56.0,1644851908.4375,P09,D08,0,0,1
409,-29.0,1.0,56.0,1644851908.46875,P09,D08,0,0,1
410,-29.0,1.0,56.0,1644851908.5,P09,D08,0,0,1
411,-29.0,1.0,57.0,1644851908.53125,P09,D08,0,0,1
412,-29.0,1.0,56.0,1644851908.5625,P09,D08,0,0,1
413,-28.0,1.0,56.0,1644851908.59375,P09,D08,0,0,1
414,-29.0,1.0,56.0,1644851908.625,P09,D08,0,0,1
415,-28.0,1.0,57.0,1644851908.65625,P09,D08,0,0,1
416,-29.0,1.0,56.0,1644851908.6875,P09,D08,0,0,1
417,-29.0,1.0,57.0,1644851908.71875,P09,D08,0,0,1
418,-28.0,1.0,57.0,1644851908.75,P09,D08,0,0,1
419,-28.0,1.0,56.0,1644851908.78125,P09,D08,0,0,1
420,-29.0,1.0,56.0,1644851908.8125,P09,D08,0,0,1
421,-28.0,1.0,56.0,1644851908.84375,P09,D08,0,0,1
422,-28.0,1.0,56.0,1644851908.875,P09,D08,0,0,1
423,-29.0,1.0,56.0,1644851908.90625,P09,D08,0,0,1
424,-29.0,1.0,57.0,1644851908.9375,P09,D08,0,0,1
425,-29.0,1.0,56.0,1644851908.96875,P09,D08,0,0,1
426,-28.0,1.0,57.0,1644851909.0,P09,D08,0,0,1
427,-29.0,1.0,56.0,1644851909.03125,P09,D08,0,0,1
428,-29.0,1.0,56.0,1644851909.0625,P09,D08,0,0,1
429,-28.0,1.0,56.0,1644851909.09375,P09,D08,0,0,1
430,-28.0,1.0,57.0,1644851909.125,P09,D08,0,0,1
431,-29.0,1.0,56.0,1644851909.15625,P09,D08,0,0,1
432,-29.0,1.0,56.0,1644851909.1875,P09,D08,0,0,1
433,-28.0,1.0,57.0,1644851909.21875,P09,D08,0,0,1
434,-29.0,1.0,56.0,1644851909.25,P09,D08,0,0,1
435,-29.0,1.0,56.0,1644851909.28125,P09,D08,0,0,1
436,-28.0,1.0,56.0,1644851909.3125,P09,D08,0,0,1
437,-28.0,1.0,56.0,1644851909.34375,P09,D08,0,0,1
438,-29.0,1.0,56.0,1644851909.375,P09,D08,0,0,1
439,-29.0,1.0,56.0,1644851909.40625,P09,D08,0,0,1
440,-28.0,1.0,56.0,1644851909.4375,P09,D08,0,0,1
441,-28.0,1.0,56.0,1644851909.46875,P09,D08,0,0,1
442,-29.0,0.0,56.0,1644851909.5,P09,D08,0,0,1
443,-28.0,1.0,56.0,1644851909.53125,P09,D08,0,0,1
444,-28.0,1.0,57.0,1644851909.5625,P09,D08,0,0,1
445,-28.0,1.0,56.0,1644851909.59375,P09,D08,0,0,1
446,-29.0,0.0,56.0,1644851909.625,P09,D08,0,0,1
447,-28.0,1.0,57.0,1644851909.65625,P09,D08,0,0,1
448,-29.0,1.0,57.0,1644851909.6875,P09,D08,0,0,1
449,-29.0,1.0,57.0,1644851909.71875,P09,D08,0,0,1
450,-28.0,1.0,57.0,1644851909.75,P09,D08,0,0,1
451,-28.0,1.0,56.0,1644851909.78125,P09,D08,0,0,1
452,-28.0,1.0,57.0,1644851909.8125,P09,D08,0,0,1
453,-28.0,1.0,56.0,1644851909.84375,P09,D08,0,0,1
454,-29.0,1.0,56.0,1644851909.875,P09,D08,0,0,1
455,-29.0,1.0,57.0,1644851909.90625,P09,D08,0,0,1
456,-29.0,1.0,57.0,1644851909.9375,P09,D08,0,0,1
457,-28.0,1.0,56.0,1644851909.96875,P09,D08,0,0,1
458,-28.0,1.0,57.0,1644851910.0,P09,D08,0,0,1
459,-29.0,1.0,56.0,1644851910.03125,P09,D08,0,0,1
460,-28.0,1.0,56.0,1644851910.0625,P09,D08,0,0,1
461,-29.0,1.0,57.0,1644851910.09375,P09,D08,0,0,1
462,-28.0,1.0,57.0,1644851910.125,P09,D08,0,0,1
463,-28.0,1.0,56.0,1644851910.15625,P09,D08,0,0,1
464,-29.0,1.0,56.0,1644851910.1875,P09,D08,0,0,1
465,-28.0,1.0,56.0,1644851910.21875,P09,D08,0,0,1
466,-28.0,1.0,56.0,1644851910.25,P09,D08,0,0,1
467,-28.0,1.0,56.0,1644851910.28125,P09,D08,0,0,1
468,-29.0,1.0,56.0,1644851910.3125,P09,D08,0,0,1
469,-29.0,1.0,57.0,1644851910.34375,P09,D08,0,0,1
470,-28.0,1.0,56.0,1644851910.375,P09,D08,0,0,1
471,-28.0,1.0,57.0,1644851910.40625,P09,D08,0,0,1
472,-29.0,1.0,56.0,1644851910.4375,P09,D08,0,0,1
473,-28.0,1.0,57.0,1644851910.46875,P09,D08,0,0,1
474,-29.0,1.0,56.0,1644851910.5,P09,D08,0,0,1
475,-29.0,1.0,56.0,1644851910.53125,P09,D08,0,0,1
476,-28.0,1.0,57.0,1644851910.5625,P09,D08,0,0,1
477,-28.0,1.0,56.0,1644851910.59375,P09,D08,0,0,1
478,-29.0,1.0,56.0,1644851910.625,P09,D08,0,0,1
479,-28.0,1.0,57.0,1644851910.65625,P09,D08,0,0,1
480,-29.0,1.0,57.0,1644851910.6875,P09,D08,0,0,1
481,-29.0,1.0,56.0,1644851910.71875,P09,D08,0,0,1
482,-28.0,1.0,56.0,1644851910.75,P09,D08,0,0,1
483,-28.0,1.0,57.0,1644851910.78125,P09,D08,0,0,1
484,-29.0,1.0,57.0,1644851910.8125,P09,D08,0,0,1
485,-29.0,1.0,56.0,1644851910.84375,P09,D08,0,0,1
486,-28.0,1.0,57.0,1644851910.875,P09,D08,0,0,1
487,-28.0,1.0,56.0,1644851910.90625,P09,D08,0,0,1
488,-28.0,1.0,56.0,1644851910.9375,P09,D08,0,0,1
489,-29.0,1.0,56.0,1644851910.96875,P09,D08,0,0,1
490,-29.0,1.0,56.0,1644851911.0,P09,D08,0,0,1
491,-28.0,1.0,57.0,1644851911.03125,P09,D08,0,0,1
492,-28.0,1.0,56.0,1644851911.0625,P09,D08,0,0,1
493,-29.0,1.0,57.0,1644851911.09375,P09,D08,0,0,1
494,-29.0,1.0,56.0,1644851911.125,P09,D08,0,0,1
495,-28.0,1.0,56.0,1644851911.15625,P09,D08,0,0,1
496,-28.0,1.0,57.0,1644851911.1875,P09,D08,0,0,1
497,-28.0,1.0,56.0,1644851911.21875,P09,D08,0,0,1
498,-28.0,1.0,56.0,1644851911.25,P09,D08,0,0,1
499,-28.0,1.0,57.0,1644851911.28125,P09,D08,0,0,1
500,-29.0,1.0,56.0,1644851911.3125,P09,D08,0,0,1
501,-29.0,1.0,56.0,1644851911.34375,P09,D08,0,0,1
502,-28.0,1.0,57.0,1644851911.375,P09,D08,0,0,1
503,-28.0,1.0,57.0,1644851911.40625,P09,D08,0,0,1
504,-29.0,1.0,57.0,1644851911.4375,P09,D08,0,0,1
505,-29.0,1.0,56.0,1644851911.46875,P09,D08,0,0,1
506,-29.0,1.0,56.0,1644851911.5,P09,D08,0,0,1
507,-28.0,1.0,57.0,1644851911.53125,P09,D08,0,0,1
508,-28.0,1.0,57.0,1644851911.5625,P09,D08,0,0,1
509,-28.0,1.0,57.0,1644851911.59375,P09,D08,0,0,1
510,-29.0,1.0,56.0,1644851911.625,P09,D08,0,0,1
511,-28.0,1.0,57.0,1644851911.65625,P09,D08,0,0,1
512,-28.0,1.0,57.0,1644851911.6875,P09,D08,0,0,1
513,-29.0,1.0,56.0,1644851911.71875,P09,D08,0,0,1
514,-28.0,1.0,56.0,1644851911.75,P09,D08,0,0,1
515,-28.0,1.0,56.0,1644851911.78125,P09,D08,0,0,1
516,-28.0,1.0,56.0,1644851911.8125,P09,D08,0,0,1
517,-29.0,1.0,56.0,1644851911.84375,P09,D08,0,0,1
518,-28.0,1.0,57.0,1644851911.875,P09,D08,0,0,1
519,-29.0,1.0,56.0,1644851911.90625,P09,D08,0,0,1
520,-28.0,1.0,56.0,1644851911.9375,P09,D08,0,0,1
521,-28.0,1.0,56.0,1644851911.96875,P09,D08,0,0,1
522,-29.0,1.0,57.0,1644851912.0,P09,D08,0,0,1
523,-28.0,1.0,56.0,1644851912.03125,P09,D08,0,0,1
524,-28.0,1.0,56.0,1644851912.0625,P09,D08,0,0,1
525,-28.0,1.0,56.0,1644851912.09375,P09,D08,0,0,1
526,-28.0,1.0,56.0,1644851912.125,P09,D08,0,0,1
527,-29.0,1.0,56.0,1644851912.15625,P09,D08,0,0,1
528,-28.0,1.0,56.0,1644851912.1875,P09,D08,0,0,1
529,-29.0,1.0,56.0,1644851912.21875,P09,D08,0,0,1
530,-28.0,1.0,56.0,1644851912.25,P09,D08,0,0,1
531,-28.0,1.0,57.0,1644851912.28125,P09,D08,0,0,1
532,-29.0,1.0,56.0,1644851912.3125,P09,D08,0,0,1
533,-29.0,1.0,56.0,1644851912.34375,P09,D08,0,0,1
534,-29.0,1.0,56.0,1644851912.375,P09,D08,0,0,1
535,-28.0,1.0,57.0,1644851912.40625,P09,D08,0,0,1
536,-28.0,1.0,56.0,1644851912.4375,P09,D08,0,0,1
537,-29.0,1.0,57.0,1644851912.46875,P09,D08,0,0,1
538,-28.0,1.0,57.0,1644851912.5,P09,D08,0,0,1
539,-28.0,1.0,56.0,1644851912.53125,P09,D08,0,0,1
540,-28.0,1.0,56.0,1644851912.5625,P09,D08,0,0,1
541,-29.0,1.0,56.0,1644851912.59375,P09,D08,0,0,1
542,-28.0,1.0,57.0,1644851912.625,P09,D08,0,0,1
543,-28.0,1.0,56.0,1644851912.65625,P09,D08,0,0,1
544,-29.0,1.0,56.0,1644851912.6875,P09,D08,0,0,1
545,-28.0,1.0,56.0,1644851912.71875,P09,D08,0,0,1
546,-29.0,1.0,56.0,1644851912.75,P09,D08,0,0,1
547,-29.0,1.0,56.0,1644851912.78125,P09,D08,0,0,1
548,-28.0,1.0,57.0,1644851912.8125,P09,D08,0,0,1
549,-29.0,1.0,57.0,1644851912.84375,P09,D08,0,0,1
550,-29.0,1.0,56.0,1644851912.875,P09,D08,0,0,1
551,-28.0,1.0,56.0,1644851912.90625,P09,D08,0,0,1
552,-28.0,1.0,57.0,1644851912.9375,P09,D08,0,0,1
553,-28.0,1.0,57.0,1644851912.96875,P09,D08,0,0,1
554,-28.0,1.0,57.0,1644851913.0,P09,D08,0,0,1
555,-29.0,1.0,56.0,1644851913.03125,P09,D08,0,0,1
556,-28.0,1.0,57.0,1644851913.0625,P09,D08,0,0,1
557,-29.0,1.0,56.0,1644851913.09375,P09,D08,0,0,1
558,-29.0,1.0,57.0,1644851913.125,P09,D08,0,0,1
559,-28.0,1.0,57.0,1644851913.15625,P09,D08,0,0,1
560,-28.0,1.0,57.0,1644851913.1875,P09,D08,0,0,1
561,-29.0,1.0,56.0,1644851913.21875,P09,D08,0,0,1
562,-28.0,1.0,57.0,1644851913.25,P09,D08,0,0,1
563,-29.0,1.0,56.0,1644851913.28125,P09,D08,0,0,1
564,-28.0,1.0,57.0,1644851913.3125,P09,D08,0,0,1
565,-28.0,1.0,56.0,1644851913.34375,P09,D08,0,0,1
566,-28.0,1.0,56.0,1644851913.375,P09,D08,0,0,1
567,-28.0,1.0,56.0,1644851913.40625,P09,D08,0,0,1
568,-29.0,1.0,56.0,1644851913.4375,P09,D08,0,0,1
569,-28.0,1.0,57.0,1644851913.46875,P09,D08,0,0,1
570,-28.0,1.0,56.0,1644851913.5,P09,D08,0,0,1
571,-29.0,1.0,57.0,1644851913.53125,P09,D08,0,0,1
572,-28.0,1.0,56.0,1644851913.5625,P09,D08,0,0,1
573,-28.0,1.0,56.0,1644851913.59375,P09,D08,0,0,1
574,-28.0,1.0,57.0,1644851913.625,P09,D08,0,0,1
575,-29.0,1.0,56.0,1644851913.65625,P09,D08,0,0,1
576,-28.0,1.0,57.0,1644851913.6875,P09,D08,0,0,1
577,-28.0,1.0,57.0,1644851913.71875,P09,D08,0,0,1
578,-28.0,1.0,56.0,1644851913.75,P09,D08,0,0,1
579,-28.0,1.0,56.0,1644851913.78125,P09,D08,0,0,1
580,-28.0,1.0,57.0,1644851913.8125,P09,D08,0,0,1
581,-29.0,1.0,56.0,1644851913.84375,P09,D08,0,0,1
582,-28.0,1.0,57.0,1644851913.875,P09,D08,0,0,1
583,-28.0,1.0,56.0,1644851913.90625,P09,D08,0,0,1
584,-28.0,1.0,57.0,1644851913.9375,P09,D08,0,0,1
585,-28.0,1.0,56.0,1644851913.96875,P09,D08,0,0,1
586,-29.0,1.0,57.0,1644851914.0,P09,D08,0,0,1
587,-28.0,1.0,57.0,1644851914.03125,P09,D08,0,0,1
588,-28.0,1.0,57.0,1644851914.0625,P09,D08,0,0,1
589,-28.0,1.0,56.0,1644851914.09375,P09,D08,0,0,1
590,-28.0,1.0,57.0,1644851914.125,P09,D08,0,0,1
591,-28.0,1.0,56.0,1644851914.15625,P09,D08,0,0,1
592,-28.0,1.0,57.0,1644851914.1875,P09,D08,0,0,1
593,-28.0,1.0,57.0,1644851914.21875,P09,D08,0,0,1
594,-28.0,1.0,57.0,1644851914.25,P09,D08,0,0,1
595,-28.0,1.0,56.0,1644851914.28125,P09,D08,0,0,1
596,-28.0,1.0,57.0,1644851914.3125,P09,D08,0,0,1
597,-28.0,1.0,57.0,1644851914.34375,P09,D08,0,0,1
598,-28.0,1.0,56.0,1644851914.375,P09,D08,0,0,1
599,-28.0,1.0,57.0,1644851914.40625,P09,D08,0,0,1
600,-28.0,1.0,57.0,1644851914.4375,P09,D08,0,0,1
601,-28.0,1.0,57.0,1644851914.46875,P09,D08,0,0,1
602,-28.0,1.0,57.0,1644851914.5,P09,D08,0,0,1
603,-28.0,1.0,56.0,1644851914.53125,P09,D08,0,0,1
604,-28.0,1.0,57.0,1644851914.5625,P09,D08,0,0,1
605,-28.0,1.0,57.0,1644851914.59375,P09,D08,0,0,1
606,-28.0,1.0,57.0,1644851914.625,P09,D08,0,0,1
607,-28.0,1.0,57.0,1644851914.65625,P09,D08,0,0,1
608,-28.0,1.0,57.0,1644851914.6875,P09,D08,0,0,1
609,-28.0,1.0,56.0,1644851914.71875,P09,D08,0,0,1
610,-28.0,1.0,57.0,1644851914.75,P09,D08,0,0,1
611,-28.0,1.0,57.0,1644851914.78125,P09,D08,0,0,1
612,-28.0,1.0,57.0,1644851914.8125,P09,D08,0,0,1
613,-28.0,1.0,57.0,1644851914.84375,P09,D08,0,0,1
614,-28.0,1.0,56.0,1644851914.875,P09,D08,0,0,1
615,-28.0,1.0,57.0,1644851914.90625,P09,D08,0,0,1
616,-28.0,1.0,57.0,1644851914.9375,P09,D08,0,0,1
617,-28.0,1.0,57.0,1644851914.96875,P09,D08,0,0,1
618,-28.0,1.0,56.0,1644851915.0,P09,D08,0,0,1
619,-28.0,1.0,57.0,1644851915.03125,P09,D08,0,0,1
620,-28.0,1.0,56.0,1644851915.0625,P09,D08,0,0,1
621,-28.0,1.0,56.0,1644851915.09375,P09,D08,0,0,1
622,-28.0,1.0,56.0,1644851915.125,P09,D08,0,0,1
623,-28.0,1.0,57.0,1644851915.15625,P09,D08,0,0,1
624,-28.0,1.0,57.0,1644851915.1875,P09,D08,0,0,1
625,-28.0,1.0,57.0,1644851915.21875,P09,D08,0,0,1
626,-28.0,1.0,57.0,1644851915.25,P09,D08,0,0,1
627,-28.0,1.0,57.0,1644851915.28125,P09,D08,0,0,1
628,-28.0,1.0,57.0,1644851915.3125,P09,D08,0,0,1
629,-28.0,1.0,57.0,1644851915.34375,P09,D08,0,0,1
630,-28.0,1.0,57.0,1644851915.375,P09,D08,0,0,1
631,-28.0,1.0,57.0,1644851915.40625,P09,D08,0,0,1
632,-28.0,1.0,57.0,1644851915.4375,P09,D08,0,0,1
633,-28.0,1.0,57.0,1644851915.46875,P09,D08,0,0,1
634,-28.0,1.0,57.0,1644851915.5,P09,D08,0,0,1
635,-28.0,1.0,57.0,1644851915.53125,P09,D08,0,0,1
636,-28.0,1.0,57.0,1644851915.5625,P09,D08,0,0,1
637,-28.0,1.0,57.0,1644851915.59375,P09,D08,0,0,1
638,-28.0,1.0,57.0,1644851915.625,P09,D08,0,0,1
639,-28.0,1.0,57.0,1644851915.65625,P09,D08,0,0,1
640,-28.0,1.0,57.0,1644851915.6875,P09,D08,0,0,1
641,-28.0,1.0,57.0,1644851915.71875,P09,D08,0,0,1
642,-28.0,1.0,57.0,1644851915.75,P09,D08,0,0,1
643,-28.0,1.0,57.0,1644851915.78125,P09,D08,0,0,1
644,-28.0,1.0,57.0,1644851915.8125,P09,D08,0,0,1
645,-28.0,1.0,57.0,1644851915.84375,P09,D08,0,0,1
646,-28.0,1.0,57.0,1644851915.875,P09,D08,0,0,1
647,-26.0,1.0,57.0,1644851915.90625,P09,D08,0,0,1
648,-29.0,1.0,56.0,1644851915.9375,P09,D08,0,0,1
649,-28.0,1.0,57.0,1644851915.96875,P09,D08,0,0,1
650,-28.0,1.0,57.0,1644851916.0,P09,D08,0,0,1
651,-28.0,1.0,57.0,1644851916.03125,P09,D08,0,0,1
652,-28.0,1.0,57.0,1644851916.0625,P09,D08,0,0,1
653,-28.0,1.0,57.0,1644851916.09375,P09,D08,0,0,1
654,-28.0,1.0,57.0,1644851916.125,P09,D08,0,0,1
655,-28.0,1.0,57.0,1644851916.15625,P09,D08,0,0,1
656,-28.0,1.0,57.0,1644851916.1875,P09,D08,0,0,1
657,-28.0,1.0,57.0,1644851916.21875,P09,D08,0,0,1
658,-28.0,1.0,57.0,1644851916.25,P09,D08,0,0,1
659,-27.0,1.0,57.0,1644851916.28125,P09,D08,0,0,1
660,-28.0,1.0,57.0,1644851916.3125,P09,D08,0,0,1
661,-28.0,1.0,57.0,1644851916.34375,P09,D08,0,0,1
662,-28.0,1.0,57.0,1644851916.375,P09,D08,0,0,1
663,-27.0,1.0,57.0,1644851916.40625,P09,D08,0,0,1
664,-28.0,1.0,57.0,1644851916.4375,P09,D08,0,0,1
665,-28.0,1.0,57.0,1644851916.46875,P09,D08,0,0,1
666,-28.0,1.0,57.0,1644851916.5,P09,D08,0,0,1
667,-28.0,1.0,57.0,1644851916.53125,P09,D08,0,0,1
668,-28.0,1.0,57.0,1644851916.5625,P09,D08,0,0,1
669,-27.0,1.0,57.0,1644851916.59375,P09,D08,0,0,1
670,-28.0,1.0,57.0,1644851916.625,P09,D08,0,0,1
671,-28.0,1.0,57.0,1644851916.65625,P09,D08,0,0,1
672,-27.0,1.0,57.0,1644851916.6875,P09,D08,0,0,1
673,-27.0,1.0,57.0,1644851916.71875,P09,D08,0,0,1
674,-28.0,1.0,57.0,1644851916.75,P09,D08,0,0,1
675,-27.0,1.0,57.0,1644851916.78125,P09,D08,0,0,1
676,-27.0,1.0,57.0,1644851916.8125,P09,D08,0,0,1
677,-28.0,1.0,57.0,1644851916.84375,P09,D08,0,0,1
678,-27.0,1.0,57.0,1644851916.875,P09,D08,0,0,1
679,-27.0,1.0,57.0,1644851916.90625,P09,D08,0,0,1
680,-28.0,1.0,57.0,1644851916.9375,P09,D08,0,0,1
681,-27.0,1.0,57.0,1644851916.96875,P09,D08,0,0,1
682,-27.0,1.0,57.0,1644851917.0,P09,D08,0,0,1
683,-28.0,1.0,57.0,1644851917.03125,P09,D08,0,0,1
684,-27.0,1.0,57.0,1644851917.0625,P09,D08,0,0,1
685,-27.0,1.0,57.0,1644851917.09375,P09,D08,0,0,1
686,-28.0,1.0,57.0,1644851917.125,P09,D08,0,0,1
687,-27.0,1.0,57.0,1644851917.15625,P09,D08,0,0,1
688,-27.0,1.0,57.0,1644851917.1875,P09,D08,0,0,1
689,-27.0,1.0,57.0,1644851917.21875,P09,D08,0,0,1
690,-27.0,1.0,57.0,1644851917.25,P09,D08,0,0,1
691,-27.0,1.0,57.0,1644851917.28125,P09,D08,0,0,1
692,-27.0,1.0,57.0,1644851917.3125,P09,D08,0,0,1
693,-27.0,1.0,57.0,1644851917.34375,P09,D08,0,0,1
694,-27.0,1.0,57.0,1644851917.375,P09,D08,0,0,1
695,-27.0,1.0,57.0,1644851917.40625,P09,D08,0,0,1
696,-27.0,1.0,57.0,1644851917.4375,P09,D08,0,0,1
697,-27.0,1.0,57.0,1644851917.46875,P09,D08,0,0,1
698,-27.0,1.0,57.0,1644851917.5,P09,D08,0,0,1
699,-27.0,1.0,57.0,1644851917.53125,P09,D08,0,0,1
700,-27.0,1.0,57.0,1644851917.5625,P09,D08,0,0,1
701,-27.0,1.0,57.0,1644851917.59375,P09,D08,0,0,1
702,-27.0,1.0,57.0,1644851917.625,P09,D08,0,0,1
703,-27.0,1.0,57.0,1644851917.65625,P09,D08,0,0,1
704,-28.0,1.0,57.0,1644851917.6875,P09,D08,0,0,1
705,-27.0,1.0,57.0,1644851917.71875,P09,D08,0,0,1
706,-28.0,1.0,57.0,1644851917.75,P09,D08,0,0,1
707,-27.0,1.0,57.0,1644851917.78125,P09,D08,0,0,1
708,-27.0,1.0,57.0,1644851917.8125,P09,D08,0,0,1
709,-27.0,1.0,57.0,1644851917.84375,P09,D08,0,0,1
710,-27.0,1.0,57.0,1644851917.875,P09,D08,0,0,1
711,-27.0,1.0,57.0,1644851917.90625,P09,D08,0,0,1
712,-27.0,1.0,57.0,1644851917.9375,P09,D08,0,0,1
713,-27.0,1.0,57.0,1644851917.96875,P09,D08,0,0,1
714,-27.0,1.0,57.0,1644851918.0,P09,D08,0,0,1
715,-27.0,1.0,57.0,1644851918.03125,P09,D08,0,0,1
716,-28.0,1.0,57.0,1644851918.0625,P09,D08,0,0,1
717,-27.0,1.0,57.0,1644851918.09375,P09,D08,0,0,1
718,-27.0,1.0,57.0,1644851918.125,P09,D08,0,0,1
719,-27.0,1.0,57.0,1644851918.15625,P09,D08,0,0,1
720,-27.0,1.0,57.0,1644851918.1875,P09,D08,0,0,1
721,-27.0,1.0,57.0,1644851918.21875,P09,D08,0,0,1
722,-27.0,1.0,57.0,1644851918.25,P09,D08,0,0,1
723,-27.0,1.0,57.0,1644851918.28125,P09,D08,0,0,1
724,-27.0,1.0,57.0,1644851918.3125,P09,D08,0,0,1
725,-27.0,1.0,57.0,1644851918.34375,P09,D08,0,0,1
726,-27.0,1.0,57.0,1644851918.375,P09,D08,0,0,1
727,-27.0,1.0,57.0,1644851918.40625,P09,D08,0,0,1
728,-27.0,1.0,57.0,1644851918.4375,P09,D08,0,0,1
729,-27.0,1.0,57.0,1644851918.46875,P09,D08,0,0,1
730,-27.0,1.0,57.0,1644851918.5,P09,D08,0,0,1
731,-27.0,1.0,57.0,1644851918.53125,P09,D08,0,0,1
732,-27.0,1.0,57.0,1644851918.5625,P09,D08,0,0,1
733,-27.0,1.0,57.0,1644851918.59375,P09,D08,0,0,1
734,-27.0,1.0,57.0,1644851918.625,P09,D08,0,0,1
735,-27.0,1.0,57.0,1644851918.65625,P09,D08,0,0,1
736,-27.0,1.0,57.0,1644851918.6875,P09,D08,0,0,1
737,-27.0,1.0,57.0,1644851918.71875,P09,D08,0,0,1
738,-27.0,1.0,57.0,1644851918.75,P09,D08,0,0,1
739,-28.0,1.0,57.0,1644851918.78125,P09,D08,0,0,1
740,-27.0,1.0,57.0,1644851918.8125,P09,D08,0,0,1
741,-27.0,1.0,57.0,1644851918.84375,P09,D08,0,0,1
742,-27.0,1.0,57.0,1644851918.875,P09,D08,0,0,1
743,-27.0,1.0,57.0,1644851918.90625,P09,D08,0,0,1
744,-27.0,1.0,57.0,1644851918.9375,P09,D08,0,0,1
745,-27.0,1.0,57.0,1644851918.96875,P09,D08,0,0,1
746,-27.0,1.0,57.0,1644851919.0,P09,D08,0,0,1
747,-27.0,1.0,57.0,1644851919.03125,P09,D08,0,0,1
748,-27.0,1.0,57.0,1644851919.0625,P09,D08,0,0,1
749,-27.0,1.0,57.0,1644851919.09375,P09,D08,0,0,1
750,-27.0,1.0,57.0,1644851919.125,P09,D08,0,0,1
751,-27.0,1.0,57.0,1644851919.15625,P09,D08,0,0,1
752,-27.0,1.0,57.0,1644851919.1875,P09,D08,0,0,1
753,-27.0,1.0,57.0,1644851919.21875,P09,D08,0,0,1
754,-27.0,1.0,57.0,1644851919.25,P09,D08,0,0,1
755,-27.0,1.0,57.0,1644851919.28125,P09,D08,0,0,1
756,-27.0,1.0,57.0,1644851919.3125,P09,D08,0,0,1
757,-27.0,1.0,57.0,1644851919.34375,P09,D08,0,0,1
758,-27.0,1.0,57.0,1644851919.375,P09,D08,0,0,1
759,-27.0,1.0,57.0,1644851919.40625,P09,D08,0,0,1
760,-27.0,1.0,57.0,1644851919.4375,P09,D08,0,0,1
761,-27.0,1.0,57.0,1644851919.46875,P09,D08,0,0,1
762,-27.0,1.0,57.0,1644851919.5,P09,D08,0,0,1
763,-27.0,1.0,57.0,1644851919.53125,P09,D08,0,0,1
764,-27.0,1.0,57.0,1644851919.5625,P09,D08,0,0,1
765,-27.0,1.0,57.0,1644851919.59375,P09,D08,0,0,1
766,-27.0,1.0,57.0,1644851919.625,P09,D08,0,0,1
767,-27.0,1.0,57.0,1644851919.65625,P09,D08,0,0,1
768,-27.0,1.0,57.0,1644851919.6875,P09,D08,0,0,1
769,-27.0,1.0,57.0,1644851919.71875,P09,D08,0,0,1
770,-27.0,1.0,57.0,1644851919.75,P09,D08,0,0,1
771,-27.0,1.0,57.0,1644851919.78125,P09,D08,0,0,1
772,-27.0,1.0,57.0,1644851919.8125,P09,D08,0,0,1
773,-27.0,1.0,57.0,1644851919.84375,P09,D08,0,0,1
774,-27.0,1.0,57.0,1644851919.875,P09,D08,0,0,1
775,-27.0,1.0,57.0,1644851919.90625,P09,D08,0,0,1
776,-27.0,1.0,57.0,1644851919.9375,P09,D08,0,0,1
777,-27.0,1.0,57.0,1644851919.96875,P09,D08,0,0,1
778,-27.0,1.0,57.0,1644851920.0,P09,D08,0,0,1
779,-27.0,1.0,57.0,1644851920.03125,P09,D08,0,0,1
780,-27.0,1.0,57.0,1644851920.0625,P09,D08,0,0,1
781,-27.0,1.0,57.0,1644851920.09375,P09,D08,0,0,1
782,-27.0,1.0,57.0,1644851920.125,P09,D08,0,0,1
783,-27.0,1.0,57.0,1644851920.15625,P09,D08,0,0,1
784,-27.0,1.0,57.0,1644851920.1875,P09,D08,0,0,1
785,-27.0,1.0,57.0,1644851920.21875,P09,D08,0,0,1
786,-27.0,1.0,57.0,1644851920.25,P09,D08,0,0,1
787,-27.0,1.0,57.0,1644851920.28125,P09,D08,0,0,1
788,-27.0,1.0,57.0,1644851920.3125,P09,D08,0,0,1
789,-27.0,1.0,57.0,1644851920.34375,P09,D08,0,0,1
790,-27.0,1.0,57.0,1644851920.375,P09,D08,0,0,1
791,-27.0,1.0,57.0,1644851920.40625,P09,D08,0,0,1
792,-27.0,1.0,57.0,1644851920.4375,P09,D08,0,0,1
793,-27.0,1.0,57.0,1644851920.46875,P09,D08,0,0,1
794,-27.0,1.0,57.0,1644851920.5,P09,D08,0,0,1
795,-27.0,1.0,57.0,1644851920.53125,P09,D08,0,0,1
796,-27.0,1.0,57.0,1644851920.5625,P09,D08,0,0,1
797,-27.0,1.0,57.0,1644851920.59375,P09,D08,0,0,1
798,-27.0,1.0,57.0,1644851920.625,P09,D08,0,0,1
799,-27.0,1.0,57.0,1644851920.65625,P09,D08,0,0,1
800,-27.0,1.0,57.0,1644851920.6875,P09,D08,0,0,1
801,-27.0,1.0,57.0,1644851920.71875,P09,D08,0,0,1
802,-27.0,1.0,57.0,1644851920.75,P09,D08,0,0,1
803,-27.0,1.0,57.0,1644851920.78125,P09,D08,0,0,1
804,-27.0,1.0,57.0,1644851920.8125,P09,D08,0,0,1
805,-27.0,1.0,57.0,1644851920.84375,P09,D08,0,0,1
806,-27.0,1.0,57.0,1644851920.875,P09,D08,0,0,1
807,-27.0,1.0,57.0,1644851920.90625,P09,D08,0,0,1
808,-27.0,1.0,57.0,1644851920.9375,P09,D08,0,0,1
809,-27.0,1.0,57.0,1644851920.96875,P09,D08,0,0,1
810,-27.0,1.0,57.0,1644851921.0,P09,D08,0,0,1
811,-27.0,1.0,57.0,1644851921.03125,P09,D08,0,0,1
812,-27.0,1.0,57.0,1644851921.0625,P09,D08,0,0,1
813,-27.0,1.0,57.0,1644851921.09375,P09,D08,0,0,1
814,-27.0,1.0,57.0,1644851921.125,P09,D08,0,0,1
815,-27.0,1.0,57.0,1644851921.15625,P09,D08,0,0,1
816,-27.0,1.0,57.0,1644851921.1875,P09,D08,0,0,1
817,-27.0,1.0,57.0,1644851921.21875,P09,D08,0,0,1
818,-27.0,1.0,57.0,1644851921.25,P09,D08,0,0,1
819,-27.0,1.0,57.0,1644851921.28125,P09,D08,0,0,1
820,-27.0,1.0,57.0,1644851921.3125,P09,D08,0,0,1
821,-27.0,1.0,57.0,1644851921.34375,P09,D08,0,0,1
822,-26.0,1.0,57.0,1644851921.375,P09,D08,0,0,1
823,-27.0,1.0,57.0,1644851921.40625,P09,D08,0,0,1
824,-27.0,1.0,57.0,1644851921.4375,P09,D08,0,0,1
825,-27.0,1.0,57.0,1644851921.46875,P09,D08,0,0,1
826,-27.0,1.0,57.0,1644851921.5,P09,D08,0,0,1
827,-27.0,1.0,57.0,1644851921.53125,P09,D08,0,0,1
828,-27.0,1.0,57.0,1644851921.5625,P09,D08,0,0,1
829,-27.0,1.0,57.0,1644851921.59375,P09,D08,0,0,1
830,-27.0,1.0,57.0,1644851921.625,P09,D08,0,0,1
831,-27.0,1.0,57.0,1644851921.65625,P09,D08,0,0,1
832,-27.0,1.0,57.0,1644851921.6875,P09,D08,0,0,1
833,-27.0,1.0,57.0,1644851921.71875,P09,D08,0,0,1
834,-27.0,1.0,57.0,1644851921.75,P09,D08,0,0,1
835,-27.0,1.0,57.0,1644851921.78125,P09,D08,0,0,1
836,-27.0,1.0,57.0,1644851921.8125,P09,D08,0,0,1
837,-27.0,1.0,57.0,1644851921.84375,P09,D08,0,0,1
838,-27.0,1.0,57.0,1644851921.875,P09,D08,0,0,1
839,-27.0,1.0,57.0,1644851921.90625,P09,D08,0,0,1
840,-27.0,1.0,57.0,1644851921.9375,P09,D08,0,0,1
841,-27.0,1.0,57.0,1644851921.96875,P09,D08,0,0,1
842,-27.0,1.0,57.0,1644851922.0,P09,D08,0,0,1
843,-27.0,1.0,57.0,1644851922.03125,P09,D08,0,0,1
844,-27.0,1.0,57.0,1644851922.0625,P09,D08,0,0,1
845,-27.0,1.0,57.0,1644851922.09375,P09,D08,0,0,1
846,-27.0,1.0,57.0,1644851922.125,P09,D08,0,0,1
847,-27.0,1.0,57.0,1644851922.15625,P09,D08,0,0,1
848,-27.0,1.0,57.0,1644851922.1875,P09,D08,0,0,1
849,-27.0,1.0,57.0,1644851922.21875,P09,D08,0,0,1
850,-27.0,1.0,57.0,1644851922.25,P09,D08,0,0,1
851,-27.0,1.0,57.0,1644851922.28125,P09,D08,0,0,1
852,-27.0,1.0,57.0,1644851922.3125,P09,D08,0,0,1
853,-27.0,1.0,57.0,1644851922.34375,P09,D08,0,0,1
854,-27.0,1.0,57.0,1644851922.375,P09,D08,0,0,1
855,-27.0,1.0,57.0,1644851922.40625,P09,D08,0,0,1
856,-27.0,1.0,57.0,1644851922.4375,P09,D08,0,0,1
857,-27.0,1.0,57.0,1644851922.46875,P09,D08,0,0,1
858,-27.0,1.0,57.0,1644851922.5,P09,D08,0,0,1
859,-27.0,1.0,57.0,1644851922.53125,P09,D08,0,0,1
860,-27.0,1.0,57.0,1644851922.5625,P09,D08,0,0,1
861,-27.0,1.0,57.0,1644851922.59375,P09,D08,0,0,1
862,-27.0,1.0,57.0,1644851922.625,P09,D08,0,0,1
863,-27.0,1.0,57.0,1644851922.65625,P09,D08,0,0,1
864,-27.0,1.0,57.0,1644851922.6875,P09,D08,0,0,1
865,-27.0,1.0,57.0,1644851922.71875,P09,D08,0,0,1
866,-27.0,1.0,57.0,1644851922.75,P09,D08,0,0,1
867,-27.0,1.0,57.0,1644851922.78125,P09,D08,0,0,1
868,-27.0,1.0,57.0,1644851922.8125,P09,D08,0,0,1
869,-27.0,1.0,57.0,1644851922.84375,P09,D08,0,0,1
870,-27.0,1.0,57.0,1644851922.875,P09,D08,0,0,1
871,-27.0,1.0,57.0,1644851922.90625,P09,D08,0,0,1
872,-27.0,1.0,57.0,1644851922.9375,P09,D08,0,0,1
873,-27.0,1.0,57.0,1644851922.96875,P09,D08,0,0,1
874,-27.0,1.0,57.0,1644851923.0,P09,D08,0,0,1
875,-27.0,1.0,57.0,1644851923.03125,P09,D08,0,0,1
876,-27.0,1.0,57.0,1644851923.0625,P09,D08,0,0,1
877,-27.0,1.0,57.0,1644851923.09375,P09,D08,0,0,1
878,-27.0,1.0,57.0,1644851923.125,P09,D08,0,0,1
879,-27.0,1.0,57.0,1644851923.15625,P09,D08,0,0,1
880,-27.0,1.0,57.0,1644851923.1875,P09,D08,0,0,1
881,-27.0,1.0,57.0,1644851923.21875,P09,D08,0,0,1
882,-27.0,1.0,57.0,1644851923.25,P09,D08,0,0,1
883,-27.0,1.0,57.0,1644851923.28125,P09,D08,0,0,1
884,-27.0,1.0,57.0,1644851923.3125,P09,D08,0,0,1
885,-27.0,1.0,57.0,1644851923.34375,P09,D08,0,0,1
886,-27.0,1.0,57.0,1644851923.375,P09,D08,0,0,1
887,-27.0,1.0,57.0,1644851923.40625,P09,D08,0,0,1
888,-27.0,1.0,57.0,1644851923.4375,P09,D08,0,0,1
889,-27.0,1.0,57.0,1644851923.46875,P09,D08,0,0,1
890,-27.0,1.0,57.0,1644851923.5,P09,D08,0,0,1
891,-27.0,1.0,57.0,1644851923.53125,P09,D08,0,0,1
892,-27.0,1.0,57.0,1644851923.5625,P09,D08,0,0,1
893,-27.0,1.0,57.0,1644851923.59375,P09,D08,0,0,1
894,-27.0,1.0,57.0,1644851923.625,P09,D08,0,0,1
895,-27.0,1.0,57.0,1644851923.65625,P09,D08,0,0,1
896,-27.0,1.0,57.0,1644851923.6875,P09,D08,0,0,1
897,-27.0,1.0,57.0,1644851923.71875,P09,D08,0,0,1
898,-27.0,1.0,57.0,1644851923.75,P09,D08,0,0,1
899,-27.0,1.0,57.0,1644851923.78125,P09,D08,0,0,1
900,-27.0,1.0,57.0,1644851923.8125,P09,D08,0,0,1
901,-27.0,1.0,57.0,1644851923.84375,P09,D08,0,0,1
902,-27.0,1.0,57.0,1644851923.875,P09,D08,0,0,1
903,-27.0,1.0,57.0,1644851923.90625,P09,D08,0,0,1
904,-26.0,1.0,57.0,1644851923.9375,P09,D08,0,0,1
905,-27.0,1.0,57.0,1644851923.96875,P09,D08,0,0,1
906,-27.0,1.0,57.0,1644851924.0,P09,D08,0,0,1
907,-27.0,1.0,57.0,1644851924.03125,P09,D08,0,0,1
908,-27.0,1.0,57.0,1644851924.0625,P09,D08,0,0,1
909,-27.0,1.0,57.0,1644851924.09375,P09,D08,0,0,1
910,-27.0,1.0,57.0,1644851924.125,P09,D08,0,0,1
911,-27.0,1.0,57.0,1644851924.15625,P09,D08,0,0,1
912,-27.0,1.0,57.0,1644851924.1875,P09,D08,0,0,1
913,-27.0,1.0,57.0,1644851924.21875,P09,D08,0,0,1
914,-27.0,1.0,57.0,1644851924.25,P09,D08,0,0,1
915,-27.0,1.0,57.0,1644851924.28125,P09,D08,0,0,1
916,-27.0,1.0,57.0,1644851924.3125,P09,D08,0,0,1
917,-26.0,1.0,58.0,1644851924.34375,P09,D08,0,0,1
918,-27.0,1.0,57.0,1644851924.375,P09,D08,0,0,1
919,-27.0,1.0,57.0,1644851924.40625,P09,D08,0,0,1
920,-27.0,1.0,58.0,1644851924.4375,P09,D08,0,0,1
921,-27.0,1.0,57.0,1644851924.46875,P09,D08,0,0,1
922,-27.0,1.0,57.0,1644851924.5,P09,D08,0,0,1
923,-27.0,1.0,57.0,1644851924.53125,P09,D08,0,0,1
924,-27.0,1.0,57.0,1644851924.5625,P09,D08,0,0,1
925,-27.0,1.0,57.0,1644851924.59375,P09,D08,0,0,1
926,-27.0,1.0,57.0,1644851924.625,P09,D08,0,0,1
927,-27.0,1.0,57.0,1644851924.65625,P09,D08,0,0,1
928,-27.0,1.0,57.0,1644851924.6875,P09,D08,0,0,1
929,-27.0,1.0,57.0,1644851924.71875,P09,D08,0,0,1
930,-27.0,1.0,57.0,1644851924.75,P09,D08,0,0,1
931,-27.0,1.0,57.0,1644851924.78125,P09,D08,0,0,1
932,-27.0,1.0,57.0,1644851924.8125,P09,D08,0,0,1
933,-27.0,1.0,57.0,1644851924.84375,P09,D08,0,0,1
934,-27.0,1.0,57.0,1644851924.875,P09,D08,0,0,1
935,-27.0,1.0,57.0,1644851924.90625,P09,D08,0,0,1
936,-27.0,1.0,57.0,1644851924.9375,P09,D08,0,0,1
937,-27.0,1.0,57.0,1644851924.96875,P09,D08,0,0,1
938,-27.0,1.0,57.0,1644851925.0,P09,D08,0,0,1
939,-27.0,1.0,57.0,1644851925.03125,P09,D08,0,0,1
940,-27.0,1.0,57.0,1644851925.0625,P09,D08,0,0,1
941,-27.0,1.0,57.0,1644851925.09375,P09,D08,0,0,1
942,-27.0,1.0,57.0,1644851925.125,P09,D08,0,0,1
943,-27.0,1.0,57.0,1644851925.15625,P09,D08,0,0,1
944,-27.0,1.0,57.0,1644851925.1875,P09,D08,0,0,1
945,-27.0,1.0,57.0,1644851925.21875,P09,D08,0,0,1
946,-27.0,1.0,57.0,1644851925.25,P09,D08,0,0,1
947,-27.0,1.0,57.0,1644851925.28125,P09,D08,0,0,1
948,-27.0,1.0,57.0,1644851925.3125,P09,D08,0,0,1
949,-27.0,1.0,57.0,1644851925.34375,P09,D08,0,0,1
950,-27.0,1.0,57.0,1644851925.375,P09,D08,0,0,1
951,-27.0,1.0,57.0,1644851925.40625,P09,D08,0,0,1
952,-27.0,1.0,57.0,1644851925.4375,P09,D08,0,0,1
953,-27.0,1.0,57.0,1644851925.46875,P09,D08,0,0,1
954,-27.0,1.0,57.0,1644851925.5,P09,D08,0,0,1
955,-27.0,1.0,57.0,1644851925.53125,P09,D08,0,0,1
956,-27.0,1.0,57.0,1644851925.5625,P09,D08,0,0,1
957,-27.0,1.0,57.0,1644851925.59375,P09,D08,0,0,1
958,-26.0,1.0,57.0,1644851925.625,P09,D08,0,0,1
959,-26.0,1.0,57.0,1644851925.65625,P09,D08,0,0,1
960,-30.0,1.0,57.0,1644851925.6875,P09,D08,0,0,1
961,-28.0,1.0,57.0,1644851925.71875,P09,D08,0,0,1
962,-28.0,1.0,57.0,1644851925.75,P09,D08,0,0,1
963,-28.0,1.0,57.0,1644851925.78125,P09,D08,0,0,1
964,-28.0,1.0,57.0,1644851925.8125,P09,D08,0,0,1
965,-27.0,1.0,57.0,1644851925.84375,P09,D08,0,0,1
966,-27.0,1.0,57.0,1644851925.875,P09,D08,0,0,1
967,-27.0,1.0,57.0,1644851925.90625,P09,D08,0,0,1
968,-28.0,1.0,57.0,1644851925.9375,P09,D08,0,0,1
969,-27.0,1.0,57.0,1644851925.96875,P09,D08,0,0,1
970,-27.0,1.0,57.0,1644851926.0,P09,D08,0,0,1
971,-27.0,1.0,57.0,1644851926.03125,P09,D08,0,0,1
972,-27.0,1.0,57.0,1644851926.0625,P09,D08,0,0,1
973,-28.0,1.0,57.0,1644851926.09375,P09,D08,0,0,1
974,-27.0,1.0,57.0,1644851926.125,P09,D08,0,0,1
975,-27.0,1.0,57.0,1644851926.15625,P09,D08,0,0,1
976,-27.0,1.0,57.0,1644851926.1875,P09,D08,0,0,1
977,-27.0,1.0,57.0,1644851926.21875,P09,D08,0,0,1
978,-27.0,1.0,57.0,1644851926.25,P09,D08,0,0,1
979,-27.0,1.0,57.0,1644851926.28125,P09,D08,0,0,1
980,-28.0,1.0,57.0,1644851926.3125,P09,D08,0,0,1
981,-27.0,1.0,57.0,1644851926.34375,P09,D08,0,0,1
982,-27.0,1.0,57.0,1644851926.375,P09,D08,0,0,1
983,-27.0,1.0,57.0,1644851926.40625,P09,D08,0,0,1
984,-27.0,1.0,57.0,1644851926.4375,P09,D08,0,0,1
985,-27.0,1.0,57.0,1644851926.46875,P09,D08,0,0,1
986,-27.0,1.0,57.0,1644851926.5,P09,D08,0,0,1
987,-27.0,1.0,57.0,1644851926.53125,P09,D08,0,0,1
988,-27.0,1.0,57.0,1644851926.5625,P09,D08,0,0,1
989,-27.0,1.0,57.0,1644851926.59375,P09,D08,0,0,1
990,-27.0,1.0,57.0,1644851926.625,P09,D08,0,0,1
991,-27.0,1.0,57.0,1644851926.65625,P09,D08,0,0,1
992,-28.0,1.0,57.0,1644851926.6875,P09,D08,0,0,1
993,-27.0,1.0,57.0,1644851926.71875,P09,D08,0,0,1
994,-27.0,1.0,57.0,1644851926.75,P09,D08,0,0,1
995,-27.0,1.0,57.0,1644851926.78125,P09,D08,0,0,1
996,-27.0,1.0,57.0,1644851926.8125,P09,D08,0,0,1
997,-27.0,1.0,57.0,1644851926.84375,P09,D08,0,0,1
998,-27.0,1.0,57.0,1644851926.875,P09,D08,0,0,1
999,-27.0,1.0,57.0,1644851926.90625,P09,D08,0,0,1
1000,-27.0,1.0,57.0,1644851926.9375,P09,D08,0,0,1
1001,-27.0,1.0,57.0,1644851926.96875,P09,D08,0,0,1
1002,-27.0,1.0,57.0,1644851927.0,P09,D08,0,0,1
1003,-27.0,1.0,57.0,1644851927.03125,P09,D08,0,0,1
1004,-27.0,1.0,57.0,1644851927.0625,P09,D08,0,0,1
1005,-27.0,1.0,57.0,1644851927.09375,P09,D08,0,0,1
1006,-27.0,1.0,57.0,1644851927.125,P09,D08,0,0,1
1007,-27.0,1.0,57.0,1644851927.15625,P09,D08,0,0,1
1008,-27.0,1.0,57.0,1644851927.1875,P09,D08,0,0,1
1009,-27.0,1.0,57.0,1644851927.21875,P09,D08,0,0,1
1010,-27.0,1.0,57.0,1644851927.25,P09,D08,0,0,1
1011,-27.0,1.0,57.0,1644851927.28125,P09,D08,0,0,1
1012,-27.0,1.0,57.0,1644851927.3125,P09,D08,0,0,1
1013,-27.0,1.0,57.0,1644851927.34375,P09,D08,0,0,1
1014,-27.0,1.0,57.0,1644851927.375,P09,D08,0,0,1
1015,-27.0,1.0,57.0,1644851927.40625,P09,D08,0,0,1
1016,-27.0,1.0,57.0,1644851927.4375,P09,D08,0,0,1
1017,-27.0,1.0,57.0,1644851927.46875,P09,D08,0,0,1
1018,-27.0,1.0,57.0,1644851927.5,P09,D08,0,0,1
1019,-27.0,1.0,57.0,1644851927.53125,P09,D08,0,0,1
1020,-27.0,1.0,57.0,1644851927.5625,P09,D08,0,0,1
1021,-27.0,1.0,57.0,1644851927.59375,P09,D08,0,0,1
1022,-27.0,1.0,57.0,1644851927.625,P09,D08,0,0,1
1023,-27.0,1.0,57.0,1644851927.65625,P09,D08,0,0,1
1024,-27.0,1.0,57.0,1644851927.6875,P09,D08,0,0,1
1025,-27.0,1.0,57.0,1644851927.71875,P09,D08,0,0,1
1026,-27.0,1.0,57.0,1644851927.75,P09,D08,0,0,1
1027,-27.0,1.0,57.0,1644851927.78125,P09,D08,0,0,1
1028,-27.0,1.0,57.0,1644851927.8125,P09,D08,0,0,1
1029,-27.0,1.0,57.0,1644851927.84375,P09,D08,0,0,1
1030,-27.0,1.0,57.0,1644851927.875,P09,D08,0,0,1
1031,-27.0,1.0,57.0,1644851927.90625,P09,D08,0,0,1
1032,-27.0,1.0,57.0,1644851927.9375,P09,D08,0,0,1
1033,-27.0,1.0,57.0,1644851927.96875,P09,D08,0,0,1
1034,-27.0,1.0,57.0,1644851928.0,P09,D08,0,0,1
1035,-27.0,1.0,57.0,1644851928.03125,P09,D08,0,0,1
1036,-27.0,1.0,57.0,1644851928.0625,P09,D08,0,0,1
1037,-27.0,1.0,57.0,1644851928.09375,P09,D08,0,0,1
1038,-27.0,1.0,57.0,1644851928.125,P09,D08,0,0,1
1039,-27.0,1.0,57.0,1644851928.15625,P09,D08,0,0,1
1040,-27.0,1.0,57.0,1644851928.1875,P09,D08,0,0,1
1041,-27.0,1.0,57.0,1644851928.21875,P09,D08,0,0,1
1042,-27.0,1.0,57.0,1644851928.25,P09,D08,0,0,1
1043,-27.0,1.0,57.0,1644851928.28125,P09,D08,0,0,1
1044,-27.0,1.0,57.0,1644851928.3125,P09,D08,0,0,1
1045,-27.0,1.0,57.0,1644851928.34375,P09,D08,0,0,1
1046,-27.0,1.0,57.0,1644851928.375,P09,D08,0,0,1
1047,-27.0,1.0,57.0,1644851928.40625,P09,D08,0,0,1
1048,-27.0,1.0,57.0,1644851928.4375,P09,D08,0,0,1
1049,-27.0,1.0,57.0,1644851928.46875,P09,D08,0,0,1
1050,-27.0,1.0,57.0,1644851928.5,P09,D08,0,0,1
1051,-27.0,1.0,57.0,1644851928.53125,P09,D08,0,0,1
1052,-27.0,1.0,57.0,1644851928.5625,P09,D08,0,0,1
1053,-27.0,1.0,57.0,1644851928.59375,P09,D08,0,0,1
1054,-27.0,1.0,57.0,1644851928.625,P09,D08,0,0,1
1055,-27.0,1.0,57.0,1644851928.65625,P09,D08,0,0,1
1056,-27.0,1.0,57.0,1644851928.6875,P09,D08,0,0,1
1057,-27.0,1.0,57.0,1644851928.71875,P09,D08,0,0,1
1058,-27.0,1.0,57.0,1644851928.75,P09,D08,0,0,1
1059,-27.0,1.0,57.0,1644851928.78125,P09,D08,0,0,1
1060,-27.0,1.0,57.0,1644851928.8125,P09,D08,0,0,1
1061,-27.0,1.0,57.0,1644851928.84375,P09,D08,0,0,1
1062,-27.0,1.0,57.0,1644851928.875,P09,D08,0,0,1
1063,-27.0,1.0,57.0,1644851928.90625,P09,D08,0,0,1
1064,-27.0,1.0,57.0,1644851928.9375,P09,D08,0,0,1
1065,-27.0,1.0,57.0,1644851928.96875,P09,D08,0,0,1
1066,-27.0,1.0,57.0,1644851929.0,P09,D08,0,0,1
1067,-27.0,1.0,57.0,1644851929.03125,P09,D08,0,0,1
1068,-27.0,1.0,57.0,1644851929.0625,P09,D08,0,0,1
1069,-27.0,1.0,57.0,1644851929.09375,P09,D08,0,0,1
1070,-27.0,1.0,57.0,1644851929.125,P09,D08,0,0,1
1071,-27.0,1.0,57.0,1644851929.15625,P09,D08,0,0,1
1072,-27.0,1.0,57.0,1644851929.1875,P09,D08,0,0,1
1073,-27.0,1.0,57.0,1644851929.21875,P09,D08,0,0,1
1074,-27.0,1.0,57.0,1644851929.25,P09,D08,0,0,1
1075,-27.0,1.0,57.0,1644851929.28125,P09,D08,0,0,1
1076,-27.0,1.0,57.0,1644851929.3125,P09,D08,0,0,1
1077,-27.0,1.0,57.0,1644851929.34375,P09,D08,0,0,1
1078,-27.0,1.0,57.0,1644851929.375,P09,D08,0,0,1
1079,-27.0,1.0,57.0,1644851929.40625,P09,D08,0,0,1
1080,-27.0,1.0,57.0,1644851929.4375,P09,D08,0,0,1
1081,-27.0,1.0,57.0,1644851929.46875,P09,D08,0,0,1
1082,-27.0,1.0,57.0,1644851929.5,P09,D08,0,0,1
1083,-27.0,1.0,57.0,1644851929.53125,P09,D08,0,0,1
1084,-27.0,1.0,57.0,1644851929.5625,P09,D08,0,0,1
1085,-28.0,1.0,57.0,1644851929.59375,P09,D08,0,0,1
1086,-27.0,1.0,57.0,1644851929.625,P09,D08,0,0,1
1087,-27.0,1.0,57.0,1644851929.65625,P09,D08,0,0,1
1088,-27.0,1.0,57.0,1644851929.6875,P09,D08,0,0,1
1089,-27.0,1.0,57.0,1644851929.71875,P09,D08,0,0,1
1090,-27.0,1.0,57.0,1644851929.75,P09,D08,0,0,1
1091,-27.0,1.0,57.0,1644851929.78125,P09,D08,0,0,1
1092,-27.0,1.0,57.0,1644851929.8125,P09,D08,0,0,1
1093,-27.0,1.0,57.0,1644851929.84375,P09,D08,0,0,1
1094,-27.0,1.0,57.0,1644851929.875,P09,D08,0,0,1
1095,-27.0,1.0,57.0,1644851929.90625,P09,D08,0,0,1
1096,-27.0,1.0,57.0,1644851929.9375,P09,D08,0,0,1
1097,-27.0,1.0,57.0,1644851929.96875,P09,D08,0,0,1
1098,-27.0,1.0,57.0,1644851930.0,P09,D08,0,0,1
1099,-27.0,1.0,57.0,1644851930.03125,P09,D08,0,0,1
1100,-27.0,1.0,57.0,1644851930.0625,P09,D08,0,0,1
1101,-27.0,1.0,57.0,1644851930.09375,P09,D08,0,0,1
1102,-27.0,1.0,57.0,1644851930.125,P09,D08,0,0,1
1103,-27.0,1.0,57.0,1644851930.15625,P09,D08,0,0,1
1104,-27.0,1.0,57.0,1644851930.1875,P09,D08,0,0,1
1105,-27.0,1.0,57.0,1644851930.21875,P09,D08,0,0,1
1106,-27.0,1.0,57.0,1644851930.25,P09,D08,0,0,1
1107,-27.0,1.0,57.0,1644851930.28125,P09,D08,0,0,1
1108,-27.0,1.0,57.0,1644851930.3125,P09,D08,0,0,1
1109,-27.0,1.0,57.0,1644851930.34375,P09,D08,0,0,1
1110,-27.0,1.0,57.0,1644851930.375,P09,D08,0,0,1
1111,-27.0,1.0,57.0,1644851930.40625,P09,D08,0,0,1
1112,-27.0,1.0,57.0,1644851930.4375,P09,D08,0,0,1
1113,-27.0,1.0,57.0,1644851930.46875,P09,D08,0,0,1
1114,-27.0,1.0,57.0,1644851930.5,P09,D08,0,0,1
1115,-27.0,1.0,57.0,1644851930.53125,P09,D08,0,0,1
1116,-27.0,1.0,57.0,1644851930.5625,P09,D08,0,0,1
1117,-27.0,1.0,57.0,1644851930.59375,P09,D08,0,0,1
1118,-27.0,1.0,57.0,1644851930.625,P09,D08,0,0,1
1119,-27.0,1.0,57.0,1644851930.65625,P09,D08,0,0,1
1120,-27.0,1.0,57.0,1644851930.6875,P09,D08,0,0,1
1121,-27.0,1.0,57.0,1644851930.71875,P09,D08,0,0,1
1122,-27.0,1.0,57.0,1644851930.75,P09,D08,0,0,1
1123,-27.0,1.0,57.0,1644851930.78125,P09,D08,0,0,1
1124,-27.0,1.0,57.0,1644851930.8125,P09,D08,0,0,1
1125,-27.0,1.0,57.0,1644851930.84375,P09,D08,0,0,1
1126,-27.0,1.0,57.0,1644851930.875,P09,D08,0,0,1
1127,-27.0,1.0,57.0,1644851930.90625,P09,D08,0,0,1
1128,-27.0,1.0,57.0,1644851930.9375,P09,D08,0,0,1
1129,-27.0,1.0,57.0,1644851930.96875,P09,D08,0,0,1
1130,-27.0,1.0,57.0,1644851931.0,P09,D08,0,0,1
1131,-27.0,1.0,57.0,1644851931.03125,P09,D08,0,0,1
1132,-27.0,1.0,57.0,1644851931.0625,P09,D08,0,0,1
1133,-27.0,1.0,57.0,1644851931.09375,P09,D08,0,0,1
1134,-27.0,1.0,57.0,1644851931.125,P09,D08,0,0,1
1135,-27.0,1.0,57.0,1644851931.15625,P09,D08,0,0,1
1136,-27.0,1.0,57.0,1644851931.1875,P09,D08,0,0,1
1137,-27.0,1.0,57.0,1644851931.21875,P09,D08,0,0,1
1138,-27.0,1.0,57.0,1644851931.25,P09,D08,0,0,1
1139,-27.0,1.0,57.0,1644851931.28125,P09,D08,0,0,1
1140,-27.0,1.0,57.0,1644851931.3125,P09,D08,0,0,1
1141,-27.0,1.0,57.0,1644851931.34375,P09,D08,0,0,1
1142,-27.0,1.0,57.0,1644851931.375,P09,D08,0,0,1
1143,-27.0,1.0,57.0,1644851931.40625,P09,D08,0,0,1
1144,-27.0,1.0,57.0,1644851931.4375,P09,D08,0,0,1
1145,-27.0,1.0,57.0,1644851931.46875,P09,D08,0,0,1
1146,-27.0,1.0,57.0,1644851931.5,P09,D08,0,0,1
1147,-27.0,1.0,57.0,1644851931.53125,P09,D08,0,0,1
1148,-27.0,1.0,57.0,1644851931.5625,P09,D08,0,0,1
1149,-27.0,1.0,57.0,1644851931.59375,P09,D08,0,0,1
1150,-27.0,1.0,57.0,1644851931.625,P09,D08,0,0,1
1151,-27.0,1.0,57.0,1644851931.65625,P09,D08,0,0,1
1152,-27.0,1.0,57.0,1644851931.6875,P09,D08,0,0,1
1153,-27.0,1.0,57.0,1644851931.71875,P09,D08,0,0,1
1154,-27.0,1.0,57.0,1644851931.75,P09,D08,0,0,1
1155,-27.0,1.0,57.0,1644851931.78125,P09,D08,0,0,1
1156,-27.0,1.0,57.0,1644851931.8125,P09,D08,0,0,1
1157,-27.0,1.0,57.0,1644851931.84375,P09,D08,0,0,1
1158,-27.0,1.0,57.0,1644851931.875,P09,D08,0,0,1
1159,-27.0,1.0,57.0,1644851931.90625,P09,D08,0,0,1
1160,-27.0,1.0,57.0,1644851931.9375,P09,D08,0,0,1
1161,-27.0,1.0,57.0,1644851931.96875,P09,D08,0,0,1
1162,-27.0,1.0,57.0,1644851932.0,P09,D08,0,0,1
1163,-27.0,1.0,57.0,1644851932.03125,P09,D08,0,0,1
1164,-27.0,1.0,57.0,1644851932.0625,P09,D08,0,0,1
1165,-27.0,1.0,57.0,1644851932.09375,P09,D08,0,0,1
1166,-27.0,1.0,57.0,1644851932.125,P09,D08,0,0,1
1167,-27.0,1.0,57.0,1644851932.15625,P09,D08,0,0,1
1168,-27.0,1.0,57.0,1644851932.1875,P09,D08,0,0,1
1169,-27.0,1.0,57.0,1644851932.21875,P09,D08,0,0,1
1170,-27.0,1.0,57.0,1644851932.25,P09,D08,0,0,1
1171,-27.0,1.0,57.0,1644851932.28125,P09,D08,0,0,1
1172,-27.0,1.0,57.0,1644851932.3125,P09,D08,0,0,1
1173,-27.0,1.0,57.0,1644851932.34375,P09,D08,0,0,1
1174,-27.0,1.0,57.0,1644851932.375,P09,D08,0,0,1
1175,-27.0,1.0,57.0,1644851932.40625,P09,D08,0,0,1
1176,-27.0,1.0,57.0,1644851932.4375,P09,D08,0,0,1
1177,-27.0,1.0,57.0,1644851932.46875,P09,D08,0,0,1
1178,-27.0,1.0,57.0,1644851932.5,P09,D08,0,0,1
1179,-27.0,1.0,57.0,1644851932.53125,P09,D08,0,0,1
1180,-27.0,1.0,57.0,1644851932.5625,P09,D08,0,0,1
1181,-27.0,1.0,57.0,1644851932.59375,P09,D08,0,0,1
1182,-27.0,1.0,57.0,1644851932.625,P09,D08,0,0,1
1183,-27.0,1.0,57.0,1644851932.65625,P09,D08,0,0,1
1184,-27.0,1.0,57.0,1644851932.6875,P09,D08,0,0,1
1185,-27.0,1.0,57.0,1644851932.71875,P09,D08,0,0,1
1186,-27.0,1.0,57.0,1644851932.75,P09,D08,0,0,1
1187,-27.0,1.0,57.0,1644851932.78125,P09,D08,0,0,1
1188,-27.0,1.0,57.0,1644851932.8125,P09,D08,0,0,1
1189,-27.0,1.0,57.0,1644851932.84375,P09,D08,0,0,1
1190,-27.0,1.0,57.0,1644851932.875,P09,D08,0,0,1
1191,-27.0,1.0,57.0,1644851932.90625,P09,D08,0,0,1
1192,-27.0,1.0,57.0,1644851932.9375,P09,D08,0,0,1
1193,-28.0,1.0,57.0,1644851932.96875,P09,D08,0,0,1
1194,-27.0,1.0,57.0,1644851933.0,P09,D08,0,0,1
1195,-27.0,1.0,57.0,1644851933.03125,P09,D08,0,0,1
1196,-27.0,1.0,57.0,1644851933.0625,P09,D08,0,0,1
1197,-28.0,1.0,57.0,1644851933.09375,P09,D08,0,0,1
1198,-27.0,1.0,57.0,1644851933.125,P09,D08,0,0,1
1199,-27.0,1.0,57.0,1644851933.15625,P09,D08,0,0,1
1200,-27.0,1.0,57.0,1644851933.1875,P09,D08,0,0,1
1201,-27.0,1.0,57.0,1644851933.21875,P09,D08,0,0,1
1202,-27.0,1.0,57.0,1644851933.25,P09,D08,0,0,1
1203,-27.0,1.0,57.0,1644851933.28125,P09,D08,0,0,1
1204,-27.0,1.0,57.0,1644851933.3125,P09,D08,0,0,1
1205,-27.0,1.0,57.0,1644851933.34375,P09,D08,0,0,1
1206,-27.0,1.0,57.0,1644851933.375,P09,D08,0,0,1
1207,-27.0,1.0,57.0,1644851933.40625,P09,D08,0,0,1
1208,-27.0,1.0,57.0,1644851933.4375,P09,D08,0,0,1
1209,-27.0,1.0,57.0,1644851933.46875,P09,D08,0,0,1
1210,-27.0,1.0,57.0,1644851933.5,P09,D08,0,0,1
1211,-27.0,1.0,57.0,1644851933.53125,P09,D08,0,0,1
1212,-28.0,1.0,57.0,1644851933.5625,P09,D08,0,0,1
1213,-27.0,1.0,57.0,1644851933.59375,P09,D08,0,0,1
1214,-27.0,1.0,57.0,1644851933.625,P09,D08,0,0,1
1215,-27.0,1.0,57.0,1644851933.65625,P09,D08,0,0,1
1216,-27.0,1.0,57.0,1644851933.6875,P09,D08,0,0,1
1217,-27.0,1.0,57.0,1644851933.71875,P09,D08,0,0,1
1218,-27.0,1.0,57.0,1644851933.75,P09,D08,0,0,1
1219,-27.0,1.0,57.0,1644851933.78125,P09,D08,0,0,1
1220,-27.0,1.0,57.0,1644851933.8125,P09,D08,0,0,1
1221,-27.0,1.0,57.0,1644851933.84375,P09,D08,0,0,1
1222,-27.0,1.0,57.0,1644851933.875,P09,D08,0,0,1
1223,-27.0,1.0,57.0,1644851933.90625,P09,D08,0,0,1
1224,-27.0,1.0,57.0,1644851933.9375,P09,D08,0,0,1
1225,-27.0,1.0,57.0,1644851933.96875,P09,D08,0,0,1
1226,-27.0,1.0,57.0,1644851934.0,P09,D08,0,0,1
1227,-27.0,1.0,57.0,1644851934.03125,P09,D08,0,0,1
1228,-27.0,1.0,57.0,1644851934.0625,P09,D08,0,0,1
1229,-27.0,1.0,57.0,1644851934.09375,P09,D08,0,0,1
1230,-27.0,1.0,57.0,1644851934.125,P09,D08,0,0,1
1231,-27.0,1.0,57.0,1644851934.15625,P09,D08,0,0,1
1232,-27.0,1.0,57.0,1644851934.1875,P09,D08,0,0,1
1233,-27.0,1.0,57.0,1644851934.21875,P09,D08,0,0,1
1234,-27.0,1.0,57.0,1644851934.25,P09,D08,0,0,1
1235,-27.0,1.0,57.0,1644851934.28125,P09,D08,0,0,1
1236,-27.0,1.0,57.0,1644851934.3125,P09,D08,0,0,1
1237,-27.0,1.0,57.0,1644851934.34375,P09,D08,0,0,1
1238,-27.0,1.0,57.0,1644851934.375,P09,D08,0,0,1
1239,-27.0,1.0,57.0,1644851934.40625,P09,D08,0,0,1
1240,-27.0,1.0,57.0,1644851934.4375,P09,D08,0,0,1
1241,-27.0,1.0,57.0,1644851934.46875,P09,D08,0,0,1
1242,-27.0,1.0,57.0,1644851934.5,P09,D08,0,0,1
1243,-27.0,1.0,57.0,1644851934.53125,P09,D08,0,0,1
1244,-27.0,1.0,57.0,1644851934.5625,P09,D08,0,0,1
1245,-27.0,1.0,57.0,1644851934.59375,P09,D08,0,0,1
1246,-27.0,1.0,57.0,1644851934.625,P09,D08,0,0,1
1247,-27.0,1.0,57.0,1644851934.65625,P09,D08,0,0,1
1248,-27.0,1.0,57.0,1644851934.6875,P09,D08,0,0,1
1249,-27.0,1.0,57.0,1644851934.71875,P09,D08,0,0,1
1250,-27.0,1.0,57.0,1644851934.75,P09,D08,0,0,1
1251,-27.0,1.0,57.0,1644851934.78125,P09,D08,0,0,1
1252,-27.0,1.0,57.0,1644851934.8125,P09,D08,0,0,1
1253,-27.0,1.0,57.0,1644851934.84375,P09,D08,0,0,1
1254,-27.0,1.0,57.0,1644851934.875,P09,D08,0,0,1
1255,-27.0,1.0,57.0,1644851934.90625,P09,D08,0,0,1
1256,-27.0,1.0,57.0,1644851934.9375,P09,D08,0,0,1
1257,-27.0,1.0,57.0,1644851934.96875,P09,D08,0,0,1
1258,-27.0,1.0,57.0,1644851935.0,P09,D08,0,0,1
1259,-27.0,1.0,57.0,1644851935.03125,P09,D08,0,0,1
1260,-27.0,1.0,57.0,1644851935.0625,P09,D08,0,0,1
1261,-27.0,1.0,57.0,1644851935.09375,P09,D08,0,0,1
1262,-27.0,1.0,57.0,1644851935.125,P09,D08,0,0,1
1263,-27.0,1.0,57.0,1644851935.15625,P09,D08,0,0,1
1264,-27.0,1.0,57.0,1644851935.1875,P09,D08,0,0,1
1265,-27.0,1.0,57.0,1644851935.21875,P09,D08,0,0,1
1266,-27.0,1.0,57.0,1644851935.25,P09,D08,0,0,1
1267,-27.0,1.0,57.0,1644851935.28125,P09,D08,0,0,1
1268,-27.0,1.0,57.0,1644851935.3125,P09,D08,0,0,1
1269,-27.0,1.0,57.0,1644851935.34375,P09,D08,0,0,1
1270,-27.0,1.0,57.0,1644851935.375,P09,D08,0,0,1
1271,-27.0,1.0,57.0,1644851935.40625,P09,D08,0,0,1
1272,-27.0,1.0,57.0,1644851935.4375,P09,D08,0,0,1
1273,-27.0,1.0,57.0,1644851935.46875,P09,D08,0,0,1
1274,-27.0,1.0,57.0,1644851935.5,P09,D08,0,0,1
1275,-27.0,1.0,57.0,1644851935.53125,P09,D08,0,0,1
1276,-27.0,1.0,57.0,1644851935.5625,P09,D08,0,0,1
1277,-27.0,1.0,57.0,1644851935.59375,P09,D08,0,0,1
1278,-27.0,1.0,57.0,1644851935.625,P09,D08,0,0,1
1279,-27.0,1.0,57.0,1644851935.65625,P09,D08,0,0,1
1280,-27.0,1.0,57.0,1644851935.6875,P09,D08,0,0,1
1281,-27.0,1.0,57.0,1644851935.71875,P09,D08,0,0,1
1282,-27.0,1.0,57.0,1644851935.75,P09,D08,0,0,1
1283,-27.0,1.0,57.0,1644851935.78125,P09,D08,0,0,1
1284,-27.0,1.0,57.0,1644851935.8125,P09,D08,0,0,1
1285,-27.0,1.0,57.0,1644851935.84375,P09,D08,0,0,1
1286,-27.0,1.0,57.0,1644851935.875,P09,D08,0,0,1
1287,-27.0,1.0,57.0,1644851935.90625,P09,D08,0,0,1
1288,-27.0,1.0,57.0,1644851935.9375,P09,D08,0,0,1
1289,-27.0,1.0,57.0,1644851935.96875,P09,D08,0,0,1
1290,-27.0,1.0,57.0,1644851936.0,P09,D08,0,0,1
1291,-27.0,1.0,57.0,1644851936.03125,P09,D08,0,0,1
1292,-27.0,1.0,57.0,1644851936.0625,P09,D08,0,0,1
1293,-27.0,1.0,57.0,1644851936.09375,P09,D08,0,0,1
1294,-27.0,1.0,57.0,1644851936.125,P09,D08,0,0,1
1295,-27.0,1.0,57.0,1644851936.15625,P09,D08,0,0,1
1296,-27.0,1.0,57.0,1644851936.1875,P09,D08,0,0,1
1297,-27.0,1.0,57.0,1644851936.21875,P09,D08,0,0,1
1298,-27.0,1.0,57.0,1644851936.25,P09,D08,0,0,1
1299,-28.0,1.0,57.0,1644851936.28125,P09,D08,0,0,1
1300,-27.0,1.0,57.0,1644851936.3125,P09,D08,0,0,1
1301,-27.0,1.0,57.0,1644851936.34375,P09,D08,0,0,1
1302,-27.0,1.0,57.0,1644851936.375,P09,D08,0,0,1
1303,-27.0,1.0,57.0,1644851936.40625,P09,D08,0,0,1
1304,-27.0,1.0,57.0,1644851936.4375,P09,D08,0,0,1
1305,-27.0,1.0,57.0,1644851936.46875,P09,D08,0,0,1
1306,-27.0,1.0,57.0,1644851936.5,P09,D08,0,0,1
1307,-27.0,1.0,57.0,1644851936.53125,P09,D08,0,0,1
1308,-27.0,1.0,57.0,1644851936.5625,P09,D08,0,0,1
1309,-27.0,1.0,57.0,1644851936.59375,P09,D08,0,0,1
1310,-27.0,1.0,57.0,1644851936.625,P09,D08,0,0,1
1311,-27.0,1.0,57.0,1644851936.65625,P09,D08,0,0,1
1312,-27.0,1.0,57.0,1644851936.6875,P09,D08,0,0,1
1313,-27.0,1.0,57.0,1644851936.71875,P09,D08,0,0,1
1314,-27.0,1.0,57.0,1644851936.75,P09,D08,0,0,1
1315,-27.0,1.0,57.0,1644851936.78125,P09,D08,0,0,1
1316,-27.0,1.0,57.0,1644851936.8125,P09,D08,0,0,1
1317,-27.0,1.0,57.0,1644851936.84375,P09,D08,0,0,1
1318,-27.0,1.0,57.0,1644851936.875,P09,D08,0,0,1
1319,-27.0,1.0,57.0,1644851936.90625,P09,D08,0,0,1
1320,-27.0,1.0,57.0,1644851936.9375,P09,D08,0,0,1
1321,-27.0,1.0,57.0,1644851936.96875,P09,D08,0,0,1
1322,-27.0,1.0,57.0,1644851937.0,P09,D08,0,0,1
1323,-27.0,1.0,57.0,1644851937.03125,P09,D08,0,0,1
1324,-27.0,1.0,57.0,1644851937.0625,P09,D08,0,0,1
1325,-27.0,1.0,57.0,1644851937.09375,P09,D08,0,0,1
1326,-27.0,1.0,57.0,1644851937.125,P09,D08,0,0,1
1327,-27.0,1.0,57.0,1644851937.15625,P09,D08,0,0,1
1328,-27.0,1.0,57.0,1644851937.1875,P09,D08,0,0,1
1329,-27.0,1.0,57.0,1644851937.21875,P09,D08,0,0,1
1330,-27.0,1.0,57.0,1644851937.25,P09,D08,0,0,1
1331,-27.0,1.0,57.0,1644851937.28125,P09,D08,0,0,1
1332,-27.0,1.0,57.0,1644851937.3125,P09,D08,0,0,1
1333,-27.0,1.0,57.0,1644851937.34375,P09,D08,0,0,1
1334,-27.0,1.0,57.0,1644851937.375,P09,D08,0,0,1
1335,-27.0,1.0,57.0,1644851937.40625,P09,D08,0,0,1
1336,-27.0,1.0,57.0,1644851937.4375,P09,D08,0,0,1
1337,-27.0,1.0,57.0,1644851937.46875,P09,D08,0,0,1
1338,-27.0,1.0,57.0,1644851937.5,P09,D08,0,0,1
1339,-27.0,1.0,57.0,1644851937.53125,P09,D08,0,0,1
1340,-27.0,1.0,57.0,1644851937.5625,P09,D08,0,0,1
1341,-27.0,1.0,57.0,1644851937.59375,P09,D08,0,0,1
1342,-27.0,1.0,57.0,1644851937.625,P09,D08,0,0,1
1343,-27.0,1.0,57.0,1644851937.65625,P09,D08,0,0,1
1344,-27.0,1.0,57.0,1644851937.6875,P09,D08,0,0,1
1345,-27.0,1.0,57.0,1644851937.71875,P09,D08,0,0,1
1346,-27.0,1.0,57.0,1644851937.75,P09,D08,0,0,1
1347,-27.0,1.0,57.0,1644851937.78125,P09,D08,0,0,1
1348,-27.0,1.0,57.0,1644851937.8125,P09,D08,0,0,1
1349,-27.0,1.0,57.0,1644851937.84375,P09,D08,0,0,1
1350,-27.0,1.0,57.0,1644851937.875,P09,D08,0,0,1
1351,-27.0,1.0,57.0,1644851937.90625,P09,D08,0,0,1
1352,-27.0,1.0,57.0,1644851937.9375,P09,D08,0,0,1
1353,-27.0,1.0,57.0,1644851937.96875,P09,D08,0,0,1
1354,-27.0,1.0,57.0,1644851938.0,P09,D08,0,0,1
1355,-27.0,1.0,57.0,1644851938.03125,P09,D08,0,0,1
1356,-27.0,1.0,57.0,1644851938.0625,P09,D08,0,0,1
1357,-27.0,1.0,57.0,1644851938.09375,P09,D08,0,0,1
1358,-27.0,1.0,57.0,1644851938.125,P09,D08,0,0,1
1359,-27.0,1.0,57.0,1644851938.15625,P09,D08,0,0,1
1360,-27.0,1.0,57.0,1644851938.1875,P09,D08,0,0,1
1361,-27.0,1.0,57.0,1644851938.21875,P09,D08,0,0,1
1362,-27.0,1.0,57.0,1644851938.25,P09,D08,0,0,1
1363,-27.0,1.0,57.0,1644851938.28125,P09,D08,0,0,1
1364,-27.0,1.0,57.0,1644851938.3125,P09,D08,0,0,1
1365,-27.0,1.0,57.0,1644851938.34375,P09,D08,0,0,1
1366,-27.0,1.0,57.0,1644851938.375,P09,D08,0,0,1
1367,-27.0,1.0,57.0,1644851938.40625,P09,D08,0,0,1
1368,-27.0,1.0,57.0,1644851938.4375,P09,D08,0,0,1
1369,-27.0,1.0,57.0,1644851938.46875,P09,D08,0,0,1
1370,-27.0,1.0,57.0,1644851938.5,P09,D08,0,0,1
1371,-27.0,1.0,57.0,1644851938.53125,P09,D08,0,0,1
1372,-27.0,1.0,57.0,1644851938.5625,P09,D08,0,0,1
1373,-27.0,1.0,57.0,1644851938.59375,P09,D08,0,0,1
1374,-27.0,1.0,57.0,1644851938.625,P09,D08,0,0,1
1375,-27.0,1.0,57.0,1644851938.65625,P09,D08,0,0,1
1376,-27.0,1.0,57.0,1644851938.6875,P09,D08,0,0,1
1377,-27.0,1.0,57.0,1644851938.71875,P09,D08,0,0,1
1378,-27.0,1.0,57.0,1644851938.75,P09,D08,0,0,1
1379,-27.0,1.0,57.0,1644851938.78125,P09,D08,0,0,1
1380,-27.0,1.0,57.0,1644851938.8125,P09,D08,0,0,1
1381,-27.0,1.0,57.0,1644851938.84375,P09,D08,0,0,1
1382,-27.0,1.0,57.0,1644851938.875,P09,D08,0,0,1
1383,-27.0,1.0,57.0,1644851938.90625,P09,D08,0,0,1
1384,-27.0,1.0,57.0,1644851938.9375,P09,D08,0,0,1
1385,-27.0,1.0,57.0,1644851938.96875,P09,D08,0,0,1
1386,-27.0,1.0,57.0,1644851939.0,P09,D08,0,0,1
1387,-27.0,1.0,57.0,1644851939.03125,P09,D08,0,0,1
1388,-27.0,1.0,57.0,1644851939.0625,P09,D08,0,0,1
1389,-27.0,1.0,57.0,1644851939.09375,P09,D08,0,0,1
1390,-27.0,1.0,57.0,1644851939.125,P09,D08,0,0,1
1391,-27.0,1.0,57.0,1644851939.15625,P09,D08,0,0,1
1392,-27.0,1.0,57.0,1644851939.1875,P09,D08,0,0,1
1393,-27.0,1.0,57.0,1644851939.21875,P09,D08,0,0,1
1394,-27.0,1.0,57.0,1644851939.25,P09,D08,0,0,1
1395,-27.0,1.0,57.0,1644851939.28125,P09,D08,0,0,1
1396,-27.0,1.0,57.0,1644851939.3125,P09,D08,0,0,1
1397,-27.0,1.0,57.0,1644851939.34375,P09,D08,0,0,1
1398,-27.0,1.0,57.0,1644851939.375,P09,D08,0,0,1
1399,-27.0,1.0,57.0,1644851939.40625,P09,D08,0,0,1
1400,-27.0,1.0,57.0,1644851939.4375,P09,D08,0,0,1
1401,-27.0,1.0,57.0,1644851939.46875,P09,D08,0,0,1
1402,-27.0,1.0,57.0,1644851939.5,P09,D08,0,0,1
1403,-27.0,1.0,57.0,1644851939.53125,P09,D08,0,0,1
1404,-27.0,1.0,57.0,1644851939.5625,P09,D08,0,0,1
1405,-27.0,1.0,57.0,1644851939.59375,P09,D08,0,0,1
1406,-27.0,1.0,57.0,1644851939.625,P09,D08,0,0,1
1407,-27.0,1.0,57.0,1644851939.65625,P09,D08,0,0,1
1408,-27.0,1.0,57.0,1644851939.6875,P09,D08,0,0,1
1409,-27.0,1.0,57.0,1644851939.71875,P09,D08,0,0,1
1410,-27.0,1.0,57.0,1644851939.75,P09,D08,0,0,1
1411,-27.0,1.0,57.0,1644851939.78125,P09,D08,0,0,1
1412,-27.0,1.0,57.0,1644851939.8125,P09,D08,0,0,1
1413,-27.0,1.0,57.0,1644851939.84375,P09,D08,0,0,1
1414,-27.0,1.0,57.0,1644851939.875,P09,D08,0,0,1
1415,-27.0,1.0,57.0,1644851939.90625,P09,D08,0,0,1
1416,-27.0,1.0,57.0,1644851939.9375,P09,D08,0,0,1
1417,-27.0,1.0,57.0,1644851939.96875,P09,D08,0,0,1
1418,-27.0,1.0,57.0,1644851940.0,P09,D08,0,0,1
1419,-27.0,1.0,57.0,1644851940.03125,P09,D08,0,0,1
1420,-27.0,1.0,57.0,1644851940.0625,P09,D08,0,0,1
1421,-27.0,1.0,57.0,1644851940.09375,P09,D08,0,0,1
1422,-27.0,1.0,57.0,1644851940.125,P09,D08,0,0,1
1423,-27.0,1.0,57.0,1644851940.15625,P09,D08,0,0,1
1424,-27.0,1.0,57.0,1644851940.1875,P09,D08,0,0,1
1425,-27.0,1.0,57.0,1644851940.21875,P09,D08,0,0,1
1426,-27.0,1.0,57.0,1644851940.25,P09,D08,0,0,1
1427,-27.0,1.0,57.0,1644851940.28125,P09,D08,0,0,1
1428,-27.0,1.0,57.0,1644851940.3125,P09,D08,0,0,1
1429,-27.0,1.0,57.0,1644851940.34375,P09,D08,0,0,1
1430,-27.0,1.0,57.0,1644851940.375,P09,D08,0,0,1
1431,-27.0,1.0,57.0,1644851940.40625,P09,D08,0,0,1
1432,-27.0,1.0,57.0,1644851940.4375,P09,D08,0,0,1
1433,-27.0,1.0,57.0,1644851940.46875,P09,D08,0,0,1
1434,-27.0,1.0,57.0,1644851940.5,P09,D08,0,0,1
1435,-27.0,1.0,57.0,1644851940.53125,P09,D08,0,0,1
1436,-27.0,1.0,57.0,1644851940.5625,P09,D08,0,0,1
1437,-27.0,1.0,57.0,1644851940.59375,P09,D08,0,0,1
1438,-27.0,1.0,57.0,1644851940.625,P09,D08,0,0,1
1439,-27.0,1.0,57.0,1644851940.65625,P09,D08,0,0,1
1440,-27.0,1.0,57.0,1644851940.6875,P09,D08,0,0,1
1441,-27.0,1.0,57.0,1644851940.71875,P09,D08,0,0,1
1442,-27.0,1.0,57.0,1644851940.75,P09,D08,0,0,1
1443,-27.0,1.0,57.0,1644851940.78125,P09,D08,0,0,1
1444,-27.0,1.0,57.0,1644851940.8125,P09,D08,0,0,1
1445,-27.0,1.0,57.0,1644851940.84375,P09,D08,0,0,1
1446,-27.0,1.0,57.0,1644851940.875,P09,D08,0,0,1
1447,-27.0,1.0,57.0,1644851940.90625,P09,D08,0,0,1
1448,-27.0,1.0,57.0,1644851940.9375,P09,D08,0,0,1
1449,-27.0,1.0,57.0,1644851940.96875,P09,D08,0,0,1
1450,-27.0,1.0,57.0,1644851941.0,P09,D08,0,0,1
1451,-27.0,1.0,57.0,1644851941.03125,P09,D08,0,0,1
1452,-27.0,1.0,57.0,1644851941.0625,P09,D08,0,0,1
1453,-27.0,1.0,57.0,1644851941.09375,P09,D08,0,0,1
1454,-27.0,1.0,57.0,1644851941.125,P09,D08,0,0,1
1455,-27.0,1.0,57.0,1644851941.15625,P09,D08,0,0,1
1456,-27.0,1.0,57.0,1644851941.1875,P09,D08,0,0,1
1457,-27.0,1.0,57.0,1644851941.21875,P09,D08,0,0,1
1458,-27.0,1.0,57.0,1644851941.25,P09,D08,0,0,1
1459,-27.0,1.0,57.0,1644851941.28125,P09,D08,0,0,1
1460,-27.0,1.0,57.0,1644851941.3125,P09,D08,0,0,1
1461,-27.0,1.0,57.0,1644851941.34375,P09,D08,0,0,1
1462,-27.0,1.0,57.0,1644851941.375,P09,D08,0,0,1
1463,-27.0,1.0,57.0,1644851941.40625,P09,D08,0,0,1
1464,-27.0,1.0,57.0,1644851941.4375,P09,D08,0,0,1
1465,-27.0,1.0,57.0,1644851941.46875,P09,D08,0,0,1
1466,-27.0,1.0,57.0,1644851941.5,P09,D08,0,0,1
1467,-27.0,1.0,57.0,1644851941.53125,P09,D08,0,0,1
1468,-26.0,1.0,58.0,1644851941.5625,P09,D08,0,0,1
1469,-27.0,1.0,57.0,1644851941.59375,P09,D08,0,0,1
1470,-27.0,1.0,57.0,1644851941.625,P09,D08,0,0,1
1471,-27.0,1.0,57.0,1644851941.65625,P09,D08,0,0,1
1472,-27.0,1.0,57.0,1644851941.6875,P09,D08,0,0,1
1473,-27.0,1.0,57.0,1644851941.71875,P09,D08,0,0,1
1474,-27.0,1.0,57.0,1644851941.75,P09,D08,0,0,1
1475,-27.0,1.0,57.0,1644851941.78125,P09,D08,0,0,1
1476,-27.0,1.0,57.0,1644851941.8125,P09,D08,0,0,1
1477,-27.0,1.0,57.0,1644851941.84375,P09,D08,0,0,1
1478,-27.0,1.0,57.0,1644851941.875,P09,D08,0,0,1
1479,-27.0,1.0,57.0,1644851941.90625,P09,D08,0,0,1
1480,-27.0,1.0,57.0,1644851941.9375,P09,D08,0,0,1
1481,-27.0,1.0,57.0,1644851941.96875,P09,D08,0,0,1
1482,-27.0,1.0,57.0,1644851942.0,P09,D08,0,0,1
1483,-27.0,1.0,57.0,1644851942.03125,P09,D08,0,0,1
1484,-27.0,1.0,57.0,1644851942.0625,P09,D08,0,0,1
1485,-27.0,1.0,57.0,1644851942.09375,P09,D08,0,0,1
1486,-27.0,1.0,57.0,1644851942.125,P09,D08,0,0,1
1487,-27.0,1.0,57.0,1644851942.15625,P09,D08,0,0,1
1488,-27.0,1.0,57.0,1644851942.1875,P09,D08,0,0,1
1489,-27.0,1.0,57.0,1644851942.21875,P09,D08,0,0,1
1490,-27.0,1.0,57.0,1644851942.25,P09,D08,0,0,1
1491,-27.0,1.0,57.0,1644851942.28125,P09,D08,0,0,1
1492,-27.0,1.0,57.0,1644851942.3125,P09,D08,0,0,1
1493,-27.0,1.0,57.0,1644851942.34375,P09,D08,0,0,1
1494,-27.0,1.0,57.0,1644851942.375,P09,D08,0,0,1
1495,-27.0,1.0,57.0,1644851942.40625,P09,D08,0,0,1
1496,-27.0,1.0,57.0,1644851942.4375,P09,D08,0,0,1
1497,-27.0,1.0,57.0,1644851942.46875,P09,D08,0,0,1
1498,-27.0,1.0,57.0,1644851942.5,P09,D08,0,0,1
1499,-27.0,1.0,57.0,1644851942.53125,P09,D08,0,0,1
1500,-27.0,1.0,57.0,1644851942.5625,P09,D08,0,0,1
1501,-27.0,1.0,57.0,1644851942.59375,P09,D08,0,0,1
1502,-27.0,1.0,57.0,1644851942.625,P09,D08,0,0,1
1503,-27.0,1.0,57.0,1644851942.65625,P09,D08,0,0,1
1504,-27.0,1.0,57.0,1644851942.6875,P09,D08,0,0,1
1505,-27.0,1.0,57.0,1644851942.71875,P09,D08,0,0,1
1506,-27.0,1.0,57.0,1644851942.75,P09,D08,0,0,1
1507,-27.0,1.0,57.0,1644851942.78125,P09,D08,0,0,1
1508,-27.0,1.0,57.0,1644851942.8125,P09,D08,0,0,1
1509,-27.0,1.0,57.0,1644851942.84375,P09,D08,0,0,1
1510,-27.0,1.0,57.0,1644851942.875,P09,D08,0,0,1
1511,-27.0,1.0,57.0,1644851942.90625,P09,D08,0,0,1
1512,-27.0,1.0,57.0,1644851942.9375,P09,D08,0,0,1
1513,-27.0,1.0,57.0,1644851942.96875,P09,D08,0,0,1
1514,-27.0,1.0,57.0,1644851943.0,P09,D08,0,0,1
1515,-27.0,1.0,57.0,1644851943.03125,P09,D08,0,0,1
1516,-27.0,1.0,57.0,1644851943.0625,P09,D08,0,0,1
1517,-27.0,1.0,57.0,1644851943.09375,P09,D08,0,0,1
1518,-27.0,1.0,57.0,1644851943.125,P09,D08,0,0,1
1519,-27.0,1.0,57.0,1644851943.15625,P09,D08,0,0,1
1520,-27.0,1.0,57.0,1644851943.1875,P09,D08,0,0,1
1521,-27.0,1.0,57.0,1644851943.21875,P09,D08,0,0,1
1522,-27.0,1.0,57.0,1644851943.25,P09,D08,0,0,1
1523,-27.0,1.0,57.0,1644851943.28125,P09,D08,0,0,1
1524,-27.0,1.0,57.0,1644851943.3125,P09,D08,0,0,1
1525,-27.0,1.0,57.0,1644851943.34375,P09,D08,0,0,1
1526,-27.0,1.0,57.0,1644851943.375,P09,D08,0,0,1
1527,-27.0,1.0,57.0,1644851943.40625,P09,D08,0,0,1
1528,-27.0,1.0,57.0,1644851943.4375,P09,D08,0,0,1
1529,-27.0,1.0,57.0,1644851943.46875,P09,D08,0,0,1
1530,-27.0,1.0,57.0,1644851943.5,P09,D08,0,0,1
1531,-27.0,1.0,57.0,1644851943.53125,P09,D08,0,0,1
1532,-27.0,1.0,57.0,1644851943.5625,P09,D08,0,0,1
1533,-27.0,1.0,57.0,1644851943.59375,P09,D08,0,0,1
1534,-27.0,1.0,57.0,1644851943.625,P09,D08,0,0,1
1535,-27.0,1.0,57.0,1644851943.65625,P09,D08,0,0,1
1536,-27.0,1.0,57.0,1644851943.6875,P09,D08,0,0,1
1537,-27.0,1.0,57.0,1644851943.71875,P09,D08,0,0,1
1538,-27.0,1.0,58.0,1644851943.75,P09,D08,0,0,1
1539,-27.0,1.0,57.0,1644851943.78125,P09,D08,0,0,1
1540,-27.0,1.0,57.0,1644851943.8125,P09,D08,0,0,1
1541,-27.0,1.0,57.0,1644851943.84375,P09,D08,0,0,1
1542,-27.0,1.0,57.0,1644851943.875,P09,D08,0,0,1
1543,-27.0,1.0,57.0,1644851943.90625,P09,D08,0,0,1
1544,-27.0,1.0,57.0,1644851943.9375,P09,D08,0,0,1
1545,-27.0,1.0,57.0,1644851943.96875,P09,D08,0,0,1
1546,-27.0,1.0,57.0,1644851944.0,P09,D08,0,0,1
1547,-27.0,1.0,57.0,1644851944.03125,P09,D08,0,0,1
1548,-27.0,1.0,57.0,1644851944.0625,P09,D08,0,0,1
1549,-26.0,1.0,57.0,1644851944.09375,P09,D08,0,0,1
1550,-26.0,1.0,57.0,1644851944.125,P09,D08,0,0,1
1551,-27.0,1.0,57.0,1644851944.15625,P09,D08,0,0,1
1552,-27.0,1.0,57.0,1644851944.1875,P09,D08,0,0,1
1553,-27.0,1.0,57.0,1644851944.21875,P09,D08,0,0,1
1554,-27.0,1.0,57.0,1644851944.25,P09,D08,0,0,1
1555,-27.0,1.0,57.0,1644851944.28125,P09,D08,0,0,1
1556,-28.0,1.0,57.0,1644851944.3125,P09,D08,0,0,1
1557,-26.0,2.0,58.0,1644851944.34375,P09,D08,0,0,1
1558,-27.0,1.0,57.0,1644851944.375,P09,D08,0,0,1
1559,-27.0,1.0,57.0,1644851944.40625,P09,D08,0,0,1
1560,-27.0,1.0,57.0,1644851944.4375,P09,D08,0,0,1
1561,-27.0,1.0,58.0,1644851944.46875,P09,D08,0,0,1
1562,-26.0,1.0,57.0,1644851944.5,P09,D08,0,0,1
1563,-26.0,1.0,57.0,1644851944.53125,P09,D08,0,0,1
1564,-26.0,1.0,58.0,1644851944.5625,P09,D08,0,0,1
1565,-27.0,1.0,57.0,1644851944.59375,P09,D08,0,0,1
1566,-25.0,1.0,58.0,1644851944.625,P09,D08,0,0,1
1567,-26.0,1.0,58.0,1644851944.65625,P09,D08,0,0,1
1568,-27.0,1.0,57.0,1644851944.6875,P09,D08,0,0,1
1569,-27.0,1.0,57.0,1644851944.71875,P09,D08,0,0,1
1570,-26.0,1.0,58.0,1644851944.75,P09,D08,0,0,1
1571,-26.0,1.0,57.0,1644851944.78125,P09,D08,0,0,1
1572,-26.0,1.0,57.0,1644851944.8125,P09,D08,0,0,1
1573,-25.0,1.0,58.0,1644851944.84375,P09,D08,0,0,1
1574,-25.0,1.0,58.0,1644851944.875,P09,D08,0,0,1
1575,-26.0,1.0,58.0,1644851944.90625,P09,D08,0,0,1
1576,-26.0,1.0,58.0,1644851944.9375,P09,D08,0,0,1
1577,-25.0,1.0,58.0,1644851944.96875,P09,D08,0,0,1
1578,-26.0,1.0,57.0,1644851945.0,P09,D08,0,0,1
1579,-26.0,1.0,57.0,1644851945.03125,P09,D08,0,0,1
1580,-25.0,1.0,58.0,1644851945.0625,P09,D08,0,0,1
1581,-26.0,1.0,58.0,1644851945.09375,P09,D08,0,0,1
1582,-26.0,1.0,57.0,1644851945.125,P09,D08,0,0,1
1583,-26.0,0.0,58.0,1644851945.15625,P09,D08,0,0,1
1584,-26.0,2.0,58.0,1644851945.1875,P09,D08,0,0,1
1585,-27.0,1.0,57.0,1644851945.21875,P09,D08,0,0,1
1586,-26.0,1.0,57.0,1644851945.25,P09,D08,0,0,1
1587,-25.0,2.0,58.0,1644851945.28125,P09,D08,0,0,1
1588,-27.0,1.0,57.0,1644851945.3125,P09,D08,0,0,1
1589,-27.0,0.0,57.0,1644851945.34375,P09,D08,0,0,1
1590,-25.0,1.0,58.0,1644851945.375,P09,D08,0,0,1
1591,-26.0,1.0,58.0,1644851945.40625,P09,D08,0,0,1
1592,-28.0,1.0,57.0,1644851945.4375,P09,D08,0,0,1
1593,-26.0,1.0,57.0,1644851945.46875,P09,D08,0,0,1
1594,-25.0,1.0,58.0,1644851945.5,P09,D08,0,0,1
1595,-26.0,1.0,57.0,1644851945.53125,P09,D08,0,0,1
1596,-26.0,1.0,57.0,1644851945.5625,P09,D08,0,0,1
1597,-25.0,1.0,58.0,1644851945.59375,P09,D08,0,0,1
1598,-26.0,1.0,58.0,1644851945.625,P09,D08,0,0,1
1599,-26.0,1.0,58.0,1644851945.65625,P09,D08,0,0,1
1600,-26.0,1.0,58.0,1644851945.6875,P09,D08,0,0,1
1601,-26.0,1.0,58.0,1644851945.71875,P09,D08,0,0,1
1602,-27.0,1.0,57.0,1644851945.75,P09,D08,0,0,1
1603,-25.0,1.0,58.0,1644851945.78125,P09,D08,0,0,1
1604,-25.0,1.0,58.0,1644851945.8125,P09,D08,0,0,1
1605,-26.0,1.0,57.0,1644851945.84375,P09,D08,0,0,1
1606,-26.0,1.0,58.0,1644851945.875,P09,D08,0,0,1
1607,-26.0,1.0,58.0,1644851945.90625,P09,D08,0,0,1
1608,-26.0,1.0,58.0,1644851945.9375,P09,D08,0,0,1
1609,-26.0,1.0,58.0,1644851945.96875,P09,D08,0,0,1
1610,-26.0,1.0,57.0,1644851946.0,P09,D08,0,0,1
1611,-26.0,1.0,57.0,1644851946.03125,P09,D08,0,0,1
1612,-26.0,1.0,57.0,1644851946.0625,P09,D08,0,0,1
1613,-26.0,1.0,58.0,1644851946.09375,P09,D08,0,0,1
1614,-26.0,1.0,58.0,1644851946.125,P09,D08,0,0,1
1615,-26.0,1.0,57.0,1644851946.15625,P09,D08,0,0,1
1616,-26.0,1.0,58.0,1644851946.1875,P09,D08,0,0,1
1617,-26.0,1.0,58.0,1644851946.21875,P09,D08,0,0,1
1618,-25.0,1.0,58.0,1644851946.25,P09,D08,0,0,1
1619,-26.0,1.0,58.0,1644851946.28125,P09,D08,0,0,1
1620,-26.0,1.0,58.0,1644851946.3125,P09,D08,0,0,1
1621,-26.0,1.0,58.0,1644851946.34375,P09,D08,0,0,1
1622,-26.0,1.0,58.0,1644851946.375,P09,D08,0,0,1
1623,-25.0,1.0,58.0,1644851946.40625,P09,D08,0,0,1
1624,-26.0,1.0,58.0,1644851946.4375,P09,D08,0,0,1
1625,-26.0,1.0,58.0,1644851946.46875,P09,D08,0,0,1
1626,-25.0,1.0,58.0,1644851946.5,P09,D08,0,0,1
1627,-26.0,1.0,58.0,1644851946.53125,P09,D08,0,0,1
1628,-26.0,1.0,58.0,1644851946.5625,P09,D08,0,0,1
1629,-25.0,1.0,58.0,1644851946.59375,P09,D08,0,0,1
1630,-26.0,1.0,58.0,1644851946.625,P09,D08,0,0,1
1631,-26.0,1.0,58.0,1644851946.65625,P09,D08,0,0,1
1632,-25.0,1.0,58.0,1644851946.6875,P09,D08,0,0,1
1633,-26.0,1.0,58.0,1644851946.71875,P09,D08,0,0,1
1634,-25.0,1.0,58.0,1644851946.75,P09,D08,0,0,1
1635,-25.0,1.0,58.0,1644851946.78125,P09,D08,0,0,1
1636,-26.0,1.0,58.0,1644851946.8125,P09,D08,0,0,1
1637,-25.0,1.0,58.0,1644851946.84375,P09,D08,0,0,1
1638,-26.0,1.0,58.0,1644851946.875,P09,D08,0,0,1
1639,-26.0,1.0,58.0,1644851946.90625,P09,D08,0,0,1
1640,-25.0,1.0,58.0,1644851946.9375,P09,D08,0,0,1
1641,-26.0,1.0,58.0,1644851946.96875,P09,D08,0,0,1
1642,-25.0,1.0,58.0,1644851947.0,P09,D08,0,0,1
1643,-26.0,1.0,58.0,1644851947.03125,P09,D08,0,0,1
1644,-25.0,1.0,58.0,1644851947.0625,P09,D08,0,0,1
1645,-25.0,1.0,58.0,1644851947.09375,P09,D08,0,0,1
1646,-26.0,1.0,58.0,1644851947.125,P09,D08,0,0,1
1647,-25.0,1.0,58.0,1644851947.15625,P09,D08,0,0,1
1648,-25.0,1.0,58.0,1644851947.1875,P09,D08,0,0,1
1649,-25.0,1.0,58.0,1644851947.21875,P09,D08,0,0,1
1650,-26.0,1.0,58.0,1644851947.25,P09,D08,0,0,1
1651,-26.0,1.0,58.0,1644851947.28125,P09,D08,0,0,1
1652,-25.0,1.0,58.0,1644851947.3125,P09,D08,0,0,1
1653,-25.0,1.0,58.0,1644851947.34375,P09,D08,0,0,1
1654,-26.0,1.0,58.0,1644851947.375,P09,D08,0,0,1
1655,-25.0,1.0,58.0,1644851947.40625,P09,D08,0,0,1
1656,-25.0,1.0,58.0,1644851947.4375,P09,D08,0,0,1
1657,-25.0,1.0,58.0,1644851947.46875,P09,D08,0,0,1
1658,-25.0,1.0,58.0,1644851947.5,P09,D08,0,0,1
1659,-25.0,1.0,58.0,1644851947.53125,P09,D08,0,0,1
1660,-25.0,1.0,58.0,1644851947.5625,P09,D08,0,0,1
1661,-25.0,1.0,58.0,1644851947.59375,P09,D08,0,0,1
1662,-25.0,1.0,58.0,1644851947.625,P09,D08,0,0,1
1663,-25.0,1.0,58.0,1644851947.65625,P09,D08,0,0,1
1664,-25.0,1.0,58.0,1644851947.6875,P09,D08,0,0,1
1665,-25.0,1.0,58.0,1644851947.71875,P09,D08,0,0,1
1666,-25.0,1.0,58.0,1644851947.75,P09,D08,0,0,1
1667,-25.0,1.0,58.0,1644851947.78125,P09,D08,0,0,1
1668,-25.0,1.0,58.0,1644851947.8125,P09,D08,0,0,1
1669,-25.0,1.0,58.0,1644851947.84375,P09,D08,0,0,1
1670,-25.0,1.0,58.0,1644851947.875,P09,D08,0,0,1
1671,-25.0,1.0,58.0,1644851947.90625,P09,D08,0,0,1
1672,-26.0,1.0,58.0,1644851947.9375,P09,D08,0,0,1
1673,-25.0,1.0,58.0,1644851947.96875,P09,D08,0,0,1
1674,-25.0,1.0,58.0,1644851948.0,P09,D08,0,0,1
1675,-24.0,1.0,58.0,1644851948.03125,P09,D08,0,0,1
1676,-27.0,1.0,57.0,1644851948.0625,P09,D08,0,0,1
1677,-25.0,1.0,58.0,1644851948.09375,P09,D08,0,0,1
1678,-25.0,1.0,58.0,1644851948.125,P09,D08,0,0,1
1679,-26.0,1.0,58.0,1644851948.15625,P09,D08,0,0,1
1680,-25.0,1.0,58.0,1644851948.1875,P09,D08,0,0,1
1681,-25.0,1.0,58.0,1644851948.21875,P09,D08,0,0,1
1682,-25.0,1.0,58.0,1644851948.25,P09,D08,0,0,1
1683,-26.0,1.0,58.0,1644851948.28125,P09,D08,0,0,1
1684,-26.0,1.0,58.0,1644851948.3125,P09,D08,0,0,1
1685,-26.0,1.0,57.0,1644851948.34375,P09,D08,0,0,1
1686,-26.0,1.0,58.0,1644851948.375,P09,D08,0,0,1
1687,-25.0,1.0,58.0,1644851948.40625,P09,D08,0,0,1
1688,-26.0,1.0,58.0,1644851948.4375,P09,D08,0,0,1
1689,-25.0,1.0,58.0,1644851948.46875,P09,D08,0,0,1
1690,-25.0,1.0,58.0,1644851948.5,P09,D08,0,0,1
1691,-25.0,1.0,58.0,1644851948.53125,P09,D08,0,0,1
1692,-25.0,1.0,58.0,1644851948.5625,P09,D08,0,0,1
1693,-25.0,1.0,58.0,1644851948.59375,P09,D08,0,0,1
1694,-25.0,1.0,58.0,1644851948.625,P09,D08,0,0,1
1695,-25.0,1.0,58.0,1644851948.65625,P09,D08,0,0,1
1696,-25.0,1.0,58.0,1644851948.6875,P09,D08,0,0,1
1697,-25.0,1.0,58.0,1644851948.71875,P09,D08,0,0,1
1698,-25.0,1.0,58.0,1644851948.75,P09,D08,0,0,1
1699,-26.0,1.0,58.0,1644851948.78125,P09,D08,0,0,1
1700,-26.0,1.0,58.0,1644851948.8125,P09,D08,0,0,1
1701,-25.0,1.0,58.0,1644851948.84375,P09,D08,0,0,1
1702,-26.0,1.0,58.0,1644851948.875,P09,D08,0,0,1
1703,-25.0,1.0,58.0,1644851948.90625,P09,D08,0,0,1
1704,-26.0,1.0,58.0,1644851948.9375,P09,D08,0,0,1
1705,-25.0,1.0,58.0,1644851948.96875,P09,D08,0,0,1
1706,-26.0,1.0,58.0,1644851949.0,P09,D08,0,0,1
1707,-25.0,2.0,58.0,1644851949.03125,P09,D08,0,0,1
1708,-26.0,0.0,58.0,1644851949.0625,P09,D08,0,0,1
1709,-27.0,0.0,57.0,1644851949.09375,P09,D08,0,0,1
1710,-27.0,1.0,57.0,1644851949.125,P09,D08,0,0,1
1711,-29.0,1.0,57.0,1644851949.15625,P09,D08,0,0,1
1712,-27.0,1.0,57.0,1644851949.1875,P09,D08,0,0,1
1713,-29.0,1.0,56.0,1644851949.21875,P09,D08,0,0,1
1714,-29.0,1.0,57.0,1644851949.25,P09,D08,0,0,1
1715,-26.0,0.0,58.0,1644851949.28125,P09,D08,0,0,1
1716,-27.0,1.0,57.0,1644851949.3125,P09,D08,0,0,1
1717,-28.0,2.0,57.0,1644851949.34375,P09,D08,0,0,1
1718,-27.0,1.0,57.0,1644851949.375,P09,D08,0,0,1
1719,-27.0,1.0,57.0,1644851949.40625,P09,D08,0,0,1
1720,-28.0,1.0,57.0,1644851949.4375,P09,D08,0,0,1
1721,-28.0,1.0,57.0,1644851949.46875,P09,D08,0,0,1
1722,-26.0,1.0,57.0,1644851949.5,P09,D08,0,0,1
1723,-27.0,1.0,57.0,1644851949.53125,P09,D08,0,0,1
1724,-28.0,1.0,57.0,1644851949.5625,P09,D08,0,0,1
1725,-28.0,1.0,57.0,1644851949.59375,P09,D08,0,0,1
1726,-27.0,1.0,57.0,1644851949.625,P09,D08,0,0,1
1727,-27.0,1.0,57.0,1644851949.65625,P09,D08,0,0,1
1728,-27.0,1.0,57.0,1644851949.6875,P09,D08,0,0,1
1729,-27.0,1.0,57.0,1644851949.71875,P09,D08,0,0,1
1730,-27.0,1.0,57.0,1644851949.75,P09,D08,0,0,1
1731,-28.0,1.0,57.0,1644851949.78125,P09,D08,0,0,1
1732,-27.0,1.0,57.0,1644851949.8125,P09,D08,0,0,1
1733,-27.0,1.0,57.0,1644851949.84375,P09,D08,0,0,1
1734,-28.0,1.0,57.0,1644851949.875,P09,D08,0,0,1
1735,-27.0,1.0,57.0,1644851949.90625,P09,D08,0,0,1
1736,-27.0,1.0,57.0,1644851949.9375,P09,D08,0,0,1
1737,-27.0,1.0,57.0,1644851949.96875,P09,D08,0,0,1
1738,-27.0,1.0,57.0,1644851950.0,P09,D08,0,0,1
1739,-27.0,1.0,57.0,1644851950.03125,P09,D08,0,0,1
1740,-28.0,1.0,57.0,1644851950.0625,P09,D08,0,0,1
1741,-28.0,1.0,57.0,1644851950.09375,P09,D08,0,0,1
1742,-29.0,1.0,56.0,1644851950.125,P09,D08,0,0,1
1743,-27.0,1.0,57.0,1644851950.15625,P09,D08,0,0,1
1744,-27.0,1.0,57.0,1644851950.1875,P09,D08,0,0,1
1745,-27.0,1.0,57.0,1644851950.21875,P09,D08,0,0,1
1746,-28.0,1.0,57.0,1644851950.25,P09,D08,0,0,1
1747,-27.0,1.0,57.0,1644851950.28125,P09,D08,0,0,1
1748,-26.0,1.0,58.0,1644851950.3125,P09,D08,0,0,1
1749,-27.0,1.0,57.0,1644851950.34375,P09,D08,0,0,1
1750,-28.0,1.0,57.0,1644851950.375,P09,D08,0,0,1
1751,-27.0,1.0,57.0,1644851950.40625,P09,D08,0,0,1
1752,-27.0,1.0,57.0,1644851950.4375,P09,D08,0,0,1
1753,-28.0,1.0,57.0,1644851950.46875,P09,D08,0,0,1
1754,-28.0,1.0,57.0,1644851950.5,P09,D08,0,0,1
1755,-27.0,1.0,57.0,1644851950.53125,P09,D08,0,0,1
1756,-27.0,1.0,57.0,1644851950.5625,P09,D08,0,0,1
1757,-27.0,1.0,57.0,1644851950.59375,P09,D08,0,0,1
1758,-27.0,1.0,57.0,1644851950.625,P09,D08,0,0,1
1759,-27.0,1.0,57.0,1644851950.65625,P09,D08,0,0,1
1760,-27.0,1.0,57.0,1644851950.6875,P09,D08,0,0,1
1761,-26.0,1.0,57.0,1644851950.71875,P09,D08,0,0,1
1762,-27.0,1.0,57.0,1644851950.75,P09,D08,0,0,1
1763,-27.0,1.0,57.0,1644851950.78125,P09,D08,0,0,1
1764,-27.0,1.0,57.0,1644851950.8125,P09,D08,0,0,1
1765,-26.0,1.0,57.0,1644851950.84375,P09,D08,0,0,1
1766,-27.0,1.0,57.0,1644851950.875,P09,D08,0,0,1
1767,-27.0,1.0,57.0,1644851950.90625,P09,D08,0,0,1
1768,-27.0,1.0,57.0,1644851950.9375,P09,D08,0,0,1
1769,-26.0,1.0,58.0,1644851950.96875,P09,D08,0,0,1
1770,-26.0,1.0,57.0,1644851951.0,P09,D08,0,0,1
1771,-27.0,1.0,57.0,1644851951.03125,P09,D08,0,0,1
1772,-27.0,1.0,57.0,1644851951.0625,P09,D08,0,0,1
1773,-26.0,1.0,57.0,1644851951.09375,P09,D08,0,0,1
1774,-27.0,1.0,57.0,1644851951.125,P09,D08,0,0,1
1775,-27.0,1.0,57.0,1644851951.15625,P09,D08,0,0,1
1776,-27.0,1.0,57.0,1644851951.1875,P09,D08,0,0,1
1777,-28.0,2.0,57.0,1644851951.21875,P09,D08,0,0,1
1778,-28.0,0.0,56.0,1644851951.25,P09,D08,0,0,1
1779,-29.0,0.0,56.0,1644851951.28125,P09,D08,0,0,1
1780,-28.0,1.0,57.0,1644851951.3125,P09,D08,0,0,1
1781,-27.0,1.0,57.0,1644851951.34375,P09,D08,0,0,1
1782,-27.0,0.0,57.0,1644851951.375,P09,D08,0,0,1
1783,-28.0,1.0,57.0,1644851951.40625,P09,D08,0,0,1
1784,-28.0,1.0,57.0,1644851951.4375,P09,D08,0,0,1
1785,-28.0,1.0,57.0,1644851951.46875,P09,D08,0,0,1
1786,-28.0,0.0,57.0,1644851951.5,P09,D08,0,0,1
1787,-27.0,1.0,57.0,1644851951.53125,P09,D08,0,0,1
1788,-27.0,1.0,57.0,1644851951.5625,P09,D08,0,0,1
1789,-28.0,1.0,57.0,1644851951.59375,P09,D08,0,0,1
1790,-27.0,1.0,57.0,1644851951.625,P09,D08,0,0,1
1791,-27.0,1.0,57.0,1644851951.65625,P09,D08,0,0,1
1792,-28.0,1.0,57.0,1644851951.6875,P09,D08,0,0,1
1793,-28.0,1.0,57.0,1644851951.71875,P09,D08,0,0,1
1794,-26.0,1.0,57.0,1644851951.75,P09,D08,0,0,1
1795,-27.0,1.0,57.0,1644851951.78125,P09,D08,0,0,1
1796,-28.0,1.0,57.0,1644851951.8125,P09,D08,0,0,1
1797,-27.0,1.0,57.0,1644851951.84375,P09,D08,0,0,1
1798,-26.0,1.0,58.0,1644851951.875,P09,D08,0,0,1
1799,-26.0,1.0,57.0,1644851951.90625,P09,D08,0,0,1
1800,-28.0,1.0,57.0,1644851951.9375,P09,D08,0,0,1
1801,-26.0,1.0,58.0,1644851951.96875,P09,D08,0,0,1
1802,-25.0,1.0,57.0,1644851952.0,P09,D08,0,0,1
1803,-26.0,1.0,57.0,1644851952.03125,P09,D08,0,0,1
1804,-26.0,1.0,57.0,1644851952.0625,P09,D08,0,0,1
1805,-25.0,1.0,58.0,1644851952.09375,P09,D08,0,0,1
1806,-25.0,1.0,58.0,1644851952.125,P09,D08,0,0,1
1807,-24.0,1.0,58.0,1644851952.15625,P09,D08,0,0,1
1808,-26.0,1.0,58.0,1644851952.1875,P09,D08,0,0,1
1809,-28.0,1.0,56.0,1644851952.21875,P09,D08,0,0,1
1810,-29.0,1.0,57.0,1644851952.25,P09,D08,0,0,1
1811,-28.0,1.0,57.0,1644851952.28125,P09,D08,0,0,1
1812,-28.0,1.0,56.0,1644851952.3125,P09,D08,0,0,1
1813,-28.0,1.0,57.0,1644851952.34375,P09,D08,0,0,1
1814,-27.0,1.0,57.0,1644851952.375,P09,D08,0,0,1
1815,-28.0,1.0,57.0,1644851952.40625,P09,D08,0,0,1
1816,-27.0,1.0,57.0,1644851952.4375,P09,D08,0,0,1
1817,-29.0,1.0,57.0,1644851952.46875,P09,D08,0,0,1
1818,-26.0,1.0,57.0,1644851952.5,P09,D08,0,0,1
1819,-25.0,1.0,58.0,1644851952.53125,P09,D08,0,0,1
1820,-29.0,1.0,57.0,1644851952.5625,P09,D08,0,0,1
1821,-28.0,1.0,57.0,1644851952.59375,P09,D08,0,0,1
1822,-26.0,1.0,57.0,1644851952.625,P09,D08,0,0,1
1823,-28.0,1.0,57.0,1644851952.65625,P09,D08,0,0,1
1824,-27.0,2.0,57.0,1644851952.6875,P09,D08,0,0,1
1825,-26.0,1.0,57.0,1644851952.71875,P09,D08,0,0,1
1826,-26.0,1.0,58.0,1644851952.75,P09,D08,0,0,1
1827,-27.0,1.0,57.0,1644851952.78125,P09,D08,0,0,1
1828,-27.0,1.0,57.0,1644851952.8125,P09,D08,0,0,1
1829,-27.0,1.0,57.0,1644851952.84375,P09,D08,0,0,1
1830,-27.0,1.0,57.0,1644851952.875,P09,D08,0,0,1
1831,-27.0,1.0,57.0,1644851952.90625,P09,D08,0,0,1
1832,-27.0,1.0,57.0,1644851952.9375,P09,D08,0,0,1
1833,-27.0,1.0,57.0,1644851952.96875,P09,D08,0,0,1
1834,-27.0,1.0,57.0,1644851953.0,P09,D08,0,0,1
1835,-28.0,1.0,57.0,1644851953.03125,P09,D08,0,0,1
1836,-27.0,1.0,57.0,1644851953.0625,P09,D08,0,0,1
1837,-27.0,1.0,57.0,1644851953.09375,P09,D08,0,0,1
1838,-27.0,1.0,57.0,1644851953.125,P09,D08,0,0,1
1839,-27.0,1.0,57.0,1644851953.15625,P09,D08,0,0,1
1840,-27.0,1.0,57.0,1644851953.1875,P09,D08,0,0,1
1841,-27.0,1.0,57.0,1644851953.21875,P09,D08,0,0,1
1842,-27.0,1.0,57.0,1644851953.25,P09,D08,0,0,1
1843,-28.0,1.0,57.0,1644851953.28125,P09,D08,0,0,1
1844,-27.0,1.0,57.0,1644851953.3125,P09,D08,0,0,1
1845,-27.0,1.0,57.0,1644851953.34375,P09,D08,0,0,1
1846,-28.0,1.0,57.0,1644851953.375,P09,D08,0,0,1
1847,-27.0,1.0,57.0,1644851953.40625,P09,D08,0,0,1
1848,-27.0,1.0,57.0,1644851953.4375,P09,D08,0,0,1
1849,-27.0,1.0,57.0,1644851953.46875,P09,D08,0,0,1
1850,-27.0,1.0,57.0,1644851953.5,P09,D08,0,0,1
1851,-27.0,1.0,57.0,1644851953.53125,P09,D08,0,0,1
1852,-27.0,1.0,57.0,1644851953.5625,P09,D08,0,0,1
1853,-27.0,1.0,57.0,1644851953.59375,P09,D08,0,0,1
1854,-27.0,1.0,57.0,1644851953.625,P09,D08,0,0,1
1855,-27.0,1.0,57.0,1644851953.65625,P09,D08,0,0,1
1856,-27.0,1.0,57.0,1644851953.6875,P09,D08,0,0,1
1857,-27.0,1.0,57.0,1644851953.71875,P09,D08,0,0,1
1858,-27.0,1.0,57.0,1644851953.75,P09,D08,0,0,1
1859,-27.0,1.0,57.0,1644851953.78125,P09,D08,0,0,1
1860,-27.0,1.0,57.0,1644851953.8125,P09,D08,0,0,1
1861,-27.0,1.0,57.0,1644851953.84375,P09,D08,0,0,1
1862,-27.0,1.0,57.0,1644851953.875,P09,D08,0,0,1
1863,-27.0,1.0,57.0,1644851953.90625,P09,D08,0,0,1
1864,-27.0,1.0,57.0,1644851953.9375,P09,D08,0,0,1
1865,-27.0,1.0,57.0,1644851953.96875,P09,D08,0,0,1
1866,-27.0,1.0,57.0,1644851954.0,P09,D08,0,0,1
1867,-27.0,1.0,57.0,1644851954.03125,P09,D08,0,0,1
1868,-27.0,1.0,57.0,1644851954.0625,P09,D08,0,0,1
1869,-27.0,1.0,57.0,1644851954.09375,P09,D08,0,0,1
1870,-27.0,1.0,57.0,1644851954.125,P09,D08,0,0,1
1871,-27.0,1.0,57.0,1644851954.15625,P09,D08,0,0,1
1872,-27.0,1.0,57.0,1644851954.1875,P09,D08,0,0,1
1873,-27.0,1.0,57.0,1644851954.21875,P09,D08,0,0,1
1874,-27.0,1.0,57.0,1644851954.25,P09,D08,0,0,1
1875,-27.0,1.0,57.0,1644851954.28125,P09,D08,0,0,1
1876,-27.0,1.0,57.0,1644851954.3125,P09,D08,0,0,1
1877,-27.0,1.0,57.0,1644851954.34375,P09,D08,0,0,1
1878,-27.0,1.0,57.0,1644851954.375,P09,D08,0,0,1
1879,-27.0,1.0,57.0,1644851954.40625,P09,D08,0,0,1
1880,-27.0,1.0,57.0,1644851954.4375,P09,D08,0,0,1
1881,-27.0,1.0,57.0,1644851954.46875,P09,D08,0,0,1
1882,-27.0,1.0,57.0,1644851954.5,P09,D08,0,0,1
1883,-27.0,1.0,57.0,1644851954.53125,P09,D08,0,0,1
1884,-27.0,1.0,57.0,1644851954.5625,P09,D08,0,0,1
1885,-27.0,1.0,57.0,1644851954.59375,P09,D08,0,0,1
1886,-27.0,1.0,57.0,1644851954.625,P09,D08,0,0,1
1887,-27.0,1.0,57.0,1644851954.65625,P09,D08,0,0,1
1888,-27.0,1.0,57.0,1644851954.6875,P09,D08,0,0,1
1889,-27.0,1.0,57.0,1644851954.71875,P09,D08,0,0,1
1890,-27.0,1.0,57.0,1644851954.75,P09,D08,0,0,1
1891,-27.0,1.0,57.0,1644851954.78125,P09,D08,0,0,1
1892,-27.0,1.0,57.0,1644851954.8125,P09,D08,0,0,1
1893,-27.0,1.0,57.0,1644851954.84375,P09,D08,0,0,1
1894,-27.0,1.0,57.0,1644851954.875,P09,D08,0,0,1
1895,-27.0,1.0,57.0,1644851954.90625,P09,D08,0,0,1
1896,-27.0,1.0,57.0,1644851954.9375,P09,D08,0,0,1
1897,-27.0,1.0,57.0,1644851954.96875,P09,D08,0,0,1
1898,-27.0,1.0,57.0,1644851955.0,P09,D08,0,0,1
1899,-27.0,1.0,57.0,1644851955.03125,P09,D08,0,0,1
1900,-27.0,1.0,57.0,1644851955.0625,P09,D08,0,0,1
1901,-27.0,1.0,57.0,1644851955.09375,P09,D08,0,0,1
1902,-27.0,1.0,57.0,1644851955.125,P09,D08,0,0,1
1903,-27.0,1.0,57.0,1644851955.15625,P09,D08,0,0,1
1904,-27.0,1.0,57.0,1644851955.1875,P09,D08,0,0,1
1905,-27.0,1.0,57.0,1644851955.21875,P09,D08,0,0,1
1906,-27.0,1.0,57.0,1644851955.25,P09,D08,0,0,1
1907,-27.0,1.0,57.0,1644851955.28125,P09,D08,0,0,1
1908,-27.0,1.0,57.0,1644851955.3125,P09,D08,0,0,1
1909,-27.0,1.0,57.0,1644851955.34375,P09,D08,0,0,1
1910,-27.0,1.0,57.0,1644851955.375,P09,D08,0,0,1
1911,-27.0,1.0,57.0,1644851955.40625,P09,D08,0,0,1
1912,-27.0,1.0,57.0,1644851955.4375,P09,D08,0,0,1
1913,-27.0,1.0,57.0,1644851955.46875,P09,D08,0,0,1
1914,-27.0,1.0,57.0,1644851955.5,P09,D08,0,0,1
1915,-27.0,1.0,57.0,1644851955.53125,P09,D08,0,0,1
1916,-27.0,1.0,57.0,1644851955.5625,P09,D08,0,0,1
1917,-27.0,1.0,57.0,1644851955.59375,P09,D08,0,0,1
1918,-27.0,1.0,57.0,1644851955.625,P09,D08,0,0,1
1919,-27.0,1.0,57.0,1644851955.65625,P09,D08,0,0,1
1920,-27.0,1.0,57.0,1644851955.6875,P09,D08,0,0,1
1921,-27.0,1.0,57.0,1644851955.71875,P09,D08,0,0,1
1922,-27.0,1.0,57.0,1644851955.75,P09,D08,0,0,1
1923,-27.0,1.0,57.0,1644851955.78125,P09,D08,0,0,1
1924,-27.0,1.0,57.0,1644851955.8125,P09,D08,0,0,1
1925,-27.0,1.0,57.0,1644851955.84375,P09,D08,0,0,1
1926,-27.0,1.0,57.0,1644851955.875,P09,D08,0,0,1
1927,-27.0,1.0,57.0,1644851955.90625,P09,D08,0,0,1
1928,-27.0,1.0,57.0,1644851955.9375,P09,D08,0,0,1
1929,-27.0,1.0,57.0,1644851955.96875,P09,D08,0,0,1
1930,-27.0,1.0,57.0,1644851956.0,P09,D08,0,0,1
1931,-27.0,1.0,57.0,1644851956.03125,P09,D08,0,0,1
1932,-27.0,1.0,57.0,1644851956.0625,P09,D08,0,0,1
1933,-27.0,1.0,57.0,1644851956.09375,P09,D08,0,0,1
1934,-27.0,1.0,57.0,1644851956.125,P09,D08,0,0,1
1935,-27.0,1.0,57.0,1644851956.15625,P09,D08,0,0,1
1936,-27.0,1.0,57.0,1644851956.1875,P09,D08,0,0,1
1937,-27.0,1.0,57.0,1644851956.21875,P09,D08,0,0,1
1938,-27.0,1.0,57.0,1644851956.25,P09,D08,0,0,1
1939,-27.0,1.0,57.0,1644851956.28125,P09,D08,0,0,1
1940,-27.0,1.0,57.0,1644851956.3125,P09,D08,0,0,1
1941,-27.0,1.0,57.0,1644851956.34375,P09,D08,0,0,1
1942,-27.0,1.0,57.0,1644851956.375,P09,D08,0,0,1
1943,-27.0,1.0,57.0,1644851956.40625,P09,D08,0,0,1
1944,-27.0,1.0,57.0,1644851956.4375,P09,D08,0,0,1
1945,-27.0,1.0,57.0,1644851956.46875,P09,D08,0,0,1
1946,-27.0,1.0,57.0,1644851956.5,P09,D08,0,0,1
1947,-27.0,1.0,57.0,1644851956.53125,P09,D08,0,0,1
1948,-27.0,1.0,57.0,1644851956.5625,P09,D08,0,0,1
1949,-27.0,1.0,57.0,1644851956.59375,P09,D08,0,0,1
1950,-27.0,1.0,57.0,1644851956.625,P09,D08,0,0,1
1951,-27.0,1.0,57.0,1644851956.65625,P09,D08,0,0,1
1952,-27.0,1.0,57.0,1644851956.6875,P09,D08,0,0,1
1953,-27.0,1.0,57.0,1644851956.71875,P09,D08,0,0,1
1954,-27.0,1.0,57.0,1644851956.75,P09,D08,0,0,1
1955,-27.0,1.0,57.0,1644851956.78125,P09,D08,0,0,1
1956,-27.0,1.0,57.0,1644851956.8125,P09,D08,0,0,1
1957,-27.0,1.0,57.0,1644851956.84375,P09,D08,0,0,1
1958,-27.0,1.0,57.0,1644851956.875,P09,D08,0,0,1
1959,-27.0,1.0,57.0,1644851956.90625,P09,D08,0,0,1
1960,-27.0,1.0,57.0,1644851956.9375,P09,D08,0,0,1
1961,-27.0,1.0,57.0,1644851956.96875,P09,D08,0,0,1
1962,-27.0,1.0,57.0,1644851957.0,P09,D08,0,0,1
1963,-27.0,1.0,57.0,1644851957.03125,P09,D08,0,0,1
1964,-27.0,1.0,57.0,1644851957.0625,P09,D08,0,0,1
1965,-27.0,1.0,57.0,1644851957.09375,P09,D08,0,0,1
1966,-27.0,1.0,57.0,1644851957.125,P09,D08,0,0,1
1967,-27.0,1.0,57.0,1644851957.15625,P09,D08,0,0,1
1968,-27.0,1.0,57.0,1644851957.1875,P09,D08,0,0,1
1969,-27.0,1.0,57.0,1644851957.21875,P09,D08,0,0,1
1970,-27.0,1.0,57.0,1644851957.25,P09,D08,0,0,1
1971,-27.0,1.0,57.0,1644851957.28125,P09,D08,0,0,1
1972,-27.0,1.0,57.0,1644851957.3125,P09,D08,0,0,1
1973,-27.0,1.0,57.0,1644851957.34375,P09,D08,0,0,1
1974,-27.0,1.0,57.0,1644851957.375,P09,D08,0,0,1
1975,-27.0,1.0,57.0,1644851957.40625,P09,D08,0,0,1
1976,-27.0,1.0,57.0,1644851957.4375,P09,D08,0,0,1
1977,-27.0,1.0,57.0,1644851957.46875,P09,D08,0,0,1
1978,-27.0,1.0,57.0,1644851957.5,P09,D08,0,0,1
1979,-27.0,1.0,57.0,1644851957.53125,P09,D08,0,0,1
1980,-27.0,1.0,57.0,1644851957.5625,P09,D08,0,0,1
1981,-27.0,1.0,57.0,1644851957.59375,P09,D08,0,0,1
1982,-27.0,1.0,57.0,1644851957.625,P09,D08,0,0,1
1983,-27.0,1.0,57.0,1644851957.65625,P09,D08,0,0,1
1984,-27.0,1.0,57.0,1644851957.6875,P09,D08,0,0,1
1985,-27.0,1.0,57.0,1644851957.71875,P09,D08,0,0,1
1986,-27.0,1.0,57.0,1644851957.75,P09,D08,0,0,1
1987,-27.0,1.0,57.0,1644851957.78125,P09,D08,0,0,1
1988,-27.0,1.0,57.0,1644851957.8125,P09,D08,0,0,1
1989,-27.0,1.0,57.0,1644851957.84375,P09,D08,0,0,1
1990,-27.0,1.0,57.0,1644851957.875,P09,D08,0,0,1
1991,-27.0,1.0,57.0,1644851957.90625,P09,D08,0,0,1
1992,-27.0,1.0,57.0,1644851957.9375,P09,D08,0,0,1
1993,-27.0,1.0,57.0,1644851957.96875,P09,D08,0,0,1
1994,-27.0,1.0,57.0,1644851958.0,P09,D08,0,0,1
1995,-27.0,1.0,57.0,1644851958.03125,P09,D08,0,0,1
1996,-27.0,1.0,57.0,1644851958.0625,P09,D08,0,0,1
1997,-27.0,1.0,57.0,1644851958.09375,P09,D08,0,0,1
1998,-27.0,1.0,57.0,1644851958.125,P09,D08,0,0,1
1999,-27.0,1.0,57.0,1644851958.15625,P09,D08,0,0,1
2000,-27.0,1.0,57.0,1644851958.1875,P09,D08,0,0,1
2001,-27.0,1.0,57.0,1644851958.21875,P09,D08,0,0,1
2002,-27.0,1.0,57.0,1644851958.25,P09,D08,0,0,1
2003,-27.0,1.0,57.0,1644851958.28125,P09,D08,0,0,1
2004,-27.0,1.0,57.0,1644851958.3125,P09,D08,0,0,1
2005,-27.0,1.0,57.0,1644851958.34375,P09,D08,0,0,1
2006,-27.0,1.0,57.0,1644851958.375,P09,D08,0,0,1
2007,-27.0,1.0,57.0,1644851958.40625,P09,D08,0,0,1
2008,-27.0,1.0,57.0,1644851958.4375,P09,D08,0,0,1
2009,-27.0,1.0,57.0,1644851958.46875,P09,D08,0,0,1
2010,-27.0,1.0,57.0,1644851958.5,P09,D08,0,0,1
2011,-27.0,1.0,57.0,1644851958.53125,P09,D08,0,0,1
2012,-27.0,1.0,57.0,1644851958.5625,P09,D08,0,0,1
2013,-27.0,1.0,57.0,1644851958.59375,P09,D08,0,0,1
2014,-27.0,1.0,57.0,1644851958.625,P09,D08,0,0,1
2015,-27.0,1.0,57.0,1644851958.65625,P09,D08,0,0,1
2016,-27.0,1.0,57.0,1644851958.6875,P09,D08,0,0,1
2017,-27.0,1.0,57.0,1644851958.71875,P09,D08,0,0,1
2018,-27.0,1.0,57.0,1644851958.75,P09,D08,0,0,1
2019,-27.0,1.0,57.0,1644851958.78125,P09,D08,0,0,1
2020,-27.0,1.0,57.0,1644851958.8125,P09,D08,0,0,1
2021,-27.0,1.0,57.0,1644851958.84375,P09,D08,0,0,1
2022,-27.0,1.0,57.0,1644851958.875,P09,D08,0,0,1
2023,-27.0,1.0,57.0,1644851958.90625,P09,D08,0,0,1
2024,-27.0,1.0,57.0,1644851958.9375,P09,D08,0,0,1
2025,-27.0,1.0,57.0,1644851958.96875,P09,D08,0,0,1
2026,-27.0,1.0,57.0,1644851959.0,P09,D08,0,0,1
2027,-27.0,1.0,57.0,1644851959.03125,P09,D08,0,0,1
2028,-27.0,1.0,57.0,1644851959.0625,P09,D08,0,0,1
2029,-27.0,1.0,57.0,1644851959.09375,P09,D08,0,0,1
2030,-27.0,1.0,57.0,1644851959.125,P09,D08,0,0,1
2031,-27.0,1.0,57.0,1644851959.15625,P09,D08,0,0,1
2032,-27.0,1.0,57.0,1644851959.1875,P09,D08,0,0,1
2033,-27.0,1.0,57.0,1644851959.21875,P09,D08,0,0,1
2034,-27.0,1.0,57.0,1644851959.25,P09,D08,0,0,1
2035,-27.0,1.0,57.0,1644851959.28125,P09,D08,0,0,1
2036,-27.0,1.0,57.0,1644851959.3125,P09,D08,0,0,1
2037,-27.0,1.0,57.0,1644851959.34375,P09,D08,0,0,1
2038,-27.0,1.0,57.0,1644851959.375,P09,D08,0,0,1
2039,-27.0,1.0,57.0,1644851959.40625,P09,D08,0,0,1
2040,-27.0,1.0,57.0,1644851959.4375,P09,D08,0,0,1
2041,-27.0,1.0,57.0,1644851959.46875,P09,D08,0,0,1
2042,-27.0,1.0,57.0,1644851959.5,P09,D08,0,0,1
2043,-27.0,1.0,57.0,1644851959.53125,P09,D08,0,0,1
2044,-27.0,1.0,57.0,1644851959.5625,P09,D08,0,0,1
2045,-27.0,1.0,57.0,1644851959.59375,P09,D08,0,0,1
2046,-27.0,1.0,57.0,1644851959.625,P09,D08,0,0,1
2047,-27.0,1.0,57.0,1644851959.65625,P09,D08,0,0,1
2048,-27.0,1.0,57.0,1644851959.6875,P09,D08,0,0,1
2049,-27.0,1.0,57.0,1644851959.71875,P09,D08,0,0,1
2050,-27.0,1.0,57.0,1644851959.75,P09,D08,0,0,1
2051,-27.0,1.0,57.0,1644851959.78125,P09,D08,0,0,1
2052,-27.0,1.0,57.0,1644851959.8125,P09,D08,0,0,1
2053,-27.0,1.0,57.0,1644851959.84375,P09,D08,0,0,1
2054,-27.0,1.0,57.0,1644851959.875,P09,D08,0,0,1
2055,-27.0,1.0,57.0,1644851959.90625,P09,D08,0,0,1
2056,-27.0,1.0,57.0,1644851959.9375,P09,D08,0,0,1
2057,-27.0,1.0,57.0,1644851959.96875,P09,D08,0,0,1
2058,-27.0,1.0,57.0,1644851960.0,P09,D08,0,0,1
2059,-27.0,1.0,57.0,1644851960.03125,P09,D08,0,0,1
2060,-27.0,1.0,57.0,1644851960.0625,P09,D08,0,0,1
2061,-27.0,1.0,57.0,1644851960.09375,P09,D08,0,0,1
2062,-27.0,1.0,57.0,1644851960.125,P09,D08,0,0,1
2063,-27.0,1.0,57.0,1644851960.15625,P09,D08,0,0,1
2064,-27.0,1.0,57.0,1644851960.1875,P09,D08,0,0,1
2065,-27.0,1.0,57.0,1644851960.21875,P09,D08,0,0,1
2066,-27.0,1.0,57.0,1644851960.25,P09,D08,0,0,1
2067,-27.0,1.0,57.0,1644851960.28125,P09,D08,0,0,1
2068,-27.0,1.0,57.0,1644851960.3125,P09,D08,0,0,1
2069,-27.0,1.0,57.0,1644851960.34375,P09,D08,0,0,1
2070,-27.0,1.0,57.0,1644851960.375,P09,D08,0,0,1
2071,-27.0,1.0,57.0,1644851960.40625,P09,D08,0,0,1
2072,-27.0,1.0,57.0,1644851960.4375,P09,D08,0,0,1
2073,-27.0,1.0,57.0,1644851960.46875,P09,D08,0,0,1
2074,-27.0,1.0,57.0,1644851960.5,P09,D08,0,0,1
2075,-27.0,1.0,57.0,1644851960.53125,P09,D08,0,0,1
2076,-27.0,1.0,57.0,1644851960.5625,P09,D08,0,0,1
2077,-27.0,1.0,57.0,1644851960.59375,P09,D08,0,0,1
2078,-27.0,1.0,57.0,1644851960.625,P09,D08,0,0,1
2079,-27.0,1.0,57.0,1644851960.65625,P09,D08,0,0,1
2080,-27.0,1.0,57.0,1644851960.6875,P09,D08,0,0,1
2081,-27.0,1.0,57.0,1644851960.71875,P09,D08,0,0,1
2082,-27.0,1.0,57.0,1644851960.75,P09,D08,0,0,1
2083,-27.0,1.0,57.0,1644851960.78125,P09,D08,0,0,1
2084,-27.0,1.0,57.0,1644851960.8125,P09,D08,0,0,1
2085,-27.0,1.0,57.0,1644851960.84375,P09,D08,0,0,1
2086,-27.0,1.0,57.0,1644851960.875,P09,D08,0,0,1
2087,-27.0,1.0,57.0,1644851960.90625,P09,D08,0,0,1
2088,-27.0,1.0,57.0,1644851960.9375,P09,D08,0,0,1
2089,-27.0,1.0,57.0,1644851960.96875,P09,D08,0,0,1
2090,-27.0,1.0,57.0,1644851961.0,P09,D08,0,0,1
2091,-27.0,1.0,57.0,1644851961.03125,P09,D08,0,0,1
2092,-27.0,1.0,57.0,1644851961.0625,P09,D08,0,0,1
2093,-27.0,1.0,57.0,1644851961.09375,P09,D08,0,0,1
2094,-27.0,1.0,57.0,1644851961.125,P09,D08,0,0,1
2095,-27.0,1.0,57.0,1644851961.15625,P09,D08,0,0,1
2096,-27.0,1.0,57.0,1644851961.1875,P09,D08,0,0,1
2097,-27.0,1.0,57.0,1644851961.21875,P09,D08,0,0,1
2098,-27.0,1.0,57.0,1644851961.25,P09,D08,0,0,1
2099,-27.0,1.0,57.0,1644851961.28125,P09,D08,0,0,1
2100,-27.0,1.0,57.0,1644851961.3125,P09,D08,0,0,1
2101,-27.0,1.0,57.0,1644851961.34375,P09,D08,0,0,1
2102,-27.0,1.0,57.0,1644851961.375,P09,D08,0,0,1
2103,-27.0,1.0,57.0,1644851961.40625,P09,D08,0,0,1
2104,-27.0,1.0,57.0,1644851961.4375,P09,D08,0,0,1
2105,-27.0,1.0,57.0,1644851961.46875,P09,D08,0,0,1
2106,-27.0,1.0,57.0,1644851961.5,P09,D08,0,0,1
2107,-27.0,1.0,57.0,1644851961.53125,P09,D08,0,0,1
2108,-27.0,1.0,57.0,1644851961.5625,P09,D08,0,0,1
2109,-27.0,1.0,57.0,1644851961.59375,P09,D08,0,0,1
2110,-27.0,1.0,57.0,1644851961.625,P09,D08,0,0,1
2111,-27.0,1.0,57.0,1644851961.65625,P09,D08,0,0,1
2112,-27.0,1.0,57.0,1644851961.6875,P09,D08,0,0,1
2113,-27.0,1.0,57.0,1644851961.71875,P09,D08,0,0,1
2114,-27.0,1.0,57.0,1644851961.75,P09,D08,0,0,1
2115,-27.0,1.0,57.0,1644851961.78125,P09,D08,0,0,1
2116,-27.0,1.0,57.0,1644851961.8125,P09,D08,0,0,1
2117,-27.0,1.0,57.0,1644851961.84375,P09,D08,0,0,1
2118,-27.0,1.0,57.0,1644851961.875,P09,D08,0,0,1
2119,-27.0,1.0,57.0,1644851961.90625,P09,D08,0,0,1
2120,-27.0,1.0,57.0,1644851961.9375,P09,D08,0,0,1
2121,-27.0,1.0,57.0,1644851961.96875,P09,D08,0,0,1
2122,-27.0,1.0,57.0,1644851962.0,P09,D08,0,0,1
2123,-27.0,1.0,57.0,1644851962.03125,P09,D08,0,0,1
2124,-27.0,1.0,57.0,1644851962.0625,P09,D08,0,0,1
2125,-27.0,1.0,57.0,1644851962.09375,P09,D08,0,0,1
2126,-27.0,1.0,57.0,1644851962.125,P09,D08,0,0,1
2127,-27.0,1.0,57.0,1644851962.15625,P09,D08,0,0,1
2128,-27.0,1.0,57.0,1644851962.1875,P09,D08,0,0,1
2129,-27.0,1.0,57.0,1644851962.21875,P09,D08,0,0,1
2130,-27.0,1.0,57.0,1644851962.25,P09,D08,0,0,1
2131,-27.0,1.0,57.0,1644851962.28125,P09,D08,0,0,1
2132,-27.0,1.0,57.0,1644851962.3125,P09,D08,0,0,1
2133,-27.0,1.0,57.0,1644851962.34375,P09,D08,0,0,1
2134,-27.0,1.0,57.0,1644851962.375,P09,D08,0,0,1
2135,-27.0,1.0,57.0,1644851962.40625,P09,D08,0,0,1
2136,-27.0,1.0,57.0,1644851962.4375,P09,D08,0,0,1
2137,-27.0,1.0,57.0,1644851962.46875,P09,D08,0,0,1
2138,-27.0,1.0,57.0,1644851962.5,P09,D08,0,0,1
2139,-27.0,1.0,57.0,1644851962.53125,P09,D08,0,0,1
2140,-27.0,1.0,57.0,1644851962.5625,P09,D08,0,0,1
2141,-27.0,1.0,57.0,1644851962.59375,P09,D08,0,0,1
2142,-27.0,1.0,57.0,1644851962.625,P09,D08,0,0,1
2143,-27.0,1.0,57.0,1644851962.65625,P09,D08,0,0,1
2144,-27.0,1.0,57.0,1644851962.6875,P09,D08,0,0,1
2145,-27.0,1.0,57.0,1644851962.71875,P09,D08,0,0,1
2146,-27.0,1.0,57.0,1644851962.75,P09,D08,0,0,1
2147,-27.0,1.0,57.0,1644851962.78125,P09,D08,0,0,1
2148,-27.0,1.0,57.0,1644851962.8125,P09,D08,0,0,1
2149,-27.0,1.0,57.0,1644851962.84375,P09,D08,0,0,1
2150,-27.0,1.0,57.0,1644851962.875,P09,D08,0,0,1
2151,-27.0,1.0,57.0,1644851962.90625,P09,D08,0,0,1
2152,-27.0,1.0,57.0,1644851962.9375,P09,D08,0,0,1
2153,-27.0,1.0,57.0,1644851962.96875,P09,D08,0,0,1
2154,-27.0,1.0,57.0,1644851963.0,P09,D08,0,0,1
2155,-27.0,1.0,57.0,1644851963.03125,P09,D08,0,0,1
2156,-27.0,1.0,57.0,1644851963.0625,P09,D08,0,0,1
2157,-26.0,1.0,57.0,1644851963.09375,P09,D08,0,0,1
2158,-27.0,1.0,57.0,1644851963.125,P09,D08,0,0,1
2159,-27.0,1.0,57.0,1644851963.15625,P09,D08,0,0,1
2160,-27.0,1.0,57.0,1644851963.1875,P09,D08,0,0,1
2161,-27.0,1.0,57.0,1644851963.21875,P09,D08,0,0,1
2162,-27.0,1.0,57.0,1644851963.25,P09,D08,0,0,1
2163,-27.0,1.0,57.0,1644851963.28125,P09,D08,0,0,1
2164,-27.0,1.0,57.0,1644851963.3125,P09,D08,0,0,1
2165,-27.0,1.0,57.0,1644851963.34375,P09,D08,0,0,1
2166,-27.0,1.0,57.0,1644851963.375,P09,D08,0,0,1
2167,-27.0,1.0,57.0,1644851963.40625,P09,D08,0,0,1
2168,-27.0,1.0,57.0,1644851963.4375,P09,D08,0,0,1
2169,-27.0,1.0,57.0,1644851963.46875,P09,D08,0,0,1
2170,-27.0,1.0,57.0,1644851963.5,P09,D08,0,0,1
2171,-27.0,1.0,57.0,1644851963.53125,P09,D08,0,0,1
2172,-27.0,1.0,57.0,1644851963.5625,P09,D08,0,0,1
2173,-27.0,1.0,57.0,1644851963.59375,P09,D08,0,0,1
2174,-27.0,1.0,57.0,1644851963.625,P09,D08,0,0,1
2175,-27.0,1.0,57.0,1644851963.65625,P09,D08,0,0,1
2176,-27.0,1.0,57.0,1644851963.6875,P09,D08,0,0,1
2177,-27.0,1.0,57.0,1644851963.71875,P09,D08,0,0,1
2178,-27.0,1.0,57.0,1644851963.75,P09,D08,0,0,1
2179,-27.0,1.0,57.0,1644851963.78125,P09,D08,0,0,1
2180,-27.0,1.0,57.0,1644851963.8125,P09,D08,0,0,1
2181,-27.0,1.0,57.0,1644851963.84375,P09,D08,0,0,1
2182,-27.0,1.0,57.0,1644851963.875,P09,D08,0,0,1
2183,-27.0,1.0,57.0,1644851963.90625,P09,D08,0,0,1
2184,-28.0,1.0,57.0,1644851963.9375,P09,D08,0,0,1
2185,-27.0,1.0,57.0,1644851963.96875,P09,D08,0,0,1
2186,-27.0,1.0,57.0,1644851964.0,P09,D08,0,0,1
2187,-27.0,1.0,57.0,1644851964.03125,P09,D08,0,0,1
2188,-27.0,1.0,57.0,1644851964.0625,P09,D08,0,0,1
2189,-27.0,1.0,57.0,1644851964.09375,P09,D08,0,0,1
2190,-27.0,1.0,57.0,1644851964.125,P09,D08,0,0,1
2191,-27.0,1.0,57.0,1644851964.15625,P09,D08,0,0,1
2192,-27.0,1.0,57.0,1644851964.1875,P09,D08,0,0,1
2193,-27.0,1.0,57.0,1644851964.21875,P09,D08,0,0,1
2194,-27.0,1.0,57.0,1644851964.25,P09,D08,0,0,1
2195,-27.0,1.0,57.0,1644851964.28125,P09,D08,0,0,1
2196,-27.0,1.0,57.0,1644851964.3125,P09,D08,0,0,1
2197,-27.0,1.0,57.0,1644851964.34375,P09,D08,0,0,1
2198,-27.0,1.0,57.0,1644851964.375,P09,D08,0,0,1
2199,-27.0,1.0,57.0,1644851964.40625,P09,D08,0,0,1
2200,-27.0,1.0,57.0,1644851964.4375,P09,D08,0,0,1
2201,-27.0,1.0,57.0,1644851964.46875,P09,D08,0,0,1
2202,-27.0,1.0,57.0,1644851964.5,P09,D08,0,0,1
2203,-27.0,1.0,57.0,1644851964.53125,P09,D08,0,0,1
2204,-28.0,1.0,57.0,1644851964.5625,P09,D08,0,0,1
2205,-27.0,1.0,57.0,1644851964.59375,P09,D08,0,0,1
2206,-27.0,1.0,57.0,1644851964.625,P09,D08,0,0,1
2207,-27.0,1.0,57.0,1644851964.65625,P09,D08,0,0,1
2208,-27.0,1.0,57.0,1644851964.6875,P09,D08,0,0,1
2209,-27.0,1.0,57.0,1644851964.71875,P09,D08,0,0,1
2210,-27.0,1.0,57.0,1644851964.75,P09,D08,0,0,1
2211,-27.0,1.0,57.0,1644851964.78125,P09,D08,0,0,1
2212,-27.0,1.0,57.0,1644851964.8125,P09,D08,0,0,1
2213,-27.0,1.0,57.0,1644851964.84375,P09,D08,0,0,1
2214,-27.0,1.0,57.0,1644851964.875,P09,D08,0,0,1
2215,-27.0,1.0,57.0,1644851964.90625,P09,D08,0,0,1
2216,-27.0,1.0,57.0,1644851964.9375,P09,D08,0,0,1
2217,-27.0,1.0,57.0,1644851964.96875,P09,D08,0,0,1
2218,-27.0,1.0,57.0,1644851965.0,P09,D08,0,0,1
2219,-27.0,1.0,57.0,1644851965.03125,P09,D08,0,0,1
2220,-27.0,1.0,57.0,1644851965.0625,P09,D08,0,0,1
2221,-27.0,1.0,57.0,1644851965.09375,P09,D08,0,0,1
2222,-27.0,1.0,57.0,1644851965.125,P09,D08,0,0,1
2223,-27.0,1.0,57.0,1644851965.15625,P09,D08,0,0,1
2224,-27.0,1.0,57.0,1644851965.1875,P09,D08,0,0,1
2225,-27.0,1.0,57.0,1644851965.21875,P09,D08,0,0,1
2226,-27.0,1.0,57.0,1644851965.25,P09,D08,0,0,1
2227,-27.0,1.0,57.0,1644851965.28125,P09,D08,0,0,1
2228,-27.0,1.0,57.0,1644851965.3125,P09,D08,0,0,1
2229,-27.0,1.0,57.0,1644851965.34375,P09,D08,0,0,1
2230,-27.0,1.0,57.0,1644851965.375,P09,D08,0,0,1
2231,-27.0,1.0,57.0,1644851965.40625,P09,D08,0,0,1
2232,-27.0,1.0,57.0,1644851965.4375,P09,D08,0,0,1
2233,-27.0,1.0,57.0,1644851965.46875,P09,D08,0,0,1
2234,-27.0,1.0,57.0,1644851965.5,P09,D08,0,0,1
2235,-27.0,1.0,57.0,1644851965.53125,P09,D08,0,0,1
2236,-27.0,1.0,57.0,1644851965.5625,P09,D08,0,0,1
2237,-27.0,1.0,57.0,1644851965.59375,P09,D08,0,0,1
2238,-27.0,1.0,57.0,1644851965.625,P09,D08,0,0,1
2239,-27.0,1.0,57.0,1644851965.65625,P09,D08,0,0,1
2240,-27.0,1.0,57.0,1644851965.6875,P09,D08,0,0,1
2241,-27.0,1.0,57.0,1644851965.71875,P09,D08,0,0,1
2242,-27.0,1.0,57.0,1644851965.75,P09,D08,0,0,1
2243,-27.0,1.0,57.0,1644851965.78125,P09,D08,0,0,1
2244,-27.0,1.0,57.0,1644851965.8125,P09,D08,0,0,1
2245,-27.0,1.0,57.0,1644851965.84375,P09,D08,0,0,1
2246,-27.0,1.0,57.0,1644851965.875,P09,D08,0,0,1
2247,-27.0,1.0,57.0,1644851965.90625,P09,D08,0,0,1
2248,-27.0,1.0,57.0,1644851965.9375,P09,D08,0,0,1
2249,-27.0,1.0,57.0,1644851965.96875,P09,D08,0,0,1
2250,-27.0,1.0,57.0,1644851966.0,P09,D08,0,0,1
2251,-27.0,1.0,57.0,1644851966.03125,P09,D08,0,0,1
2252,-27.0,1.0,57.0,1644851966.0625,P09,D08,0,0,1
2253,-27.0,1.0,57.0,1644851966.09375,P09,D08,0,0,1
2254,-27.0,1.0,57.0,1644851966.125,P09,D08,0,0,1
2255,-27.0,1.0,57.0,1644851966.15625,P09,D08,0,0,1
2256,-27.0,1.0,57.0,1644851966.1875,P09,D08,0,0,1
2257,-27.0,1.0,57.0,1644851966.21875,P09,D08,0,0,1
2258,-27.0,1.0,57.0,1644851966.25,P09,D08,0,0,1
2259,-27.0,1.0,57.0,1644851966.28125,P09,D08,0,0,1
2260,-27.0,1.0,57.0,1644851966.3125,P09,D08,0,0,1
2261,-27.0,1.0,57.0,1644851966.34375,P09,D08,0,0,1
2262,-27.0,1.0,57.0,1644851966.375,P09,D08,0,0,1
2263,-27.0,1.0,57.0,1644851966.40625,P09,D08,0,0,1
2264,-27.0,1.0,58.0,1644851966.4375,P09,D08,0,0,1
2265,-27.0,1.0,57.0,1644851966.46875,P09,D08,0,0,1
2266,-27.0,1.0,57.0,1644851966.5,P09,D08,0,0,1
2267,-27.0,1.0,57.0,1644851966.53125,P09,D08,0,0,1
2268,-27.0,1.0,57.0,1644851966.5625,P09,D08,0,0,1
2269,-27.0,1.0,57.0,1644851966.59375,P09,D08,0,0,1
2270,-27.0,1.0,57.0,1644851966.625,P09,D08,0,0,1
2271,-27.0,1.0,57.0,1644851966.65625,P09,D08,0,0,1
2272,-27.0,1.0,57.0,1644851966.6875,P09,D08,0,0,1
2273,-27.0,1.0,57.0,1644851966.71875,P09,D08,0,0,1
2274,-27.0,1.0,57.0,1644851966.75,P09,D08,0,0,1
2275,-27.0,1.0,57.0,1644851966.78125,P09,D08,0,0,1
2276,-27.0,1.0,57.0,1644851966.8125,P09,D08,0,0,1
2277,-27.0,1.0,57.0,1644851966.84375,P09,D08,0,0,1
2278,-27.0,1.0,57.0,1644851966.875,P09,D08,0,0,1
2279,-27.0,1.0,57.0,1644851966.90625,P09,D08,0,0,1
2280,-27.0,1.0,57.0,1644851966.9375,P09,D08,0,0,1
2281,-27.0,1.0,57.0,1644851966.96875,P09,D08,0,0,1
2282,-27.0,1.0,57.0,1644851967.0,P09,D08,0,0,1
2283,-27.0,1.0,57.0,1644851967.03125,P09,D08,0,0,1
2284,-27.0,1.0,57.0,1644851967.0625,P09,D08,0,0,1
2285,-27.0,1.0,57.0,1644851967.09375,P09,D08,0,0,1
2286,-27.0,1.0,57.0,1644851967.125,P09,D08,0,0,1
2287,-27.0,1.0,57.0,1644851967.15625,P09,D08,0,0,1
2288,-27.0,1.0,57.0,1644851967.1875,P09,D08,0,0,1
2289,-27.0,1.0,57.0,1644851967.21875,P09,D08,0,0,1
2290,-27.0,1.0,57.0,1644851967.25,P09,D08,0,0,1
2291,-27.0,1.0,57.0,1644851967.28125,P09,D08,0,0,1
2292,-27.0,1.0,57.0,1644851967.3125,P09,D08,0,0,1
2293,-27.0,1.0,57.0,1644851967.34375,P09,D08,0,0,1
2294,-27.0,1.0,57.0,1644851967.375,P09,D08,0,0,1
2295,-27.0,1.0,57.0,1644851967.40625,P09,D08,0,0,1
2296,-27.0,1.0,57.0,1644851967.4375,P09,D08,0,0,1
2297,-27.0,1.0,57.0,1644851967.46875,P09,D08,0,0,1
2298,-27.0,1.0,57.0,1644851967.5,P09,D08,0,0,1
2299,-27.0,1.0,57.0,1644851967.53125,P09,D08,0,0,1
2300,-27.0,1.0,57.0,1644851967.5625,P09,D08,0,0,1
2301,-27.0,1.0,57.0,1644851967.59375,P09,D08,0,0,1
2302,-27.0,1.0,57.0,1644851967.625,P09,D08,0,0,1
2303,-27.0,1.0,57.0,1644851967.65625,P09,D08,0,0,1
2304,-27.0,1.0,57.0,1644851967.6875,P09,D08,0,0,1
2305,-27.0,1.0,57.0,1644851967.71875,P09,D08,0,0,1
2306,-27.0,1.0,57.0,1644851967.75,P09,D08,0,0,1
2307,-27.0,1.0,57.0,1644851967.78125,P09,D08,0,0,1
2308,-27.0,1.0,57.0,1644851967.8125,P09,D08,0,0,1
2309,-27.0,1.0,57.0,1644851967.84375,P09,D08,0,0,1
2310,-27.0,1.0,57.0,1644851967.875,P09,D08,0,0,1
2311,-27.0,1.0,57.0,1644851967.90625,P09,D08,0,0,1
2312,-27.0,1.0,57.0,1644851967.9375,P09,D08,0,0,1
2313,-27.0,1.0,57.0,1644851967.96875,P09,D08,0,0,1
2314,-27.0,1.0,57.0,1644851968.0,P09,D08,0,0,1
2315,-27.0,1.0,57.0,1644851968.03125,P09,D08,0,0,1
2316,-27.0,1.0,57.0,1644851968.0625,P09,D08,0,0,1
2317,-27.0,1.0,57.0,1644851968.09375,P09,D08,0,0,1
2318,-27.0,1.0,57.0,1644851968.125,P09,D08,0,0,1
2319,-27.0,1.0,57.0,1644851968.15625,P09,D08,0,0,1
2320,-27.0,1.0,57.0,1644851968.1875,P09,D08,0,0,1
2321,-27.0,1.0,57.0,1644851968.21875,P09,D08,0,0,1
2322,-26.0,1.0,57.0,1644851968.25,P09,D08,0,0,1
2323,-27.0,1.0,57.0,1644851968.28125,P09,D08,0,0,1
2324,-27.0,1.0,57.0,1644851968.3125,P09,D08,0,0,1
2325,-27.0,1.0,57.0,1644851968.34375,P09,D08,0,0,1
2326,-27.0,1.0,57.0,1644851968.375,P09,D08,0,0,1
2327,-27.0,1.0,57.0,1644851968.40625,P09,D08,0,0,1
2328,-27.0,1.0,57.0,1644851968.4375,P09,D08,0,0,1
2329,-27.0,1.0,57.0,1644851968.46875,P09,D08,0,0,1
2330,-27.0,1.0,57.0,1644851968.5,P09,D08,0,0,1
2331,-26.0,1.0,57.0,1644851968.53125,P09,D08,0,0,1
2332,-27.0,1.0,57.0,1644851968.5625,P09,D08,0,0,1
2333,-27.0,1.0,57.0,1644851968.59375,P09,D08,0,0,1
2334,-27.0,1.0,57.0,1644851968.625,P09,D08,0,0,1
2335,-27.0,1.0,57.0,1644851968.65625,P09,D08,0,0,1
2336,-27.0,1.0,57.0,1644851968.6875,P09,D08,0,0,1
2337,-27.0,1.0,57.0,1644851968.71875,P09,D08,0,0,1
2338,-27.0,1.0,57.0,1644851968.75,P09,D08,0,0,1
2339,-27.0,1.0,57.0,1644851968.78125,P09,D08,0,0,1
2340,-27.0,1.0,57.0,1644851968.8125,P09,D08,0,0,1
2341,-27.0,1.0,57.0,1644851968.84375,P09,D08,0,0,1
2342,-27.0,1.0,57.0,1644851968.875,P09,D08,0,0,1
2343,-27.0,1.0,57.0,1644851968.90625,P09,D08,0,0,1
2344,-27.0,1.0,57.0,1644851968.9375,P09,D08,0,0,1
2345,-27.0,1.0,57.0,1644851968.96875,P09,D08,0,0,1
2346,-27.0,1.0,57.0,1644851969.0,P09,D08,0,0,1
2347,-27.0,1.0,57.0,1644851969.03125,P09,D08,0,0,1
2348,-27.0,1.0,57.0,1644851969.0625,P09,D08,0,0,1
2349,-27.0,1.0,57.0,1644851969.09375,P09,D08,0,0,1
2350,-27.0,1.0,57.0,1644851969.125,P09,D08,0,0,1
2351,-27.0,1.0,57.0,1644851969.15625,P09,D08,0,0,1
2352,-27.0,1.0,57.0,1644851969.1875,P09,D08,0,0,1
2353,-27.0,1.0,57.0,1644851969.21875,P09,D08,0,0,1
2354,-27.0,1.0,57.0,1644851969.25,P09,D08,0,0,1
2355,-27.0,1.0,57.0,1644851969.28125,P09,D08,0,0,1
2356,-27.0,1.0,57.0,1644851969.3125,P09,D08,0,0,1
2357,-27.0,1.0,57.0,1644851969.34375,P09,D08,0,0,1
2358,-27.0,1.0,57.0,1644851969.375,P09,D08,0,0,1
2359,-27.0,1.0,57.0,1644851969.40625,P09,D08,0,0,1
2360,-27.0,1.0,57.0,1644851969.4375,P09,D08,0,0,1
2361,-27.0,1.0,57.0,1644851969.46875,P09,D08,0,0,1
2362,-27.0,1.0,57.0,1644851969.5,P09,D08,0,0,1
2363,-27.0,1.0,57.0,1644851969.53125,P09,D08,0,0,1
2364,-27.0,1.0,57.0,1644851969.5625,P09,D08,0,0,1
2365,-27.0,1.0,57.0,1644851969.59375,P09,D08,0,0,1
2366,-27.0,1.0,57.0,1644851969.625,P09,D08,0,0,1
2367,-27.0,1.0,57.0,1644851969.65625,P09,D08,0,0,1
2368,-27.0,1.0,57.0,1644851969.6875,P09,D08,0,0,1
2369,-27.0,1.0,57.0,1644851969.71875,P09,D08,0,0,1
2370,-27.0,1.0,57.0,1644851969.75,P09,D08,0,0,1
2371,-27.0,1.0,57.0,1644851969.78125,P09,D08,0,0,1
2372,-27.0,1.0,57.0,1644851969.8125,P09,D08,0,0,1
2373,-27.0,1.0,57.0,1644851969.84375,P09,D08,0,0,1
2374,-27.0,1.0,57.0,1644851969.875,P09,D08,0,0,1
2375,-27.0,1.0,57.0,1644851969.90625,P09,D08,0,0,1
2376,-27.0,1.0,57.0,1644851969.9375,P09,D08,0,0,1
2377,-27.0,1.0,57.0,1644851969.96875,P09,D08,0,0,1
2378,-27.0,1.0,57.0,1644851970.0,P09,D08,0,0,1
2379,-27.0,1.0,57.0,1644851970.03125,P09,D08,0,0,1
2380,-27.0,1.0,57.0,1644851970.0625,P09,D08,0,0,1
2381,-27.0,1.0,57.0,1644851970.09375,P09,D08,0,0,1
2382,-27.0,1.0,57.0,1644851970.125,P09,D08,0,0,1
2383,-27.0,1.0,57.0,1644851970.15625,P09,D08,0,0,1
2384,-27.0,1.0,57.0,1644851970.1875,P09,D08,0,0,1
2385,-27.0,1.0,57.0,1644851970.21875,P09,D08,0,0,1
2386,-27.0,1.0,57.0,1644851970.25,P09,D08,0,0,1
2387,-27.0,1.0,57.0,1644851970.28125,P09,D08,0,0,1
2388,-27.0,1.0,57.0,1644851970.3125,P09,D08,0,0,1
2389,-27.0,1.0,57.0,1644851970.34375,P09,D08,0,0,1
2390,-27.0,1.0,57.0,1644851970.375,P09,D08,0,0,1
2391,-27.0,1.0,57.0,1644851970.40625,P09,D08,0,0,1
2392,-27.0,1.0,57.0,1644851970.4375,P09,D08,0,0,1
2393,-27.0,1.0,57.0,1644851970.46875,P09,D08,0,0,1
2394,-27.0,1.0,57.0,1644851970.5,P09,D08,0,0,1
2395,-27.0,1.0,57.0,1644851970.53125,P09,D08,0,0,1
2396,-27.0,1.0,57.0,1644851970.5625,P09,D08,0,0,1
2397,-27.0,1.0,57.0,1644851970.59375,P09,D08,0,0,1
2398,-27.0,1.0,57.0,1644851970.625,P09,D08,0,0,1
2399,-27.0,1.0,57.0,1644851970.65625,P09,D08,0,0,1
2400,-27.0,1.0,57.0,1644851970.6875,P09,D08,0,0,1
2401,-27.0,1.0,57.0,1644851970.71875,P09,D08,0,0,1
2402,-27.0,1.0,57.0,1644851970.75,P09,D08,0,0,1
2403,-27.0,1.0,57.0,1644851970.78125,P09,D08,0,0,1
2404,-27.0,1.0,57.0,1644851970.8125,P09,D08,0,0,1
2405,-27.0,1.0,57.0,1644851970.84375,P09,D08,0,0,1
2406,-27.0,1.0,57.0,1644851970.875,P09,D08,0,0,1
2407,-27.0,1.0,57.0,1644851970.90625,P09,D08,0,0,1
2408,-27.0,1.0,57.0,1644851970.9375,P09,D08,0,0,1
2409,-27.0,1.0,57.0,1644851970.96875,P09,D08,0,0,1
2410,-27.0,1.0,57.0,1644851971.0,P09,D08,0,0,1
2411,-27.0,1.0,57.0,1644851971.03125,P09,D08,0,0,1
2412,-27.0,1.0,57.0,1644851971.0625,P09,D08,0,0,1
2413,-27.0,1.0,57.0,1644851971.09375,P09,D08,0,0,1
2414,-27.0,1.0,57.0,1644851971.125,P09,D08,0,0,1
2415,-27.0,1.0,57.0,1644851971.15625,P09,D08,0,0,1
2416,-27.0,1.0,57.0,1644851971.1875,P09,D08,0,0,1
