,acc_x,acc_y,acc_z,timestamp,participant,document,val,arou,eng
0,-36.0,-31.0,44.0,1645104104.84375,P11,D03,0,0,1
1,-36.0,-31.0,44.0,1645104104.875,P11,D03,0,0,1
2,-35.0,-30.0,44.0,1645104104.90625,P11,D03,0,0,1
3,-35.0,-30.0,44.0,1645104104.9375,P11,D03,0,0,1
4,-35.0,-31.0,44.0,1645104104.96875,P11,D03,0,0,1
5,-35.0,-31.0,44.0,1645104105.0,P11,D03,0,0,1
6,-35.0,-30.0,44.0,1645104105.03125,P11,D03,0,0,1
7,-35.0,-30.0,44.0,1645104105.0625,P11,D03,0,0,1
8,-35.0,-30.0,44.0,1645104105.09375,P11,D03,0,0,1
9,-35.0,-30.0,44.0,1645104105.125,P11,D03,0,0,1
10,-35.0,-30.0,44.0,1645104105.15625,P11,D03,0,0,1
11,-35.0,-30.0,44.0,1645104105.1875,P11,D03,0,0,1
12,-34.0,-30.0,44.0,1645104105.21875,P11,D03,0,0,1
13,-35.0,-30.0,44.0,1645104105.25,P11,D03,0,0,1
14,-35.0,-30.0,44.0,1645104105.28125,P11,D03,0,0,1
15,-35.0,-29.0,45.0,1645104105.3125,P11,D03,0,0,1
16,-35.0,-29.0,44.0,1645104105.34375,P11,D03,0,0,1
17,-35.0,-29.0,44.0,1645104105.375,P11,D03,0,0,1
18,-35.0,-29.0,44.0,1645104105.40625,P11,D03,0,0,1
19,-35.0,-30.0,44.0,1645104105.4375,P11,D03,0,0,1
20,-35.0,-29.0,44.0,1645104105.46875,P11,D03,0,0,1
21,-35.0,-29.0,44.0,1645104105.5,P11,D03,0,0,1
22,-35.0,-29.0,44.0,1645104105.53125,P11,D03,0,0,1
23,-36.0,-30.0,43.0,1645104105.5625,P11,D03,0,0,1
24,-36.0,-31.0,43.0,1645104105.59375,P11,D03,0,0,1
25,-36.0,-32.0,43.0,1645104105.625,P11,D03,0,0,1
26,-36.0,-32.0,43.0,1645104105.65625,P11,D03,0,0,1
27,-36.0,-31.0,43.0,1645104105.6875,P11,D03,0,0,1
28,-36.0,-31.0,43.0,1645104105.71875,P11,D03,0,0,1
29,-36.0,-31.0,43.0,1645104105.75,P11,D03,0,0,1
30,-36.0,-31.0,42.0,1645104105.78125,P11,D03,0,0,1
31,-36.0,-30.0,43.0,1645104105.8125,P11,D03,0,0,1
32,-36.0,-30.0,42.0,1645104105.84375,P11,D03,0,0,1
33,-36.0,-30.0,42.0,1645104105.875,P11,D03,0,0,1
34,-37.0,-31.0,42.0,1645104105.90625,P11,D03,0,0,1
35,-36.0,-31.0,43.0,1645104105.9375,P11,D03,0,0,1
36,-36.0,-31.0,42.0,1645104105.96875,P11,D03,0,0,1
37,-36.0,-30.0,43.0,1645104106.0,P11,D03,0,0,1
38,-36.0,-30.0,42.0,1645104106.03125,P11,D03,0,0,1
39,-36.0,-30.0,42.0,1645104106.0625,P11,D03,0,0,1
40,-37.0,-31.0,42.0,1645104106.09375,P11,D03,0,0,1
41,-36.0,-32.0,42.0,1645104106.125,P11,D03,0,0,1
42,-36.0,-32.0,43.0,1645104106.15625,P11,D03,0,0,1
43,-36.0,-32.0,43.0,1645104106.1875,P11,D03,0,0,1
44,-36.0,-31.0,43.0,1645104106.21875,P11,D03,0,0,1
45,-36.0,-31.0,42.0,1645104106.25,P11,D03,0,0,1
46,-36.0,-30.0,43.0,1645104106.28125,P11,D03,0,0,1
47,-36.0,-30.0,42.0,1645104106.3125,P11,D03,0,0,1
48,-36.0,-30.0,42.0,1645104106.34375,P11,D03,0,0,1
49,-36.0,-30.0,42.0,1645104106.375,P11,D03,0,0,1
50,-36.0,-30.0,42.0,1645104106.40625,P11,D03,0,0,1
51,-36.0,-30.0,43.0,1645104106.4375,P11,D03,0,0,1
52,-36.0,-31.0,43.0,1645104106.46875,P11,D03,0,0,1
53,-36.0,-31.0,43.0,1645104106.5,P11,D03,0,0,1
54,-36.0,-31.0,43.0,1645104106.53125,P11,D03,0,0,1
55,-36.0,-31.0,43.0,1645104106.5625,P11,D03,0,0,1
56,-37.0,-31.0,42.0,1645104106.59375,P11,D03,0,0,1
57,-37.0,-31.0,42.0,1645104106.625,P11,D03,0,0,1
58,-37.0,-31.0,42.0,1645104106.65625,P11,D03,0,0,1
59,-36.0,-31.0,42.0,1645104106.6875,P11,D03,0,0,1
60,-36.0,-31.0,42.0,1645104106.71875,P11,D03,0,0,1
61,-37.0,-31.0,42.0,1645104106.75,P11,D03,0,0,1
62,-37.0,-31.0,42.0,1645104106.78125,P11,D03,0,0,1
63,-36.0,-31.0,42.0,1645104106.8125,P11,D03,0,0,1
64,-37.0,-31.0,42.0,1645104106.84375,P11,D03,0,0,1
65,-36.0,-31.0,42.0,1645104106.875,P11,D03,0,0,1
66,-36.0,-31.0,42.0,1645104106.90625,P11,D03,0,0,1
67,-36.0,-31.0,42.0,1645104106.9375,P11,D03,0,0,1
68,-36.0,-31.0,42.0,1645104106.96875,P11,D03,0,0,1
69,-36.0,-31.0,42.0,1645104107.0,P11,D03,0,0,1
70,-36.0,-31.0,42.0,1645104107.03125,P11,D03,0,0,1
71,-36.0,-31.0,42.0,1645104107.0625,P11,D03,0,0,1
72,-36.0,-31.0,43.0,1645104107.09375,P11,D03,0,0,1
73,-36.0,-31.0,42.0,1645104107.125,P11,D03,0,0,1
74,-36.0,-31.0,42.0,1645104107.15625,P11,D03,0,0,1
75,-36.0,-31.0,42.0,1645104107.1875,P11,D03,0,0,1
76,-36.0,-31.0,42.0,1645104107.21875,P11,D03,0,0,1
77,-36.0,-31.0,42.0,1645104107.25,P11,D03,0,0,1
78,-37.0,-31.0,42.0,1645104107.28125,P11,D03,0,0,1
79,-36.0,-31.0,42.0,1645104107.3125,P11,D03,0,0,1
80,-36.0,-30.0,43.0,1645104107.34375,P11,D03,0,0,1
81,-36.0,-31.0,43.0,1645104107.375,P11,D03,0,0,1
82,-36.0,-30.0,42.0,1645104107.40625,P11,D03,0,0,1
83,-36.0,-30.0,43.0,1645104107.4375,P11,D03,0,0,1
84,-36.0,-30.0,43.0,1645104107.46875,P11,D03,0,0,1
85,-36.0,-30.0,42.0,1645104107.5,P11,D03,0,0,1
86,-36.0,-31.0,43.0,1645104107.53125,P11,D03,0,0,1
87,-36.0,-30.0,43.0,1645104107.5625,P11,D03,0,0,1
88,-36.0,-30.0,43.0,1645104107.59375,P11,D03,0,0,1
89,-36.0,-31.0,42.0,1645104107.625,P11,D03,0,0,1
90,-37.0,-31.0,42.0,1645104107.65625,P11,D03,0,0,1
91,-36.0,-31.0,43.0,1645104107.6875,P11,D03,0,0,1
92,-36.0,-31.0,43.0,1645104107.71875,P11,D03,0,0,1
93,-37.0,-31.0,42.0,1645104107.75,P11,D03,0,0,1
94,-37.0,-31.0,42.0,1645104107.78125,P11,D03,0,0,1
95,-36.0,-31.0,43.0,1645104107.8125,P11,D03,0,0,1
96,-36.0,-31.0,42.0,1645104107.84375,P11,D03,0,0,1
97,-37.0,-31.0,42.0,1645104107.875,P11,D03,0,0,1
98,-36.0,-31.0,42.0,1645104107.90625,P11,D03,0,0,1
99,-37.0,-31.0,42.0,1645104107.9375,P11,D03,0,0,1
100,-36.0,-31.0,42.0,1645104107.96875,P11,D03,0,0,1
101,-36.0,-31.0,43.0,1645104108.0,P11,D03,0,0,1
102,-36.0,-31.0,42.0,1645104108.03125,P11,D03,0,0,1
103,-37.0,-31.0,42.0,1645104108.0625,P11,D03,0,0,1
104,-36.0,-31.0,42.0,1645104108.09375,P11,D03,0,0,1
105,-36.0,-31.0,42.0,1645104108.125,P11,D03,0,0,1
106,-36.0,-31.0,42.0,1645104108.15625,P11,D03,0,0,1
107,-36.0,-31.0,42.0,1645104108.1875,P11,D03,0,0,1
108,-36.0,-31.0,42.0,1645104108.21875,P11,D03,0,0,1
109,-36.0,-31.0,42.0,1645104108.25,P11,D03,0,0,1
110,-36.0,-31.0,42.0,1645104108.28125,P11,D03,0,0,1
111,-37.0,-31.0,42.0,1645104108.3125,P11,D03,0,0,1
112,-36.0,-31.0,42.0,1645104108.34375,P11,D03,0,0,1
113,-36.0,-31.0,42.0,1645104108.375,P11,D03,0,0,1
114,-36.0,-31.0,42.0,1645104108.40625,P11,D03,0,0,1
115,-36.0,-31.0,42.0,1645104108.4375,P11,D03,0,0,1
116,-36.0,-31.0,42.0,1645104108.46875,P11,D03,0,0,1
117,-37.0,-31.0,42.0,1645104108.5,P11,D03,0,0,1
118,-36.0,-31.0,42.0,1645104108.53125,P11,D03,0,0,1
119,-37.0,-31.0,42.0,1645104108.5625,P11,D03,0,0,1
120,-37.0,-31.0,42.0,1645104108.59375,P11,D03,0,0,1
121,-36.0,-31.0,42.0,1645104108.625,P11,D03,0,0,1
122,-36.0,-32.0,42.0,1645104108.65625,P11,D03,0,0,1
123,-36.0,-31.0,42.0,1645104108.6875,P11,D03,0,0,1
124,-36.0,-31.0,42.0,1645104108.71875,P11,D03,0,0,1
125,-36.0,-31.0,42.0,1645104108.75,P11,D03,0,0,1
126,-36.0,-31.0,42.0,1645104108.78125,P11,D03,0,0,1
127,-36.0,-31.0,42.0,1645104108.8125,P11,D03,0,0,1
128,-36.0,-31.0,42.0,1645104108.84375,P11,D03,0,0,1
129,-36.0,-31.0,42.0,1645104108.875,P11,D03,0,0,1
130,-36.0,-32.0,42.0,1645104108.90625,P11,D03,0,0,1
131,-37.0,-31.0,42.0,1645104108.9375,P11,D03,0,0,1
132,-36.0,-31.0,42.0,1645104108.96875,P11,D03,0,0,1
133,-36.0,-31.0,42.0,1645104109.0,P11,D03,0,0,1
134,-36.0,-31.0,42.0,1645104109.03125,P11,D03,0,0,1
135,-36.0,-31.0,42.0,1645104109.0625,P11,D03,0,0,1
136,-36.0,-31.0,42.0,1645104109.09375,P11,D03,0,0,1
137,-36.0,-31.0,42.0,1645104109.125,P11,D03,0,0,1
138,-36.0,-31.0,42.0,1645104109.15625,P11,D03,0,0,1
139,-36.0,-31.0,42.0,1645104109.1875,P11,D03,0,0,1
140,-37.0,-31.0,42.0,1645104109.21875,P11,D03,0,0,1
141,-36.0,-31.0,42.0,1645104109.25,P11,D03,0,0,1
142,-36.0,-31.0,42.0,1645104109.28125,P11,D03,0,0,1
143,-37.0,-31.0,42.0,1645104109.3125,P11,D03,0,0,1
144,-36.0,-31.0,42.0,1645104109.34375,P11,D03,0,0,1
145,-36.0,-31.0,42.0,1645104109.375,P11,D03,0,0,1
146,-36.0,-31.0,42.0,1645104109.40625,P11,D03,0,0,1
147,-36.0,-31.0,42.0,1645104109.4375,P11,D03,0,0,1
148,-36.0,-31.0,42.0,1645104109.46875,P11,D03,0,0,1
149,-36.0,-31.0,42.0,1645104109.5,P11,D03,0,0,1
150,-36.0,-31.0,42.0,1645104109.53125,P11,D03,0,0,1
151,-37.0,-31.0,42.0,1645104109.5625,P11,D03,0,0,1
152,-36.0,-31.0,42.0,1645104109.59375,P11,D03,0,0,1
153,-36.0,-31.0,42.0,1645104109.625,P11,D03,0,0,1
154,-36.0,-31.0,42.0,1645104109.65625,P11,D03,0,0,1
155,-36.0,-31.0,42.0,1645104109.6875,P11,D03,0,0,1
156,-36.0,-31.0,42.0,1645104109.71875,P11,D03,0,0,1
157,-37.0,-31.0,42.0,1645104109.75,P11,D03,0,0,1
158,-37.0,-31.0,42.0,1645104109.78125,P11,D03,0,0,1
159,-36.0,-31.0,42.0,1645104109.8125,P11,D03,0,0,1
160,-36.0,-31.0,42.0,1645104109.84375,P11,D03,0,0,1
161,-37.0,-31.0,42.0,1645104109.875,P11,D03,0,0,1
162,-37.0,-31.0,42.0,1645104109.90625,P11,D03,0,0,1
163,-37.0,-31.0,42.0,1645104109.9375,P11,D03,0,0,1
164,-36.0,-31.0,42.0,1645104109.96875,P11,D03,0,0,1
165,-36.0,-31.0,42.0,1645104110.0,P11,D03,0,0,1
166,-36.0,-31.0,42.0,1645104110.03125,P11,D03,0,0,1
167,-36.0,-31.0,43.0,1645104110.0625,P11,D03,0,0,1
168,-36.0,-31.0,42.0,1645104110.09375,P11,D03,0,0,1
169,-36.0,-31.0,42.0,1645104110.125,P11,D03,0,0,1
170,-36.0,-31.0,42.0,1645104110.15625,P11,D03,0,0,1
171,-36.0,-31.0,42.0,1645104110.1875,P11,D03,0,0,1
172,-36.0,-31.0,42.0,1645104110.21875,P11,D03,0,0,1
173,-36.0,-31.0,42.0,1645104110.25,P11,D03,0,0,1
174,-36.0,-31.0,42.0,1645104110.28125,P11,D03,0,0,1
175,-36.0,-31.0,42.0,1645104110.3125,P11,D03,0,0,1
176,-36.0,-31.0,42.0,1645104110.34375,P11,D03,0,0,1
177,-36.0,-31.0,42.0,1645104110.375,P11,D03,0,0,1
178,-36.0,-31.0,42.0,1645104110.40625,P11,D03,0,0,1
179,-37.0,-31.0,42.0,1645104110.4375,P11,D03,0,0,1
180,-36.0,-31.0,42.0,1645104110.46875,P11,D03,0,0,1
181,-36.0,-31.0,42.0,1645104110.5,P11,D03,0,0,1
182,-36.0,-31.0,42.0,1645104110.53125,P11,D03,0,0,1
183,-37.0,-31.0,42.0,1645104110.5625,P11,D03,0,0,1
184,-36.0,-31.0,42.0,1645104110.59375,P11,D03,0,0,1
185,-36.0,-31.0,42.0,1645104110.625,P11,D03,0,0,1
186,-37.0,-31.0,42.0,1645104110.65625,P11,D03,0,0,1
187,-36.0,-31.0,42.0,1645104110.6875,P11,D03,0,0,1
188,-36.0,-31.0,42.0,1645104110.71875,P11,D03,0,0,1
189,-37.0,-31.0,42.0,1645104110.75,P11,D03,0,0,1
190,-37.0,-31.0,42.0,1645104110.78125,P11,D03,0,0,1
191,-36.0,-31.0,42.0,1645104110.8125,P11,D03,0,0,1
192,-36.0,-31.0,42.0,1645104110.84375,P11,D03,0,0,1
193,-37.0,-31.0,42.0,1645104110.875,P11,D03,0,0,1
194,-36.0,-31.0,42.0,1645104110.90625,P11,D03,0,0,1
195,-36.0,-31.0,42.0,1645104110.9375,P11,D03,0,0,1
196,-37.0,-31.0,42.0,1645104110.96875,P11,D03,0,0,1
197,-36.0,-31.0,42.0,1645104111.0,P11,D03,0,0,1
198,-36.0,-31.0,42.0,1645104111.03125,P11,D03,0,0,1
199,-36.0,-31.0,42.0,1645104111.0625,P11,D03,0,0,1
200,-37.0,-31.0,42.0,1645104111.09375,P11,D03,0,0,1
201,-37.0,-31.0,42.0,1645104111.125,P11,D03,0,0,1
202,-36.0,-31.0,42.0,1645104111.15625,P11,D03,0,0,1
203,-37.0,-31.0,42.0,1645104111.1875,P11,D03,0,0,1
204,-37.0,-31.0,42.0,1645104111.21875,P11,D03,0,0,1
205,-36.0,-31.0,42.0,1645104111.25,P11,D03,0,0,1
206,-36.0,-31.0,42.0,1645104111.28125,P11,D03,0,0,1
207,-36.0,-31.0,42.0,1645104111.3125,P11,D03,0,0,1
208,-36.0,-31.0,42.0,1645104111.34375,P11,D03,0,0,1
209,-36.0,-31.0,42.0,1645104111.375,P11,D03,0,0,1
210,-37.0,-31.0,42.0,1645104111.40625,P11,D03,0,0,1
211,-37.0,-31.0,42.0,1645104111.4375,P11,D03,0,0,1
212,-36.0,-31.0,42.0,1645104111.46875,P11,D03,0,0,1
213,-36.0,-31.0,42.0,1645104111.5,P11,D03,0,0,1
214,-37.0,-31.0,42.0,1645104111.53125,P11,D03,0,0,1
215,-37.0,-32.0,42.0,1645104111.5625,P11,D03,0,0,1
216,-37.0,-31.0,42.0,1645104111.59375,P11,D03,0,0,1
217,-36.0,-31.0,42.0,1645104111.625,P11,D03,0,0,1
218,-36.0,-31.0,42.0,1645104111.65625,P11,D03,0,0,1
219,-36.0,-31.0,42.0,1645104111.6875,P11,D03,0,0,1
220,-36.0,-31.0,42.0,1645104111.71875,P11,D03,0,0,1
221,-36.0,-31.0,42.0,1645104111.75,P11,D03,0,0,1
222,-36.0,-31.0,42.0,1645104111.78125,P11,D03,0,0,1
223,-36.0,-31.0,42.0,1645104111.8125,P11,D03,0,0,1
224,-36.0,-31.0,42.0,1645104111.84375,P11,D03,0,0,1
225,-36.0,-31.0,42.0,1645104111.875,P11,D03,0,0,1
226,-37.0,-32.0,42.0,1645104111.90625,P11,D03,0,0,1
227,-36.0,-31.0,42.0,1645104111.9375,P11,D03,0,0,1
228,-36.0,-31.0,42.0,1645104111.96875,P11,D03,0,0,1
229,-37.0,-31.0,42.0,1645104112.0,P11,D03,0,0,1
230,-37.0,-31.0,42.0,1645104112.03125,P11,D03,0,0,1
231,-36.0,-31.0,42.0,1645104112.0625,P11,D03,0,0,1
232,-36.0,-31.0,42.0,1645104112.09375,P11,D03,0,0,1
233,-36.0,-31.0,42.0,1645104112.125,P11,D03,0,0,1
234,-36.0,-31.0,42.0,1645104112.15625,P11,D03,0,0,1
235,-36.0,-31.0,42.0,1645104112.1875,P11,D03,0,0,1
236,-36.0,-31.0,42.0,1645104112.21875,P11,D03,0,0,1
237,-37.0,-31.0,42.0,1645104112.25,P11,D03,0,0,1
238,-36.0,-31.0,42.0,1645104112.28125,P11,D03,0,0,1
239,-36.0,-31.0,42.0,1645104112.3125,P11,D03,0,0,1
240,-37.0,-31.0,42.0,1645104112.34375,P11,D03,0,0,1
241,-37.0,-31.0,42.0,1645104112.375,P11,D03,0,0,1
242,-37.0,-31.0,42.0,1645104112.40625,P11,D03,0,0,1
243,-36.0,-31.0,42.0,1645104112.4375,P11,D03,0,0,1
244,-36.0,-31.0,42.0,1645104112.46875,P11,D03,0,0,1
245,-36.0,-31.0,42.0,1645104112.5,P11,D03,0,0,1
246,-37.0,-31.0,42.0,1645104112.53125,P11,D03,0,0,1
247,-36.0,-31.0,42.0,1645104112.5625,P11,D03,0,0,1
248,-36.0,-31.0,42.0,1645104112.59375,P11,D03,0,0,1
249,-37.0,-31.0,42.0,1645104112.625,P11,D03,0,0,1
250,-37.0,-31.0,42.0,1645104112.65625,P11,D03,0,0,1
251,-36.0,-31.0,42.0,1645104112.6875,P11,D03,0,0,1
252,-36.0,-31.0,42.0,1645104112.71875,P11,D03,0,0,1
253,-37.0,-31.0,42.0,1645104112.75,P11,D03,0,0,1
254,-36.0,-31.0,42.0,1645104112.78125,P11,D03,0,0,1
255,-36.0,-31.0,42.0,1645104112.8125,P11,D03,0,0,1
256,-37.0,-31.0,42.0,1645104112.84375,P11,D03,0,0,1
257,-37.0,-31.0,42.0,1645104112.875,P11,D03,0,0,1
258,-37.0,-31.0,42.0,1645104112.90625,P11,D03,0,0,1
259,-36.0,-31.0,42.0,1645104112.9375,P11,D03,0,0,1
260,-36.0,-31.0,42.0,1645104112.96875,P11,D03,0,0,1
261,-36.0,-31.0,42.0,1645104113.0,P11,D03,0,0,1
262,-37.0,-31.0,42.0,1645104113.03125,P11,D03,0,0,1
263,-37.0,-31.0,42.0,1645104113.0625,P11,D03,0,0,1
264,-37.0,-31.0,42.0,1645104113.09375,P11,D03,0,0,1
265,-37.0,-31.0,42.0,1645104113.125,P11,D03,0,0,1
266,-36.0,-31.0,42.0,1645104113.15625,P11,D03,0,0,1
267,-36.0,-31.0,42.0,1645104113.1875,P11,D03,0,0,1
268,-36.0,-31.0,42.0,1645104113.21875,P11,D03,0,0,1
269,-36.0,-31.0,42.0,1645104113.25,P11,D03,0,0,1
270,-37.0,-31.0,42.0,1645104113.28125,P11,D03,0,0,1
271,-36.0,-31.0,42.0,1645104113.3125,P11,D03,0,0,1
272,-36.0,-31.0,42.0,1645104113.34375,P11,D03,0,0,1
273,-36.0,-31.0,42.0,1645104113.375,P11,D03,0,0,1
274,-36.0,-31.0,42.0,1645104113.40625,P11,D03,0,0,1
275,-37.0,-31.0,42.0,1645104113.4375,P11,D03,0,0,1
276,-37.0,-31.0,42.0,1645104113.46875,P11,D03,0,0,1
277,-36.0,-31.0,42.0,1645104113.5,P11,D03,0,0,1
278,-36.0,-31.0,42.0,1645104113.53125,P11,D03,0,0,1
279,-37.0,-31.0,42.0,1645104113.5625,P11,D03,0,0,1
280,-37.0,-31.0,42.0,1645104113.59375,P11,D03,0,0,1
281,-36.0,-31.0,42.0,1645104113.625,P11,D03,0,0,1
282,-36.0,-31.0,42.0,1645104113.65625,P11,D03,0,0,1
283,-37.0,-31.0,42.0,1645104113.6875,P11,D03,0,0,1
284,-36.0,-31.0,42.0,1645104113.71875,P11,D03,0,0,1
285,-36.0,-31.0,42.0,1645104113.75,P11,D03,0,0,1
286,-36.0,-31.0,42.0,1645104113.78125,P11,D03,0,0,1
287,-36.0,-31.0,42.0,1645104113.8125,P11,D03,0,0,1
288,-37.0,-31.0,42.0,1645104113.84375,P11,D03,0,0,1
289,-36.0,-31.0,42.0,1645104113.875,P11,D03,0,0,1
290,-37.0,-31.0,42.0,1645104113.90625,P11,D03,0,0,1
291,-37.0,-31.0,42.0,1645104113.9375,P11,D03,0,0,1
292,-37.0,-32.0,42.0,1645104113.96875,P11,D03,0,0,1
293,-36.0,-31.0,42.0,1645104114.0,P11,D03,0,0,1
294,-37.0,-32.0,42.0,1645104114.03125,P11,D03,0,0,1
295,-36.0,-31.0,42.0,1645104114.0625,P11,D03,0,0,1
296,-37.0,-32.0,42.0,1645104114.09375,P11,D03,0,0,1
297,-37.0,-31.0,42.0,1645104114.125,P11,D03,0,0,1
298,-36.0,-31.0,42.0,1645104114.15625,P11,D03,0,0,1
299,-37.0,-32.0,42.0,1645104114.1875,P11,D03,0,0,1
300,-37.0,-31.0,42.0,1645104114.21875,P11,D03,0,0,1
301,-36.0,-31.0,42.0,1645104114.25,P11,D03,0,0,1
302,-36.0,-31.0,42.0,1645104114.28125,P11,D03,0,0,1
303,-37.0,-31.0,42.0,1645104114.3125,P11,D03,0,0,1
304,-36.0,-31.0,42.0,1645104114.34375,P11,D03,0,0,1
305,-36.0,-31.0,42.0,1645104114.375,P11,D03,0,0,1
306,-36.0,-31.0,42.0,1645104114.40625,P11,D03,0,0,1
307,-36.0,-31.0,42.0,1645104114.4375,P11,D03,0,0,1
308,-36.0,-31.0,42.0,1645104114.46875,P11,D03,0,0,1
309,-36.0,-31.0,42.0,1645104114.5,P11,D03,0,0,1
310,-37.0,-31.0,42.0,1645104114.53125,P11,D03,0,0,1
311,-37.0,-32.0,42.0,1645104114.5625,P11,D03,0,0,1
312,-36.0,-31.0,42.0,1645104114.59375,P11,D03,0,0,1
313,-36.0,-31.0,42.0,1645104114.625,P11,D03,0,0,1
314,-37.0,-31.0,42.0,1645104114.65625,P11,D03,0,0,1
315,-37.0,-32.0,42.0,1645104114.6875,P11,D03,0,0,1
316,-37.0,-31.0,42.0,1645104114.71875,P11,D03,0,0,1
317,-36.0,-31.0,42.0,1645104114.75,P11,D03,0,0,1
318,-37.0,-32.0,42.0,1645104114.78125,P11,D03,0,0,1
319,-37.0,-31.0,42.0,1645104114.8125,P11,D03,0,0,1
320,-36.0,-31.0,42.0,1645104114.84375,P11,D03,0,0,1
321,-37.0,-31.0,42.0,1645104114.875,P11,D03,0,0,1
322,-37.0,-31.0,42.0,1645104114.90625,P11,D03,0,0,1
323,-36.0,-31.0,42.0,1645104114.9375,P11,D03,0,0,1
324,-36.0,-31.0,42.0,1645104114.96875,P11,D03,0,0,1
325,-37.0,-32.0,42.0,1645104115.0,P11,D03,0,0,1
326,-36.0,-31.0,42.0,1645104115.03125,P11,D03,0,0,1
327,-36.0,-31.0,42.0,1645104115.0625,P11,D03,0,0,1
328,-37.0,-31.0,42.0,1645104115.09375,P11,D03,0,0,1
329,-36.0,-31.0,42.0,1645104115.125,P11,D03,0,0,1
330,-36.0,-31.0,42.0,1645104115.15625,P11,D03,0,0,1
331,-36.0,-31.0,42.0,1645104115.1875,P11,D03,0,0,1
332,-37.0,-31.0,42.0,1645104115.21875,P11,D03,0,0,1
333,-36.0,-31.0,42.0,1645104115.25,P11,D03,0,0,1
334,-37.0,-31.0,42.0,1645104115.28125,P11,D03,0,0,1
335,-36.0,-31.0,42.0,1645104115.3125,P11,D03,0,0,1
336,-36.0,-31.0,42.0,1645104115.34375,P11,D03,0,0,1
337,-37.0,-31.0,42.0,1645104115.375,P11,D03,0,0,1
338,-36.0,-31.0,42.0,1645104115.40625,P11,D03,0,0,1
339,-36.0,-31.0,42.0,1645104115.4375,P11,D03,0,0,1
340,-37.0,-31.0,42.0,1645104115.46875,P11,D03,0,0,1
341,-37.0,-31.0,42.0,1645104115.5,P11,D03,0,0,1
342,-36.0,-31.0,42.0,1645104115.53125,P11,D03,0,0,1
343,-37.0,-31.0,42.0,1645104115.5625,P11,D03,0,0,1
344,-37.0,-31.0,42.0,1645104115.59375,P11,D03,0,0,1
345,-37.0,-31.0,42.0,1645104115.625,P11,D03,0,0,1
346,-37.0,-31.0,42.0,1645104115.65625,P11,D03,0,0,1
347,-37.0,-31.0,42.0,1645104115.6875,P11,D03,0,0,1
348,-37.0,-31.0,42.0,1645104115.71875,P11,D03,0,0,1
349,-37.0,-31.0,42.0,1645104115.75,P11,D03,0,0,1
350,-37.0,-31.0,42.0,1645104115.78125,P11,D03,0,0,1
351,-36.0,-32.0,42.0,1645104115.8125,P11,D03,0,0,1
352,-37.0,-31.0,42.0,1645104115.84375,P11,D03,0,0,1
353,-37.0,-31.0,42.0,1645104115.875,P11,D03,0,0,1
354,-37.0,-31.0,42.0,1645104115.90625,P11,D03,0,0,1
355,-37.0,-32.0,42.0,1645104115.9375,P11,D03,0,0,1
356,-37.0,-31.0,42.0,1645104115.96875,P11,D03,0,0,1
357,-37.0,-31.0,42.0,1645104116.0,P11,D03,0,0,1
358,-37.0,-31.0,42.0,1645104116.03125,P11,D03,0,0,1
359,-36.0,-31.0,42.0,1645104116.0625,P11,D03,0,0,1
360,-37.0,-31.0,42.0,1645104116.09375,P11,D03,0,0,1
361,-37.0,-31.0,42.0,1645104116.125,P11,D03,0,0,1
362,-37.0,-31.0,42.0,1645104116.15625,P11,D03,0,0,1
363,-36.0,-31.0,42.0,1645104116.1875,P11,D03,0,0,1
364,-37.0,-31.0,42.0,1645104116.21875,P11,D03,0,0,1
365,-36.0,-31.0,42.0,1645104116.25,P11,D03,0,0,1
366,-37.0,-31.0,42.0,1645104116.28125,P11,D03,0,0,1
367,-36.0,-31.0,42.0,1645104116.3125,P11,D03,0,0,1
368,-37.0,-31.0,42.0,1645104116.34375,P11,D03,0,0,1
369,-37.0,-31.0,42.0,1645104116.375,P11,D03,0,0,1
370,-36.0,-31.0,42.0,1645104116.40625,P11,D03,0,0,1
371,-37.0,-31.0,42.0,1645104116.4375,P11,D03,0,0,1
372,-37.0,-32.0,42.0,1645104116.46875,P11,D03,0,0,1
373,-36.0,-31.0,42.0,1645104116.5,P11,D03,0,0,1
374,-36.0,-31.0,42.0,1645104116.53125,P11,D03,0,0,1
375,-37.0,-31.0,42.0,1645104116.5625,P11,D03,0,0,1
376,-37.0,-31.0,42.0,1645104116.59375,P11,D03,0,0,1
377,-36.0,-32.0,42.0,1645104116.625,P11,D03,0,0,1
378,-37.0,-31.0,42.0,1645104116.65625,P11,D03,0,0,1
379,-37.0,-31.0,42.0,1645104116.6875,P11,D03,0,0,1
380,-37.0,-32.0,42.0,1645104116.71875,P11,D03,0,0,1
381,-37.0,-31.0,42.0,1645104116.75,P11,D03,0,0,1
382,-36.0,-31.0,42.0,1645104116.78125,P11,D03,0,0,1
383,-37.0,-32.0,42.0,1645104116.8125,P11,D03,0,0,1
384,-37.0,-31.0,42.0,1645104116.84375,P11,D03,0,0,1
385,-36.0,-31.0,42.0,1645104116.875,P11,D03,0,0,1
386,-36.0,-31.0,42.0,1645104116.90625,P11,D03,0,0,1
387,-37.0,-31.0,42.0,1645104116.9375,P11,D03,0,0,1
388,-37.0,-31.0,42.0,1645104116.96875,P11,D03,0,0,1
389,-37.0,-31.0,42.0,1645104117.0,P11,D03,0,0,1
390,-37.0,-31.0,42.0,1645104117.03125,P11,D03,0,0,1
391,-37.0,-31.0,42.0,1645104117.0625,P11,D03,0,0,1
392,-37.0,-32.0,42.0,1645104117.09375,P11,D03,0,0,1
393,-36.0,-31.0,42.0,1645104117.125,P11,D03,0,0,1
394,-36.0,-31.0,42.0,1645104117.15625,P11,D03,0,0,1
395,-37.0,-32.0,42.0,1645104117.1875,P11,D03,0,0,1
396,-37.0,-31.0,42.0,1645104117.21875,P11,D03,0,0,1
397,-36.0,-31.0,42.0,1645104117.25,P11,D03,0,0,1
398,-37.0,-32.0,42.0,1645104117.28125,P11,D03,0,0,1
399,-37.0,-31.0,42.0,1645104117.3125,P11,D03,0,0,1
400,-36.0,-31.0,42.0,1645104117.34375,P11,D03,0,0,1
401,-36.0,-31.0,42.0,1645104117.375,P11,D03,0,0,1
402,-37.0,-31.0,42.0,1645104117.40625,P11,D03,0,0,1
403,-37.0,-31.0,42.0,1645104117.4375,P11,D03,0,0,1
404,-37.0,-31.0,42.0,1645104117.46875,P11,D03,0,0,1
405,-36.0,-31.0,42.0,1645104117.5,P11,D03,0,0,1
406,-37.0,-31.0,42.0,1645104117.53125,P11,D03,0,0,1
407,-37.0,-31.0,42.0,1645104117.5625,P11,D03,0,0,1
408,-37.0,-31.0,42.0,1645104117.59375,P11,D03,0,0,1
409,-37.0,-31.0,42.0,1645104117.625,P11,D03,0,0,1
410,-37.0,-31.0,42.0,1645104117.65625,P11,D03,0,0,1
411,-37.0,-31.0,42.0,1645104117.6875,P11,D03,0,0,1
412,-37.0,-31.0,42.0,1645104117.71875,P11,D03,0,0,1
413,-37.0,-31.0,42.0,1645104117.75,P11,D03,0,0,1
414,-36.0,-31.0,42.0,1645104117.78125,P11,D03,0,0,1
415,-37.0,-32.0,42.0,1645104117.8125,P11,D03,0,0,1
416,-36.0,-31.0,42.0,1645104117.84375,P11,D03,0,0,1
417,-36.0,-31.0,42.0,1645104117.875,P11,D03,0,0,1
418,-37.0,-31.0,42.0,1645104117.90625,P11,D03,0,0,1
419,-36.0,-31.0,42.0,1645104117.9375,P11,D03,0,0,1
420,-37.0,-31.0,42.0,1645104117.96875,P11,D03,0,0,1
421,-37.0,-31.0,42.0,1645104118.0,P11,D03,0,0,1
422,-37.0,-31.0,42.0,1645104118.03125,P11,D03,0,0,1
423,-37.0,-31.0,42.0,1645104118.0625,P11,D03,0,0,1
424,-36.0,-31.0,42.0,1645104118.09375,P11,D03,0,0,1
425,-36.0,-31.0,42.0,1645104118.125,P11,D03,0,0,1
426,-36.0,-31.0,42.0,1645104118.15625,P11,D03,0,0,1
427,-36.0,-31.0,42.0,1645104118.1875,P11,D03,0,0,1
428,-36.0,-31.0,42.0,1645104118.21875,P11,D03,0,0,1
429,-37.0,-31.0,42.0,1645104118.25,P11,D03,0,0,1
430,-37.0,-31.0,42.0,1645104118.28125,P11,D03,0,0,1
431,-37.0,-31.0,42.0,1645104118.3125,P11,D03,0,0,1
432,-37.0,-31.0,42.0,1645104118.34375,P11,D03,0,0,1
433,-37.0,-31.0,42.0,1645104118.375,P11,D03,0,0,1
434,-37.0,-31.0,42.0,1645104118.40625,P11,D03,0,0,1
435,-37.0,-31.0,42.0,1645104118.4375,P11,D03,0,0,1
436,-37.0,-31.0,42.0,1645104118.46875,P11,D03,0,0,1
437,-37.0,-31.0,42.0,1645104118.5,P11,D03,0,0,1
438,-37.0,-32.0,42.0,1645104118.53125,P11,D03,0,0,1
439,-36.0,-31.0,42.0,1645104118.5625,P11,D03,0,0,1
440,-36.0,-31.0,42.0,1645104118.59375,P11,D03,0,0,1
441,-37.0,-32.0,42.0,1645104118.625,P11,D03,0,0,1
442,-37.0,-31.0,42.0,1645104118.65625,P11,D03,0,0,1
443,-37.0,-31.0,42.0,1645104118.6875,P11,D03,0,0,1
444,-37.0,-31.0,42.0,1645104118.71875,P11,D03,0,0,1
445,-37.0,-31.0,42.0,1645104118.75,P11,D03,0,0,1
446,-37.0,-31.0,42.0,1645104118.78125,P11,D03,0,0,1
447,-37.0,-31.0,42.0,1645104118.8125,P11,D03,0,0,1
448,-37.0,-31.0,42.0,1645104118.84375,P11,D03,0,0,1
449,-37.0,-31.0,42.0,1645104118.875,P11,D03,0,0,1
450,-36.0,-31.0,42.0,1645104118.90625,P11,D03,0,0,1
451,-37.0,-32.0,42.0,1645104118.9375,P11,D03,0,0,1
452,-37.0,-31.0,42.0,1645104118.96875,P11,D03,0,0,1
453,-37.0,-31.0,42.0,1645104119.0,P11,D03,0,0,1
454,-36.0,-31.0,42.0,1645104119.03125,P11,D03,0,0,1
455,-37.0,-31.0,42.0,1645104119.0625,P11,D03,0,0,1
456,-37.0,-31.0,42.0,1645104119.09375,P11,D03,0,0,1
457,-37.0,-32.0,42.0,1645104119.125,P11,D03,0,0,1
458,-37.0,-31.0,42.0,1645104119.15625,P11,D03,0,0,1
459,-37.0,-31.0,42.0,1645104119.1875,P11,D03,0,0,1
460,-37.0,-31.0,42.0,1645104119.21875,P11,D03,0,0,1
461,-37.0,-31.0,42.0,1645104119.25,P11,D03,0,0,1
462,-36.0,-31.0,42.0,1645104119.28125,P11,D03,0,0,1
463,-37.0,-32.0,42.0,1645104119.3125,P11,D03,0,0,1
464,-37.0,-31.0,42.0,1645104119.34375,P11,D03,0,0,1
465,-36.0,-31.0,42.0,1645104119.375,P11,D03,0,0,1
466,-37.0,-31.0,42.0,1645104119.40625,P11,D03,0,0,1
467,-37.0,-31.0,42.0,1645104119.4375,P11,D03,0,0,1
468,-37.0,-31.0,42.0,1645104119.46875,P11,D03,0,0,1
469,-37.0,-31.0,42.0,1645104119.5,P11,D03,0,0,1
470,-37.0,-32.0,42.0,1645104119.53125,P11,D03,0,0,1
471,-37.0,-31.0,42.0,1645104119.5625,P11,D03,0,0,1
472,-37.0,-31.0,42.0,1645104119.59375,P11,D03,0,0,1
473,-37.0,-31.0,42.0,1645104119.625,P11,D03,0,0,1
474,-37.0,-31.0,42.0,1645104119.65625,P11,D03,0,0,1
475,-37.0,-32.0,42.0,1645104119.6875,P11,D03,0,0,1
476,-37.0,-31.0,42.0,1645104119.71875,P11,D03,0,0,1
477,-37.0,-31.0,42.0,1645104119.75,P11,D03,0,0,1
478,-37.0,-31.0,42.0,1645104119.78125,P11,D03,0,0,1
479,-37.0,-31.0,42.0,1645104119.8125,P11,D03,0,0,1
480,-36.0,-31.0,42.0,1645104119.84375,P11,D03,0,0,1
481,-36.0,-31.0,42.0,1645104119.875,P11,D03,0,0,1
482,-37.0,-32.0,42.0,1645104119.90625,P11,D03,0,0,1
483,-37.0,-31.0,42.0,1645104119.9375,P11,D03,0,0,1
484,-36.0,-31.0,42.0,1645104119.96875,P11,D03,0,0,1
485,-36.0,-32.0,42.0,1645104120.0,P11,D03,0,0,1
486,-36.0,-31.0,42.0,1645104120.03125,P11,D03,0,0,1
487,-37.0,-31.0,42.0,1645104120.0625,P11,D03,0,0,1
488,-37.0,-31.0,42.0,1645104120.09375,P11,D03,0,0,1
489,-37.0,-31.0,42.0,1645104120.125,P11,D03,0,0,1
490,-37.0,-31.0,42.0,1645104120.15625,P11,D03,0,0,1
491,-37.0,-31.0,42.0,1645104120.1875,P11,D03,0,0,1
492,-37.0,-31.0,42.0,1645104120.21875,P11,D03,0,0,1
493,-36.0,-31.0,42.0,1645104120.25,P11,D03,0,0,1
494,-37.0,-31.0,42.0,1645104120.28125,P11,D03,0,0,1
495,-37.0,-31.0,42.0,1645104120.3125,P11,D03,0,0,1
496,-37.0,-31.0,42.0,1645104120.34375,P11,D03,0,0,1
497,-36.0,-31.0,42.0,1645104120.375,P11,D03,0,0,1
498,-36.0,-31.0,42.0,1645104120.40625,P11,D03,0,0,1
499,-37.0,-31.0,42.0,1645104120.4375,P11,D03,0,0,1
500,-37.0,-31.0,42.0,1645104120.46875,P11,D03,0,0,1
501,-36.0,-31.0,42.0,1645104120.5,P11,D03,0,0,1
502,-37.0,-31.0,42.0,1645104120.53125,P11,D03,0,0,1
503,-37.0,-31.0,42.0,1645104120.5625,P11,D03,0,0,1
504,-37.0,-31.0,42.0,1645104120.59375,P11,D03,0,0,1
505,-36.0,-31.0,42.0,1645104120.625,P11,D03,0,0,1
506,-36.0,-31.0,42.0,1645104120.65625,P11,D03,0,0,1
507,-37.0,-31.0,42.0,1645104120.6875,P11,D03,0,0,1
508,-36.0,-31.0,42.0,1645104120.71875,P11,D03,0,0,1
509,-37.0,-31.0,42.0,1645104120.75,P11,D03,0,0,1
510,-37.0,-31.0,42.0,1645104120.78125,P11,D03,0,0,1
511,-37.0,-31.0,42.0,1645104120.8125,P11,D03,0,0,1
512,-36.0,-31.0,42.0,1645104120.84375,P11,D03,0,0,1
513,-37.0,-31.0,42.0,1645104120.875,P11,D03,0,0,1
514,-37.0,-31.0,42.0,1645104120.90625,P11,D03,0,0,1
515,-36.0,-31.0,42.0,1645104120.9375,P11,D03,0,0,1
516,-37.0,-31.0,42.0,1645104120.96875,P11,D03,0,0,1
517,-37.0,-31.0,42.0,1645104121.0,P11,D03,0,0,1
518,-37.0,-31.0,42.0,1645104121.03125,P11,D03,0,0,1
519,-37.0,-31.0,42.0,1645104121.0625,P11,D03,0,0,1
520,-37.0,-31.0,42.0,1645104121.09375,P11,D03,0,0,1
521,-37.0,-31.0,42.0,1645104121.125,P11,D03,0,0,1
522,-37.0,-31.0,42.0,1645104121.15625,P11,D03,0,0,1
523,-36.0,-31.0,42.0,1645104121.1875,P11,D03,0,0,1
524,-37.0,-31.0,42.0,1645104121.21875,P11,D03,0,0,1
525,-37.0,-31.0,42.0,1645104121.25,P11,D03,0,0,1
526,-37.0,-32.0,42.0,1645104121.28125,P11,D03,0,0,1
527,-37.0,-31.0,42.0,1645104121.3125,P11,D03,0,0,1
528,-36.0,-31.0,42.0,1645104121.34375,P11,D03,0,0,1
529,-37.0,-32.0,42.0,1645104121.375,P11,D03,0,0,1
530,-37.0,-32.0,42.0,1645104121.40625,P11,D03,0,0,1
531,-36.0,-31.0,42.0,1645104121.4375,P11,D03,0,0,1
532,-37.0,-31.0,42.0,1645104121.46875,P11,D03,0,0,1
533,-37.0,-31.0,42.0,1645104121.5,P11,D03,0,0,1
534,-36.0,-31.0,42.0,1645104121.53125,P11,D03,0,0,1
535,-37.0,-31.0,42.0,1645104121.5625,P11,D03,0,0,1
536,-37.0,-32.0,42.0,1645104121.59375,P11,D03,0,0,1
537,-37.0,-31.0,42.0,1645104121.625,P11,D03,0,0,1
538,-37.0,-31.0,42.0,1645104121.65625,P11,D03,0,0,1
539,-37.0,-31.0,42.0,1645104121.6875,P11,D03,0,0,1
540,-37.0,-32.0,42.0,1645104121.71875,P11,D03,0,0,1
541,-36.0,-31.0,42.0,1645104121.75,P11,D03,0,0,1
542,-37.0,-31.0,42.0,1645104121.78125,P11,D03,0,0,1
543,-37.0,-31.0,42.0,1645104121.8125,P11,D03,0,0,1
544,-37.0,-31.0,42.0,1645104121.84375,P11,D03,0,0,1
545,-37.0,-31.0,42.0,1645104121.875,P11,D03,0,0,1
546,-37.0,-31.0,42.0,1645104121.90625,P11,D03,0,0,1
547,-36.0,-31.0,42.0,1645104121.9375,P11,D03,0,0,1
548,-37.0,-31.0,42.0,1645104121.96875,P11,D03,0,0,1
549,-37.0,-31.0,42.0,1645104122.0,P11,D03,0,0,1
550,-37.0,-31.0,42.0,1645104122.03125,P11,D03,0,0,1
551,-36.0,-31.0,42.0,1645104122.0625,P11,D03,0,0,1
552,-36.0,-31.0,42.0,1645104122.09375,P11,D03,0,0,1
553,-37.0,-32.0,42.0,1645104122.125,P11,D03,0,0,1
554,-37.0,-31.0,42.0,1645104122.15625,P11,D03,0,0,1
555,-37.0,-31.0,42.0,1645104122.1875,P11,D03,0,0,1
556,-37.0,-32.0,42.0,1645104122.21875,P11,D03,0,0,1
557,-37.0,-31.0,42.0,1645104122.25,P11,D03,0,0,1
558,-36.0,-31.0,42.0,1645104122.28125,P11,D03,0,0,1
559,-37.0,-32.0,42.0,1645104122.3125,P11,D03,0,0,1
560,-37.0,-31.0,42.0,1645104122.34375,P11,D03,0,0,1
561,-37.0,-32.0,42.0,1645104122.375,P11,D03,0,0,1
562,-37.0,-31.0,42.0,1645104122.40625,P11,D03,0,0,1
563,-37.0,-31.0,42.0,1645104122.4375,P11,D03,0,0,1
564,-37.0,-32.0,42.0,1645104122.46875,P11,D03,0,0,1
565,-37.0,-32.0,42.0,1645104122.5,P11,D03,0,0,1
566,-37.0,-31.0,42.0,1645104122.53125,P11,D03,0,0,1
567,-37.0,-32.0,42.0,1645104122.5625,P11,D03,0,0,1
568,-37.0,-31.0,42.0,1645104122.59375,P11,D03,0,0,1
569,-37.0,-31.0,42.0,1645104122.625,P11,D03,0,0,1
570,-37.0,-31.0,42.0,1645104122.65625,P11,D03,0,0,1
571,-36.0,-32.0,42.0,1645104122.6875,P11,D03,0,0,1
572,-37.0,-31.0,42.0,1645104122.71875,P11,D03,0,0,1
573,-37.0,-31.0,42.0,1645104122.75,P11,D03,0,0,1
574,-37.0,-32.0,42.0,1645104122.78125,P11,D03,0,0,1
575,-37.0,-32.0,42.0,1645104122.8125,P11,D03,0,0,1
576,-36.0,-32.0,42.0,1645104122.84375,P11,D03,0,0,1
577,-37.0,-32.0,42.0,1645104122.875,P11,D03,0,0,1
578,-36.0,-31.0,42.0,1645104122.90625,P11,D03,0,0,1
579,-37.0,-31.0,42.0,1645104122.9375,P11,D03,0,0,1
580,-37.0,-32.0,42.0,1645104122.96875,P11,D03,0,0,1
581,-36.0,-31.0,42.0,1645104123.0,P11,D03,0,0,1
582,-36.0,-31.0,42.0,1645104123.03125,P11,D03,0,0,1
583,-37.0,-32.0,42.0,1645104123.0625,P11,D03,0,0,1
584,-37.0,-31.0,42.0,1645104123.09375,P11,D03,0,0,1
585,-37.0,-32.0,42.0,1645104123.125,P11,D03,0,0,1
586,-37.0,-31.0,42.0,1645104123.15625,P11,D03,0,0,1
587,-37.0,-31.0,42.0,1645104123.1875,P11,D03,0,0,1
588,-37.0,-31.0,42.0,1645104123.21875,P11,D03,0,0,1
589,-37.0,-31.0,42.0,1645104123.25,P11,D03,0,0,1
590,-37.0,-31.0,42.0,1645104123.28125,P11,D03,0,0,1
591,-37.0,-31.0,42.0,1645104123.3125,P11,D03,0,0,1
592,-37.0,-31.0,42.0,1645104123.34375,P11,D03,0,0,1
593,-37.0,-31.0,42.0,1645104123.375,P11,D03,0,0,1
594,-37.0,-31.0,42.0,1645104123.40625,P11,D03,0,0,1
595,-37.0,-31.0,42.0,1645104123.4375,P11,D03,0,0,1
596,-37.0,-31.0,42.0,1645104123.46875,P11,D03,0,0,1
597,-37.0,-31.0,42.0,1645104123.5,P11,D03,0,0,1
598,-37.0,-31.0,42.0,1645104123.53125,P11,D03,0,0,1
599,-37.0,-31.0,42.0,1645104123.5625,P11,D03,0,0,1
600,-37.0,-31.0,42.0,1645104123.59375,P11,D03,0,0,1
601,-37.0,-32.0,42.0,1645104123.625,P11,D03,0,0,1
602,-37.0,-32.0,42.0,1645104123.65625,P11,D03,0,0,1
603,-37.0,-31.0,42.0,1645104123.6875,P11,D03,0,0,1
604,-37.0,-31.0,42.0,1645104123.71875,P11,D03,0,0,1
605,-37.0,-31.0,42.0,1645104123.75,P11,D03,0,0,1
606,-37.0,-31.0,42.0,1645104123.78125,P11,D03,0,0,1
607,-37.0,-32.0,42.0,1645104123.8125,P11,D03,0,0,1
608,-37.0,-31.0,42.0,1645104123.84375,P11,D03,0,0,1
609,-37.0,-31.0,42.0,1645104123.875,P11,D03,0,0,1
610,-37.0,-31.0,42.0,1645104123.90625,P11,D03,0,0,1
611,-36.0,-31.0,42.0,1645104123.9375,P11,D03,0,0,1
612,-37.0,-31.0,42.0,1645104123.96875,P11,D03,0,0,1
613,-37.0,-31.0,42.0,1645104124.0,P11,D03,0,0,1
614,-37.0,-31.0,42.0,1645104124.03125,P11,D03,0,0,1
615,-37.0,-31.0,42.0,1645104124.0625,P11,D03,0,0,1
616,-37.0,-31.0,42.0,1645104124.09375,P11,D03,0,0,1
617,-37.0,-31.0,42.0,1645104124.125,P11,D03,0,0,1
618,-37.0,-31.0,42.0,1645104124.15625,P11,D03,0,0,1
619,-37.0,-31.0,42.0,1645104124.1875,P11,D03,0,0,1
620,-37.0,-31.0,42.0,1645104124.21875,P11,D03,0,0,1
621,-37.0,-31.0,42.0,1645104124.25,P11,D03,0,0,1
622,-37.0,-31.0,42.0,1645104124.28125,P11,D03,0,0,1
623,-37.0,-31.0,42.0,1645104124.3125,P11,D03,0,0,1
624,-36.0,-31.0,42.0,1645104124.34375,P11,D03,0,0,1
625,-37.0,-32.0,42.0,1645104124.375,P11,D03,0,0,1
626,-37.0,-32.0,42.0,1645104124.40625,P11,D03,0,0,1
627,-37.0,-31.0,42.0,1645104124.4375,P11,D03,0,0,1
628,-37.0,-32.0,42.0,1645104124.46875,P11,D03,0,0,1
629,-37.0,-31.0,42.0,1645104124.5,P11,D03,0,0,1
630,-36.0,-31.0,42.0,1645104124.53125,P11,D03,0,0,1
631,-37.0,-32.0,42.0,1645104124.5625,P11,D03,0,0,1
632,-37.0,-32.0,42.0,1645104124.59375,P11,D03,0,0,1
633,-37.0,-31.0,42.0,1645104124.625,P11,D03,0,0,1
634,-37.0,-31.0,42.0,1645104124.65625,P11,D03,0,0,1
635,-37.0,-32.0,42.0,1645104124.6875,P11,D03,0,0,1
636,-37.0,-32.0,42.0,1645104124.71875,P11,D03,0,0,1
637,-37.0,-31.0,42.0,1645104124.75,P11,D03,0,0,1
638,-37.0,-31.0,42.0,1645104124.78125,P11,D03,0,0,1
639,-37.0,-31.0,42.0,1645104124.8125,P11,D03,0,0,1
640,-37.0,-32.0,42.0,1645104124.84375,P11,D03,0,0,1
641,-37.0,-31.0,42.0,1645104124.875,P11,D03,0,0,1
642,-37.0,-31.0,42.0,1645104124.90625,P11,D03,0,0,1
643,-37.0,-31.0,42.0,1645104124.9375,P11,D03,0,0,1
644,-37.0,-31.0,42.0,1645104124.96875,P11,D03,0,0,1
645,-37.0,-31.0,42.0,1645104125.0,P11,D03,0,0,1
646,-37.0,-32.0,42.0,1645104125.03125,P11,D03,0,0,1
647,-37.0,-31.0,42.0,1645104125.0625,P11,D03,0,0,1
648,-37.0,-32.0,42.0,1645104125.09375,P11,D03,0,0,1
649,-37.0,-31.0,42.0,1645104125.125,P11,D03,0,0,1
650,-37.0,-32.0,41.0,1645104125.15625,P11,D03,0,0,1
651,-37.0,-31.0,42.0,1645104125.1875,P11,D03,0,0,1
652,-37.0,-32.0,42.0,1645104125.21875,P11,D03,0,0,1
653,-37.0,-32.0,41.0,1645104125.25,P11,D03,0,0,1
654,-36.0,-31.0,42.0,1645104125.28125,P11,D03,0,0,1
655,-37.0,-31.0,42.0,1645104125.3125,P11,D03,0,0,1
656,-37.0,-32.0,42.0,1645104125.34375,P11,D03,0,0,1
657,-37.0,-32.0,42.0,1645104125.375,P11,D03,0,0,1
658,-37.0,-31.0,42.0,1645104125.40625,P11,D03,0,0,1
659,-37.0,-31.0,42.0,1645104125.4375,P11,D03,0,0,1
660,-37.0,-32.0,42.0,1645104125.46875,P11,D03,0,0,1
661,-37.0,-32.0,42.0,1645104125.5,P11,D03,0,0,1
662,-37.0,-31.0,42.0,1645104125.53125,P11,D03,0,0,1
663,-37.0,-31.0,42.0,1645104125.5625,P11,D03,0,0,1
664,-37.0,-31.0,42.0,1645104125.59375,P11,D03,0,0,1
665,-37.0,-32.0,42.0,1645104125.625,P11,D03,0,0,1
666,-37.0,-31.0,42.0,1645104125.65625,P11,D03,0,0,1
667,-37.0,-32.0,42.0,1645104125.6875,P11,D03,0,0,1
668,-37.0,-31.0,42.0,1645104125.71875,P11,D03,0,0,1
669,-37.0,-31.0,42.0,1645104125.75,P11,D03,0,0,1
670,-37.0,-32.0,42.0,1645104125.78125,P11,D03,0,0,1
671,-37.0,-31.0,42.0,1645104125.8125,P11,D03,0,0,1
672,-37.0,-31.0,42.0,1645104125.84375,P11,D03,0,0,1
673,-37.0,-31.0,42.0,1645104125.875,P11,D03,0,0,1
674,-37.0,-31.0,42.0,1645104125.90625,P11,D03,0,0,1
675,-37.0,-31.0,42.0,1645104125.9375,P11,D03,0,0,1
676,-37.0,-32.0,42.0,1645104125.96875,P11,D03,0,0,1
677,-37.0,-32.0,42.0,1645104126.0,P11,D03,0,0,1
678,-37.0,-31.0,42.0,1645104126.03125,P11,D03,0,0,1
679,-37.0,-32.0,42.0,1645104126.0625,P11,D03,0,0,1
680,-37.0,-31.0,42.0,1645104126.09375,P11,D03,0,0,1
681,-36.0,-31.0,42.0,1645104126.125,P11,D03,0,0,1
682,-37.0,-31.0,42.0,1645104126.15625,P11,D03,0,0,1
683,-37.0,-31.0,42.0,1645104126.1875,P11,D03,0,0,1
684,-37.0,-31.0,42.0,1645104126.21875,P11,D03,0,0,1
685,-37.0,-31.0,42.0,1645104126.25,P11,D03,0,0,1
686,-37.0,-31.0,42.0,1645104126.28125,P11,D03,0,0,1
687,-37.0,-31.0,42.0,1645104126.3125,P11,D03,0,0,1
688,-37.0,-31.0,42.0,1645104126.34375,P11,D03,0,0,1
689,-37.0,-31.0,42.0,1645104126.375,P11,D03,0,0,1
690,-37.0,-31.0,42.0,1645104126.40625,P11,D03,0,0,1
691,-37.0,-31.0,42.0,1645104126.4375,P11,D03,0,0,1
692,-36.0,-31.0,42.0,1645104126.46875,P11,D03,0,0,1
693,-37.0,-31.0,42.0,1645104126.5,P11,D03,0,0,1
694,-37.0,-32.0,42.0,1645104126.53125,P11,D03,0,0,1
695,-37.0,-31.0,42.0,1645104126.5625,P11,D03,0,0,1
696,-37.0,-31.0,42.0,1645104126.59375,P11,D03,0,0,1
697,-37.0,-31.0,42.0,1645104126.625,P11,D03,0,0,1
698,-37.0,-32.0,42.0,1645104126.65625,P11,D03,0,0,1
699,-37.0,-31.0,42.0,1645104126.6875,P11,D03,0,0,1
700,-37.0,-32.0,42.0,1645104126.71875,P11,D03,0,0,1
701,-37.0,-32.0,42.0,1645104126.75,P11,D03,0,0,1
702,-36.0,-31.0,42.0,1645104126.78125,P11,D03,0,0,1
703,-37.0,-31.0,42.0,1645104126.8125,P11,D03,0,0,1
704,-37.0,-32.0,41.0,1645104126.84375,P11,D03,0,0,1
705,-37.0,-31.0,42.0,1645104126.875,P11,D03,0,0,1
706,-37.0,-31.0,42.0,1645104126.90625,P11,D03,0,0,1
707,-37.0,-32.0,42.0,1645104126.9375,P11,D03,0,0,1
708,-37.0,-32.0,42.0,1645104126.96875,P11,D03,0,0,1
709,-37.0,-31.0,42.0,1645104127.0,P11,D03,0,0,1
710,-36.0,-31.0,42.0,1645104127.03125,P11,D03,0,0,1
711,-37.0,-31.0,42.0,1645104127.0625,P11,D03,0,0,1
712,-37.0,-32.0,42.0,1645104127.09375,P11,D03,0,0,1
713,-37.0,-31.0,42.0,1645104127.125,P11,D03,0,0,1
714,-37.0,-31.0,42.0,1645104127.15625,P11,D03,0,0,1
715,-37.0,-31.0,42.0,1645104127.1875,P11,D03,0,0,1
716,-37.0,-32.0,42.0,1645104127.21875,P11,D03,0,0,1
717,-37.0,-31.0,42.0,1645104127.25,P11,D03,0,0,1
718,-37.0,-32.0,42.0,1645104127.28125,P11,D03,0,0,1
719,-37.0,-32.0,42.0,1645104127.3125,P11,D03,0,0,1
720,-37.0,-32.0,42.0,1645104127.34375,P11,D03,0,0,1
721,-37.0,-32.0,42.0,1645104127.375,P11,D03,0,0,1
722,-37.0,-31.0,42.0,1645104127.40625,P11,D03,0,0,1
723,-37.0,-32.0,42.0,1645104127.4375,P11,D03,0,0,1
724,-37.0,-32.0,42.0,1645104127.46875,P11,D03,0,0,1
725,-37.0,-32.0,42.0,1645104127.5,P11,D03,0,0,1
726,-37.0,-32.0,42.0,1645104127.53125,P11,D03,0,0,1
727,-36.0,-31.0,42.0,1645104127.5625,P11,D03,0,0,1
728,-37.0,-32.0,42.0,1645104127.59375,P11,D03,0,0,1
729,-37.0,-32.0,41.0,1645104127.625,P11,D03,0,0,1
730,-37.0,-31.0,42.0,1645104127.65625,P11,D03,0,0,1
731,-36.0,-31.0,42.0,1645104127.6875,P11,D03,0,0,1
732,-37.0,-32.0,41.0,1645104127.71875,P11,D03,0,0,1
733,-37.0,-32.0,42.0,1645104127.75,P11,D03,0,0,1
734,-37.0,-31.0,42.0,1645104127.78125,P11,D03,0,0,1
735,-37.0,-32.0,42.0,1645104127.8125,P11,D03,0,0,1
736,-37.0,-32.0,42.0,1645104127.84375,P11,D03,0,0,1
737,-37.0,-32.0,42.0,1645104127.875,P11,D03,0,0,1
738,-37.0,-31.0,42.0,1645104127.90625,P11,D03,0,0,1
739,-37.0,-32.0,42.0,1645104127.9375,P11,D03,0,0,1
740,-37.0,-32.0,42.0,1645104127.96875,P11,D03,0,0,1
741,-37.0,-32.0,42.0,1645104128.0,P11,D03,0,0,1
742,-37.0,-31.0,42.0,1645104128.03125,P11,D03,0,0,1
743,-37.0,-31.0,42.0,1645104128.0625,P11,D03,0,0,1
744,-37.0,-32.0,42.0,1645104128.09375,P11,D03,0,0,1
745,-37.0,-32.0,42.0,1645104128.125,P11,D03,0,0,1
746,-37.0,-32.0,42.0,1645104128.15625,P11,D03,0,0,1
747,-37.0,-31.0,42.0,1645104128.1875,P11,D03,0,0,1
748,-37.0,-31.0,42.0,1645104128.21875,P11,D03,0,0,1
749,-37.0,-31.0,42.0,1645104128.25,P11,D03,0,0,1
750,-37.0,-31.0,42.0,1645104128.28125,P11,D03,0,0,1
751,-37.0,-32.0,42.0,1645104128.3125,P11,D03,0,0,1
752,-37.0,-31.0,42.0,1645104128.34375,P11,D03,0,0,1
753,-36.0,-31.0,42.0,1645104128.375,P11,D03,0,0,1
754,-37.0,-32.0,42.0,1645104128.40625,P11,D03,0,0,1
755,-37.0,-32.0,41.0,1645104128.4375,P11,D03,0,0,1
756,-36.0,-31.0,42.0,1645104128.46875,P11,D03,0,0,1
757,-37.0,-32.0,42.0,1645104128.5,P11,D03,0,0,1
758,-37.0,-32.0,42.0,1645104128.53125,P11,D03,0,0,1
759,-37.0,-31.0,42.0,1645104128.5625,P11,D03,0,0,1
760,-37.0,-31.0,42.0,1645104128.59375,P11,D03,0,0,1
761,-37.0,-31.0,42.0,1645104128.625,P11,D03,0,0,1
762,-37.0,-31.0,42.0,1645104128.65625,P11,D03,0,0,1
763,-37.0,-31.0,42.0,1645104128.6875,P11,D03,0,0,1
764,-37.0,-31.0,42.0,1645104128.71875,P11,D03,0,0,1
765,-37.0,-31.0,42.0,1645104128.75,P11,D03,0,0,1
766,-37.0,-32.0,42.0,1645104128.78125,P11,D03,0,0,1
767,-37.0,-31.0,42.0,1645104128.8125,P11,D03,0,0,1
768,-37.0,-31.0,42.0,1645104128.84375,P11,D03,0,0,1
769,-37.0,-32.0,42.0,1645104128.875,P11,D03,0,0,1
770,-37.0,-32.0,42.0,1645104128.90625,P11,D03,0,0,1
771,-37.0,-31.0,42.0,1645104128.9375,P11,D03,0,0,1
772,-37.0,-31.0,42.0,1645104128.96875,P11,D03,0,0,1
773,-37.0,-31.0,42.0,1645104129.0,P11,D03,0,0,1
774,-37.0,-31.0,42.0,1645104129.03125,P11,D03,0,0,1
775,-36.0,-32.0,42.0,1645104129.0625,P11,D03,0,0,1
776,-37.0,-32.0,42.0,1645104129.09375,P11,D03,0,0,1
777,-37.0,-32.0,42.0,1645104129.125,P11,D03,0,0,1
778,-37.0,-31.0,42.0,1645104129.15625,P11,D03,0,0,1
779,-37.0,-31.0,42.0,1645104129.1875,P11,D03,0,0,1
780,-37.0,-31.0,42.0,1645104129.21875,P11,D03,0,0,1
781,-37.0,-31.0,42.0,1645104129.25,P11,D03,0,0,1
782,-37.0,-31.0,42.0,1645104129.28125,P11,D03,0,0,1
783,-37.0,-31.0,42.0,1645104129.3125,P11,D03,0,0,1
784,-37.0,-31.0,42.0,1645104129.34375,P11,D03,0,0,1
785,-37.0,-32.0,42.0,1645104129.375,P11,D03,0,0,1
786,-37.0,-31.0,42.0,1645104129.40625,P11,D03,0,0,1
787,-37.0,-31.0,42.0,1645104129.4375,P11,D03,0,0,1
788,-37.0,-32.0,42.0,1645104129.46875,P11,D03,0,0,1
789,-37.0,-31.0,42.0,1645104129.5,P11,D03,0,0,1
790,-37.0,-31.0,42.0,1645104129.53125,P11,D03,0,0,1
791,-37.0,-31.0,42.0,1645104129.5625,P11,D03,0,0,1
792,-37.0,-31.0,42.0,1645104129.59375,P11,D03,0,0,1
793,-37.0,-31.0,42.0,1645104129.625,P11,D03,0,0,1
794,-37.0,-32.0,42.0,1645104129.65625,P11,D03,0,0,1
795,-37.0,-31.0,42.0,1645104129.6875,P11,D03,0,0,1
796,-37.0,-32.0,42.0,1645104129.71875,P11,D03,0,0,1
797,-37.0,-32.0,42.0,1645104129.75,P11,D03,0,0,1
798,-37.0,-31.0,42.0,1645104129.78125,P11,D03,0,0,1
799,-37.0,-31.0,42.0,1645104129.8125,P11,D03,0,0,1
800,-37.0,-32.0,42.0,1645104129.84375,P11,D03,0,0,1
801,-37.0,-31.0,42.0,1645104129.875,P11,D03,0,0,1
802,-37.0,-32.0,42.0,1645104129.90625,P11,D03,0,0,1
803,-37.0,-31.0,41.0,1645104129.9375,P11,D03,0,0,1
804,-36.0,-31.0,42.0,1645104129.96875,P11,D03,0,0,1
805,-37.0,-32.0,42.0,1645104130.0,P11,D03,0,0,1
806,-37.0,-32.0,42.0,1645104130.03125,P11,D03,0,0,1
807,-37.0,-32.0,42.0,1645104130.0625,P11,D03,0,0,1
808,-37.0,-32.0,42.0,1645104130.09375,P11,D03,0,0,1
809,-37.0,-31.0,42.0,1645104130.125,P11,D03,0,0,1
810,-37.0,-32.0,42.0,1645104130.15625,P11,D03,0,0,1
811,-37.0,-31.0,42.0,1645104130.1875,P11,D03,0,0,1
812,-37.0,-31.0,42.0,1645104130.21875,P11,D03,0,0,1
813,-37.0,-31.0,42.0,1645104130.25,P11,D03,0,0,1
814,-37.0,-32.0,41.0,1645104130.28125,P11,D03,0,0,1
815,-37.0,-32.0,42.0,1645104130.3125,P11,D03,0,0,1
816,-37.0,-32.0,42.0,1645104130.34375,P11,D03,0,0,1
817,-37.0,-32.0,42.0,1645104130.375,P11,D03,0,0,1
818,-37.0,-32.0,41.0,1645104130.40625,P11,D03,0,0,1
819,-37.0,-32.0,41.0,1645104130.4375,P11,D03,0,0,1
820,-37.0,-31.0,42.0,1645104130.46875,P11,D03,0,0,1
821,-37.0,-31.0,41.0,1645104130.5,P11,D03,0,0,1
822,-37.0,-32.0,42.0,1645104130.53125,P11,D03,0,0,1
823,-37.0,-32.0,42.0,1645104130.5625,P11,D03,0,0,1
824,-37.0,-32.0,42.0,1645104130.59375,P11,D03,0,0,1
825,-37.0,-31.0,42.0,1645104130.625,P11,D03,0,0,1
826,-37.0,-32.0,42.0,1645104130.65625,P11,D03,0,0,1
827,-37.0,-31.0,42.0,1645104130.6875,P11,D03,0,0,1
828,-36.0,-31.0,42.0,1645104130.71875,P11,D03,0,0,1
829,-37.0,-32.0,42.0,1645104130.75,P11,D03,0,0,1
830,-37.0,-32.0,42.0,1645104130.78125,P11,D03,0,0,1
831,-37.0,-32.0,42.0,1645104130.8125,P11,D03,0,0,1
832,-37.0,-32.0,42.0,1645104130.84375,P11,D03,0,0,1
833,-37.0,-32.0,42.0,1645104130.875,P11,D03,0,0,1
834,-37.0,-32.0,42.0,1645104130.90625,P11,D03,0,0,1
835,-37.0,-32.0,41.0,1645104130.9375,P11,D03,0,0,1
836,-37.0,-31.0,41.0,1645104130.96875,P11,D03,0,0,1
837,-37.0,-31.0,42.0,1645104131.0,P11,D03,0,0,1
838,-37.0,-32.0,42.0,1645104131.03125,P11,D03,0,0,1
839,-37.0,-32.0,42.0,1645104131.0625,P11,D03,0,0,1
840,-37.0,-31.0,42.0,1645104131.09375,P11,D03,0,0,1
841,-37.0,-31.0,42.0,1645104131.125,P11,D03,0,0,1
842,-37.0,-32.0,42.0,1645104131.15625,P11,D03,0,0,1
843,-37.0,-32.0,42.0,1645104131.1875,P11,D03,0,0,1
844,-37.0,-31.0,42.0,1645104131.21875,P11,D03,0,0,1
845,-37.0,-32.0,42.0,1645104131.25,P11,D03,0,0,1
846,-37.0,-31.0,42.0,1645104131.28125,P11,D03,0,0,1
847,-37.0,-31.0,41.0,1645104131.3125,P11,D03,0,0,1
848,-37.0,-32.0,42.0,1645104131.34375,P11,D03,0,0,1
849,-37.0,-31.0,42.0,1645104131.375,P11,D03,0,0,1
850,-37.0,-31.0,42.0,1645104131.40625,P11,D03,0,0,1
851,-37.0,-32.0,42.0,1645104131.4375,P11,D03,0,0,1
852,-37.0,-31.0,42.0,1645104131.46875,P11,D03,0,0,1
853,-37.0,-31.0,42.0,1645104131.5,P11,D03,0,0,1
854,-37.0,-31.0,42.0,1645104131.53125,P11,D03,0,0,1
855,-37.0,-31.0,42.0,1645104131.5625,P11,D03,0,0,1
856,-37.0,-32.0,42.0,1645104131.59375,P11,D03,0,0,1
857,-37.0,-31.0,42.0,1645104131.625,P11,D03,0,0,1
858,-37.0,-31.0,42.0,1645104131.65625,P11,D03,0,0,1
859,-37.0,-31.0,42.0,1645104131.6875,P11,D03,0,0,1
860,-37.0,-31.0,42.0,1645104131.71875,P11,D03,0,0,1
861,-37.0,-31.0,42.0,1645104131.75,P11,D03,0,0,1
862,-37.0,-31.0,42.0,1645104131.78125,P11,D03,0,0,1
863,-37.0,-31.0,42.0,1645104131.8125,P11,D03,0,0,1
864,-37.0,-31.0,42.0,1645104131.84375,P11,D03,0,0,1
865,-37.0,-31.0,42.0,1645104131.875,P11,D03,0,0,1
866,-36.0,-31.0,42.0,1645104131.90625,P11,D03,0,0,1
867,-37.0,-31.0,42.0,1645104131.9375,P11,D03,0,0,1
868,-37.0,-32.0,42.0,1645104131.96875,P11,D03,0,0,1
869,-37.0,-31.0,42.0,1645104132.0,P11,D03,0,0,1
870,-37.0,-32.0,42.0,1645104132.03125,P11,D03,0,0,1
871,-37.0,-32.0,42.0,1645104132.0625,P11,D03,0,0,1
872,-37.0,-31.0,42.0,1645104132.09375,P11,D03,0,0,1
873,-37.0,-31.0,42.0,1645104132.125,P11,D03,0,0,1
874,-37.0,-32.0,42.0,1645104132.15625,P11,D03,0,0,1
875,-37.0,-31.0,42.0,1645104132.1875,P11,D03,0,0,1
876,-36.0,-31.0,42.0,1645104132.21875,P11,D03,0,0,1
877,-37.0,-32.0,42.0,1645104132.25,P11,D03,0,0,1
878,-37.0,-32.0,41.0,1645104132.28125,P11,D03,0,0,1
879,-37.0,-32.0,42.0,1645104132.3125,P11,D03,0,0,1
880,-37.0,-32.0,42.0,1645104132.34375,P11,D03,0,0,1
881,-37.0,-32.0,42.0,1645104132.375,P11,D03,0,0,1
882,-37.0,-32.0,42.0,1645104132.40625,P11,D03,0,0,1
883,-37.0,-31.0,42.0,1645104132.4375,P11,D03,0,0,1
884,-37.0,-31.0,42.0,1645104132.46875,P11,D03,0,0,1
885,-37.0,-32.0,42.0,1645104132.5,P11,D03,0,0,1
886,-37.0,-32.0,42.0,1645104132.53125,P11,D03,0,0,1
887,-37.0,-32.0,42.0,1645104132.5625,P11,D03,0,0,1
888,-37.0,-31.0,42.0,1645104132.59375,P11,D03,0,0,1
889,-37.0,-32.0,41.0,1645104132.625,P11,D03,0,0,1
890,-37.0,-32.0,42.0,1645104132.65625,P11,D03,0,0,1
891,-37.0,-32.0,42.0,1645104132.6875,P11,D03,0,0,1
892,-37.0,-32.0,42.0,1645104132.71875,P11,D03,0,0,1
893,-36.0,-32.0,42.0,1645104132.75,P11,D03,0,0,1
894,-37.0,-32.0,42.0,1645104132.78125,P11,D03,0,0,1
895,-37.0,-32.0,42.0,1645104132.8125,P11,D03,0,0,1
896,-37.0,-31.0,42.0,1645104132.84375,P11,D03,0,0,1
897,-37.0,-32.0,42.0,1645104132.875,P11,D03,0,0,1
898,-37.0,-32.0,41.0,1645104132.90625,P11,D03,0,0,1
899,-37.0,-31.0,42.0,1645104132.9375,P11,D03,0,0,1
900,-37.0,-32.0,42.0,1645104132.96875,P11,D03,0,0,1
901,-37.0,-32.0,42.0,1645104133.0,P11,D03,0,0,1
902,-37.0,-31.0,41.0,1645104133.03125,P11,D03,0,0,1
903,-37.0,-32.0,42.0,1645104133.0625,P11,D03,0,0,1
904,-37.0,-32.0,42.0,1645104133.09375,P11,D03,0,0,1
905,-37.0,-32.0,42.0,1645104133.125,P11,D03,0,0,1
906,-37.0,-32.0,42.0,1645104133.15625,P11,D03,0,0,1
907,-37.0,-31.0,42.0,1645104133.1875,P11,D03,0,0,1
908,-37.0,-31.0,42.0,1645104133.21875,P11,D03,0,0,1
909,-37.0,-32.0,42.0,1645104133.25,P11,D03,0,0,1
910,-37.0,-32.0,42.0,1645104133.28125,P11,D03,0,0,1
911,-37.0,-31.0,42.0,1645104133.3125,P11,D03,0,0,1
912,-37.0,-31.0,42.0,1645104133.34375,P11,D03,0,0,1
913,-37.0,-32.0,42.0,1645104133.375,P11,D03,0,0,1
914,-37.0,-32.0,42.0,1645104133.40625,P11,D03,0,0,1
915,-37.0,-32.0,42.0,1645104133.4375,P11,D03,0,0,1
916,-37.0,-32.0,42.0,1645104133.46875,P11,D03,0,0,1
917,-37.0,-32.0,42.0,1645104133.5,P11,D03,0,0,1
918,-37.0,-32.0,42.0,1645104133.53125,P11,D03,0,0,1
919,-37.0,-32.0,41.0,1645104133.5625,P11,D03,0,0,1
920,-37.0,-32.0,41.0,1645104133.59375,P11,D03,0,0,1
921,-37.0,-31.0,42.0,1645104133.625,P11,D03,0,0,1
922,-37.0,-32.0,41.0,1645104133.65625,P11,D03,0,0,1
923,-37.0,-32.0,42.0,1645104133.6875,P11,D03,0,0,1
924,-37.0,-31.0,42.0,1645104133.71875,P11,D03,0,0,1
925,-37.0,-32.0,41.0,1645104133.75,P11,D03,0,0,1
926,-37.0,-32.0,42.0,1645104133.78125,P11,D03,0,0,1
927,-37.0,-32.0,42.0,1645104133.8125,P11,D03,0,0,1
928,-37.0,-32.0,42.0,1645104133.84375,P11,D03,0,0,1
929,-37.0,-32.0,42.0,1645104133.875,P11,D03,0,0,1
930,-37.0,-32.0,42.0,1645104133.90625,P11,D03,0,0,1
931,-37.0,-32.0,42.0,1645104133.9375,P11,D03,0,0,1
932,-37.0,-31.0,42.0,1645104133.96875,P11,D03,0,0,1
933,-37.0,-31.0,42.0,1645104134.0,P11,D03,0,0,1
934,-37.0,-32.0,42.0,1645104134.03125,P11,D03,0,0,1
935,-37.0,-31.0,42.0,1645104134.0625,P11,D03,0,0,1
936,-37.0,-32.0,42.0,1645104134.09375,P11,D03,0,0,1
937,-37.0,-31.0,42.0,1645104134.125,P11,D03,0,0,1
938,-37.0,-32.0,42.0,1645104134.15625,P11,D03,0,0,1
939,-37.0,-32.0,42.0,1645104134.1875,P11,D03,0,0,1
940,-37.0,-32.0,42.0,1645104134.21875,P11,D03,0,0,1
941,-37.0,-32.0,42.0,1645104134.25,P11,D03,0,0,1
942,-37.0,-32.0,42.0,1645104134.28125,P11,D03,0,0,1
943,-37.0,-31.0,42.0,1645104134.3125,P11,D03,0,0,1
944,-36.0,-31.0,42.0,1645104134.34375,P11,D03,0,0,1
945,-37.0,-32.0,41.0,1645104134.375,P11,D03,0,0,1
946,-37.0,-31.0,42.0,1645104134.40625,P11,D03,0,0,1
947,-37.0,-31.0,42.0,1645104134.4375,P11,D03,0,0,1
948,-37.0,-32.0,42.0,1645104134.46875,P11,D03,0,0,1
949,-37.0,-31.0,42.0,1645104134.5,P11,D03,0,0,1
950,-36.0,-31.0,42.0,1645104134.53125,P11,D03,0,0,1
951,-37.0,-31.0,41.0,1645104134.5625,P11,D03,0,0,1
952,-37.0,-31.0,42.0,1645104134.59375,P11,D03,0,0,1
953,-37.0,-31.0,42.0,1645104134.625,P11,D03,0,0,1
954,-37.0,-31.0,42.0,1645104134.65625,P11,D03,0,0,1
955,-37.0,-32.0,42.0,1645104134.6875,P11,D03,0,0,1
956,-37.0,-32.0,42.0,1645104134.71875,P11,D03,0,0,1
957,-37.0,-31.0,42.0,1645104134.75,P11,D03,0,0,1
958,-37.0,-31.0,42.0,1645104134.78125,P11,D03,0,0,1
959,-37.0,-31.0,42.0,1645104134.8125,P11,D03,0,0,1
960,-37.0,-31.0,42.0,1645104134.84375,P11,D03,0,0,1
961,-37.0,-31.0,42.0,1645104134.875,P11,D03,0,0,1
962,-37.0,-32.0,42.0,1645104134.90625,P11,D03,0,0,1
963,-37.0,-32.0,42.0,1645104134.9375,P11,D03,0,0,1
964,-37.0,-32.0,42.0,1645104134.96875,P11,D03,0,0,1
965,-37.0,-32.0,42.0,1645104135.0,P11,D03,0,0,1
966,-37.0,-31.0,42.0,1645104135.03125,P11,D03,0,0,1
967,-37.0,-32.0,42.0,1645104135.0625,P11,D03,0,0,1
968,-37.0,-31.0,42.0,1645104135.09375,P11,D03,0,0,1
969,-37.0,-32.0,42.0,1645104135.125,P11,D03,0,0,1
970,-37.0,-32.0,41.0,1645104135.15625,P11,D03,0,0,1
971,-37.0,-31.0,42.0,1645104135.1875,P11,D03,0,0,1
972,-37.0,-31.0,42.0,1645104135.21875,P11,D03,0,0,1
973,-37.0,-32.0,41.0,1645104135.25,P11,D03,0,0,1
974,-37.0,-31.0,41.0,1645104135.28125,P11,D03,0,0,1
975,-37.0,-31.0,42.0,1645104135.3125,P11,D03,0,0,1
976,-37.0,-32.0,42.0,1645104135.34375,P11,D03,0,0,1
977,-37.0,-32.0,41.0,1645104135.375,P11,D03,0,0,1
978,-37.0,-32.0,41.0,1645104135.40625,P11,D03,0,0,1
979,-37.0,-32.0,42.0,1645104135.4375,P11,D03,0,0,1
980,-37.0,-32.0,42.0,1645104135.46875,P11,D03,0,0,1
981,-37.0,-32.0,42.0,1645104135.5,P11,D03,0,0,1
982,-37.0,-31.0,42.0,1645104135.53125,P11,D03,0,0,1
983,-37.0,-31.0,42.0,1645104135.5625,P11,D03,0,0,1
984,-37.0,-32.0,42.0,1645104135.59375,P11,D03,0,0,1
985,-37.0,-32.0,42.0,1645104135.625,P11,D03,0,0,1
986,-37.0,-32.0,42.0,1645104135.65625,P11,D03,0,0,1
987,-37.0,-32.0,42.0,1645104135.6875,P11,D03,0,0,1
988,-37.0,-32.0,42.0,1645104135.71875,P11,D03,0,0,1
989,-37.0,-32.0,41.0,1645104135.75,P11,D03,0,0,1
990,-37.0,-31.0,42.0,1645104135.78125,P11,D03,0,0,1
991,-37.0,-32.0,41.0,1645104135.8125,P11,D03,0,0,1
992,-37.0,-32.0,41.0,1645104135.84375,P11,D03,0,0,1
993,-37.0,-32.0,42.0,1645104135.875,P11,D03,0,0,1
994,-37.0,-31.0,42.0,1645104135.90625,P11,D03,0,0,1
995,-37.0,-32.0,42.0,1645104135.9375,P11,D03,0,0,1
996,-37.0,-32.0,42.0,1645104135.96875,P11,D03,0,0,1
997,-37.0,-32.0,42.0,1645104136.0,P11,D03,0,0,1
998,-37.0,-31.0,42.0,1645104136.03125,P11,D03,0,0,1
999,-37.0,-31.0,41.0,1645104136.0625,P11,D03,0,0,1
1000,-37.0,-32.0,42.0,1645104136.09375,P11,D03,0,0,1
1001,-37.0,-32.0,42.0,1645104136.125,P11,D03,0,0,1
1002,-37.0,-32.0,42.0,1645104136.15625,P11,D03,0,0,1
1003,-37.0,-32.0,42.0,1645104136.1875,P11,D03,0,0,1
1004,-37.0,-31.0,42.0,1645104136.21875,P11,D03,0,0,1
1005,-37.0,-31.0,42.0,1645104136.25,P11,D03,0,0,1
1006,-37.0,-32.0,42.0,1645104136.28125,P11,D03,0,0,1
1007,-37.0,-31.0,42.0,1645104136.3125,P11,D03,0,0,1
1008,-37.0,-31.0,42.0,1645104136.34375,P11,D03,0,0,1
1009,-37.0,-32.0,41.0,1645104136.375,P11,D03,0,0,1
1010,-37.0,-32.0,41.0,1645104136.40625,P11,D03,0,0,1
1011,-37.0,-32.0,41.0,1645104136.4375,P11,D03,0,0,1
1012,-37.0,-32.0,42.0,1645104136.46875,P11,D03,0,0,1
1013,-37.0,-32.0,42.0,1645104136.5,P11,D03,0,0,1
1014,-37.0,-32.0,42.0,1645104136.53125,P11,D03,0,0,1
1015,-37.0,-32.0,42.0,1645104136.5625,P11,D03,0,0,1
1016,-37.0,-32.0,41.0,1645104136.59375,P11,D03,0,0,1
1017,-37.0,-32.0,41.0,1645104136.625,P11,D03,0,0,1
1018,-37.0,-32.0,42.0,1645104136.65625,P11,D03,0,0,1
1019,-37.0,-32.0,41.0,1645104136.6875,P11,D03,0,0,1
1020,-37.0,-32.0,42.0,1645104136.71875,P11,D03,0,0,1
1021,-37.0,-32.0,42.0,1645104136.75,P11,D03,0,0,1
1022,-37.0,-32.0,41.0,1645104136.78125,P11,D03,0,0,1
1023,-37.0,-32.0,42.0,1645104136.8125,P11,D03,0,0,1
1024,-36.0,-31.0,41.0,1645104136.84375,P11,D03,0,0,1
1025,-37.0,-32.0,42.0,1645104136.875,P11,D03,0,0,1
1026,-37.0,-32.0,42.0,1645104136.90625,P11,D03,0,0,1
1027,-37.0,-32.0,42.0,1645104136.9375,P11,D03,0,0,1
1028,-37.0,-32.0,42.0,1645104136.96875,P11,D03,0,0,1
1029,-37.0,-31.0,42.0,1645104137.0,P11,D03,0,0,1
1030,-37.0,-31.0,42.0,1645104137.03125,P11,D03,0,0,1
1031,-37.0,-32.0,42.0,1645104137.0625,P11,D03,0,0,1
1032,-37.0,-31.0,42.0,1645104137.09375,P11,D03,0,0,1
1033,-37.0,-31.0,42.0,1645104137.125,P11,D03,0,0,1
1034,-37.0,-32.0,42.0,1645104137.15625,P11,D03,0,0,1
1035,-37.0,-32.0,42.0,1645104137.1875,P11,D03,0,0,1
1036,-37.0,-31.0,42.0,1645104137.21875,P11,D03,0,0,1
1037,-37.0,-32.0,42.0,1645104137.25,P11,D03,0,0,1
1038,-37.0,-31.0,42.0,1645104137.28125,P11,D03,0,0,1
1039,-37.0,-31.0,42.0,1645104137.3125,P11,D03,0,0,1
1040,-37.0,-32.0,42.0,1645104137.34375,P11,D03,0,0,1
1041,-37.0,-32.0,42.0,1645104137.375,P11,D03,0,0,1
1042,-37.0,-31.0,42.0,1645104137.40625,P11,D03,0,0,1
1043,-37.0,-31.0,42.0,1645104137.4375,P11,D03,0,0,1
1044,-37.0,-32.0,42.0,1645104137.46875,P11,D03,0,0,1
1045,-37.0,-32.0,42.0,1645104137.5,P11,D03,0,0,1
1046,-37.0,-31.0,42.0,1645104137.53125,P11,D03,0,0,1
1047,-37.0,-31.0,42.0,1645104137.5625,P11,D03,0,0,1
1048,-37.0,-32.0,41.0,1645104137.59375,P11,D03,0,0,1
1049,-37.0,-31.0,42.0,1645104137.625,P11,D03,0,0,1
1050,-37.0,-32.0,42.0,1645104137.65625,P11,D03,0,0,1
1051,-37.0,-32.0,42.0,1645104137.6875,P11,D03,0,0,1
1052,-37.0,-31.0,42.0,1645104137.71875,P11,D03,0,0,1
1053,-37.0,-32.0,42.0,1645104137.75,P11,D03,0,0,1
1054,-37.0,-32.0,42.0,1645104137.78125,P11,D03,0,0,1
1055,-37.0,-32.0,41.0,1645104137.8125,P11,D03,0,0,1
1056,-37.0,-32.0,42.0,1645104137.84375,P11,D03,0,0,1
1057,-37.0,-32.0,42.0,1645104137.875,P11,D03,0,0,1
1058,-37.0,-32.0,42.0,1645104137.90625,P11,D03,0,0,1
1059,-37.0,-32.0,42.0,1645104137.9375,P11,D03,0,0,1
1060,-37.0,-32.0,41.0,1645104137.96875,P11,D03,0,0,1
1061,-37.0,-31.0,42.0,1645104138.0,P11,D03,0,0,1
1062,-37.0,-32.0,42.0,1645104138.03125,P11,D03,0,0,1
1063,-37.0,-32.0,41.0,1645104138.0625,P11,D03,0,0,1
1064,-37.0,-32.0,42.0,1645104138.09375,P11,D03,0,0,1
1065,-37.0,-32.0,42.0,1645104138.125,P11,D03,0,0,1
1066,-37.0,-32.0,41.0,1645104138.15625,P11,D03,0,0,1
1067,-37.0,-32.0,42.0,1645104138.1875,P11,D03,0,0,1
1068,-37.0,-32.0,41.0,1645104138.21875,P11,D03,0,0,1
1069,-37.0,-32.0,41.0,1645104138.25,P11,D03,0,0,1
1070,-37.0,-32.0,42.0,1645104138.28125,P11,D03,0,0,1
1071,-37.0,-32.0,42.0,1645104138.3125,P11,D03,0,0,1
1072,-37.0,-32.0,41.0,1645104138.34375,P11,D03,0,0,1
1073,-37.0,-31.0,41.0,1645104138.375,P11,D03,0,0,1
1074,-37.0,-32.0,42.0,1645104138.40625,P11,D03,0,0,1
1075,-37.0,-32.0,41.0,1645104138.4375,P11,D03,0,0,1
1076,-37.0,-31.0,41.0,1645104138.46875,P11,D03,0,0,1
1077,-37.0,-32.0,42.0,1645104138.5,P11,D03,0,0,1
1078,-37.0,-32.0,42.0,1645104138.53125,P11,D03,0,0,1
1079,-37.0,-32.0,42.0,1645104138.5625,P11,D03,0,0,1
1080,-37.0,-32.0,41.0,1645104138.59375,P11,D03,0,0,1
1081,-37.0,-31.0,42.0,1645104138.625,P11,D03,0,0,1
1082,-37.0,-32.0,42.0,1645104138.65625,P11,D03,0,0,1
1083,-37.0,-32.0,42.0,1645104138.6875,P11,D03,0,0,1
1084,-37.0,-32.0,41.0,1645104138.71875,P11,D03,0,0,1
1085,-37.0,-32.0,41.0,1645104138.75,P11,D03,0,0,1
1086,-37.0,-32.0,42.0,1645104138.78125,P11,D03,0,0,1
1087,-37.0,-32.0,41.0,1645104138.8125,P11,D03,0,0,1
1088,-37.0,-32.0,42.0,1645104138.84375,P11,D03,0,0,1
1089,-37.0,-32.0,42.0,1645104138.875,P11,D03,0,0,1
1090,-37.0,-32.0,42.0,1645104138.90625,P11,D03,0,0,1
1091,-37.0,-32.0,42.0,1645104138.9375,P11,D03,0,0,1
1092,-37.0,-32.0,41.0,1645104138.96875,P11,D03,0,0,1
1093,-37.0,-32.0,41.0,1645104139.0,P11,D03,0,0,1
1094,-37.0,-32.0,42.0,1645104139.03125,P11,D03,0,0,1
1095,-37.0,-32.0,42.0,1645104139.0625,P11,D03,0,0,1
1096,-37.0,-32.0,41.0,1645104139.09375,P11,D03,0,0,1
1097,-37.0,-32.0,41.0,1645104139.125,P11,D03,0,0,1
1098,-37.0,-32.0,42.0,1645104139.15625,P11,D03,0,0,1
1099,-37.0,-32.0,42.0,1645104139.1875,P11,D03,0,0,1
1100,-37.0,-32.0,41.0,1645104139.21875,P11,D03,0,0,1
1101,-37.0,-32.0,42.0,1645104139.25,P11,D03,0,0,1
1102,-37.0,-32.0,42.0,1645104139.28125,P11,D03,0,0,1
1103,-37.0,-32.0,42.0,1645104139.3125,P11,D03,0,0,1
1104,-37.0,-32.0,42.0,1645104139.34375,P11,D03,0,0,1
1105,-37.0,-32.0,42.0,1645104139.375,P11,D03,0,0,1
1106,-37.0,-31.0,41.0,1645104139.40625,P11,D03,0,0,1
1107,-37.0,-32.0,42.0,1645104139.4375,P11,D03,0,0,1
1108,-37.0,-32.0,42.0,1645104139.46875,P11,D03,0,0,1
1109,-37.0,-31.0,41.0,1645104139.5,P11,D03,0,0,1
1110,-37.0,-32.0,41.0,1645104139.53125,P11,D03,0,0,1
1111,-37.0,-32.0,42.0,1645104139.5625,P11,D03,0,0,1
1112,-37.0,-31.0,42.0,1645104139.59375,P11,D03,0,0,1
1113,-37.0,-31.0,41.0,1645104139.625,P11,D03,0,0,1
1114,-37.0,-32.0,42.0,1645104139.65625,P11,D03,0,0,1
1115,-37.0,-31.0,41.0,1645104139.6875,P11,D03,0,0,1
1116,-37.0,-32.0,42.0,1645104139.71875,P11,D03,0,0,1
1117,-37.0,-31.0,42.0,1645104139.75,P11,D03,0,0,1
1118,-37.0,-32.0,42.0,1645104139.78125,P11,D03,0,0,1
1119,-37.0,-32.0,41.0,1645104139.8125,P11,D03,0,0,1
1120,-37.0,-31.0,41.0,1645104139.84375,P11,D03,0,0,1
1121,-37.0,-31.0,42.0,1645104139.875,P11,D03,0,0,1
1122,-37.0,-32.0,42.0,1645104139.90625,P11,D03,0,0,1
1123,-37.0,-31.0,42.0,1645104139.9375,P11,D03,0,0,1
1124,-37.0,-32.0,42.0,1645104139.96875,P11,D03,0,0,1
1125,-37.0,-32.0,42.0,1645104140.0,P11,D03,0,0,1
1126,-37.0,-32.0,42.0,1645104140.03125,P11,D03,0,0,1
1127,-37.0,-31.0,42.0,1645104140.0625,P11,D03,0,0,1
1128,-37.0,-31.0,42.0,1645104140.09375,P11,D03,0,0,1
1129,-37.0,-32.0,42.0,1645104140.125,P11,D03,0,0,1
1130,-37.0,-32.0,42.0,1645104140.15625,P11,D03,0,0,1
1131,-37.0,-32.0,42.0,1645104140.1875,P11,D03,0,0,1
1132,-37.0,-32.0,42.0,1645104140.21875,P11,D03,0,0,1
1133,-37.0,-32.0,42.0,1645104140.25,P11,D03,0,0,1
1134,-37.0,-32.0,42.0,1645104140.28125,P11,D03,0,0,1
1135,-37.0,-32.0,42.0,1645104140.3125,P11,D03,0,0,1
1136,-37.0,-32.0,42.0,1645104140.34375,P11,D03,0,0,1
1137,-37.0,-32.0,42.0,1645104140.375,P11,D03,0,0,1
1138,-37.0,-32.0,41.0,1645104140.40625,P11,D03,0,0,1
1139,-37.0,-32.0,42.0,1645104140.4375,P11,D03,0,0,1
1140,-37.0,-31.0,42.0,1645104140.46875,P11,D03,0,0,1
1141,-37.0,-32.0,41.0,1645104140.5,P11,D03,0,0,1
1142,-37.0,-32.0,41.0,1645104140.53125,P11,D03,0,0,1
1143,-37.0,-31.0,41.0,1645104140.5625,P11,D03,0,0,1
1144,-37.0,-32.0,42.0,1645104140.59375,P11,D03,0,0,1
1145,-37.0,-32.0,41.0,1645104140.625,P11,D03,0,0,1
1146,-37.0,-32.0,41.0,1645104140.65625,P11,D03,0,0,1
1147,-37.0,-32.0,42.0,1645104140.6875,P11,D03,0,0,1
1148,-37.0,-32.0,42.0,1645104140.71875,P11,D03,0,0,1
1149,-37.0,-32.0,42.0,1645104140.75,P11,D03,0,0,1
1150,-37.0,-32.0,42.0,1645104140.78125,P11,D03,0,0,1
1151,-37.0,-31.0,42.0,1645104140.8125,P11,D03,0,0,1
1152,-37.0,-32.0,42.0,1645104140.84375,P11,D03,0,0,1
1153,-37.0,-31.0,42.0,1645104140.875,P11,D03,0,0,1
1154,-37.0,-32.0,42.0,1645104140.90625,P11,D03,0,0,1
1155,-37.0,-32.0,42.0,1645104140.9375,P11,D03,0,0,1
1156,-37.0,-32.0,42.0,1645104140.96875,P11,D03,0,0,1
1157,-37.0,-32.0,42.0,1645104141.0,P11,D03,0,0,1
1158,-37.0,-32.0,42.0,1645104141.03125,P11,D03,0,0,1
1159,-37.0,-32.0,42.0,1645104141.0625,P11,D03,0,0,1
1160,-37.0,-32.0,42.0,1645104141.09375,P11,D03,0,0,1
1161,-37.0,-32.0,41.0,1645104141.125,P11,D03,0,0,1
1162,-37.0,-31.0,42.0,1645104141.15625,P11,D03,0,0,1
1163,-37.0,-32.0,42.0,1645104141.1875,P11,D03,0,0,1
1164,-37.0,-32.0,41.0,1645104141.21875,P11,D03,0,0,1
1165,-37.0,-32.0,41.0,1645104141.25,P11,D03,0,0,1
1166,-37.0,-32.0,42.0,1645104141.28125,P11,D03,0,0,1
1167,-37.0,-32.0,42.0,1645104141.3125,P11,D03,0,0,1
1168,-37.0,-32.0,42.0,1645104141.34375,P11,D03,0,0,1
1169,-37.0,-32.0,42.0,1645104141.375,P11,D03,0,0,1
1170,-37.0,-32.0,42.0,1645104141.40625,P11,D03,0,0,1
1171,-37.0,-32.0,41.0,1645104141.4375,P11,D03,0,0,1
1172,-37.0,-32.0,41.0,1645104141.46875,P11,D03,0,0,1
1173,-37.0,-32.0,42.0,1645104141.5,P11,D03,0,0,1
1174,-37.0,-32.0,42.0,1645104141.53125,P11,D03,0,0,1
1175,-37.0,-32.0,42.0,1645104141.5625,P11,D03,0,0,1
1176,-37.0,-32.0,41.0,1645104141.59375,P11,D03,0,0,1
1177,-37.0,-32.0,42.0,1645104141.625,P11,D03,0,0,1
1178,-37.0,-32.0,42.0,1645104141.65625,P11,D03,0,0,1
1179,-37.0,-32.0,42.0,1645104141.6875,P11,D03,0,0,1
1180,-37.0,-32.0,41.0,1645104141.71875,P11,D03,0,0,1
1181,-37.0,-32.0,41.0,1645104141.75,P11,D03,0,0,1
1182,-37.0,-32.0,41.0,1645104141.78125,P11,D03,0,0,1
1183,-37.0,-32.0,42.0,1645104141.8125,P11,D03,0,0,1
1184,-37.0,-32.0,42.0,1645104141.84375,P11,D03,0,0,1
1185,-37.0,-32.0,41.0,1645104141.875,P11,D03,0,0,1
1186,-37.0,-32.0,42.0,1645104141.90625,P11,D03,0,0,1
1187,-37.0,-32.0,42.0,1645104141.9375,P11,D03,0,0,1
1188,-37.0,-32.0,41.0,1645104141.96875,P11,D03,0,0,1
1189,-37.0,-32.0,41.0,1645104142.0,P11,D03,0,0,1
1190,-37.0,-32.0,42.0,1645104142.03125,P11,D03,0,0,1
1191,-37.0,-32.0,42.0,1645104142.0625,P11,D03,0,0,1
1192,-37.0,-32.0,41.0,1645104142.09375,P11,D03,0,0,1
1193,-37.0,-32.0,42.0,1645104142.125,P11,D03,0,0,1
1194,-37.0,-31.0,42.0,1645104142.15625,P11,D03,0,0,1
1195,-37.0,-32.0,41.0,1645104142.1875,P11,D03,0,0,1
1196,-37.0,-31.0,42.0,1645104142.21875,P11,D03,0,0,1
1197,-37.0,-31.0,42.0,1645104142.25,P11,D03,0,0,1
1198,-37.0,-32.0,42.0,1645104142.28125,P11,D03,0,0,1
1199,-37.0,-32.0,42.0,1645104142.3125,P11,D03,0,0,1
1200,-37.0,-32.0,41.0,1645104142.34375,P11,D03,0,0,1
1201,-37.0,-32.0,42.0,1645104142.375,P11,D03,0,0,1
1202,-37.0,-31.0,42.0,1645104142.40625,P11,D03,0,0,1
1203,-37.0,-32.0,42.0,1645104142.4375,P11,D03,0,0,1
1204,-37.0,-32.0,42.0,1645104142.46875,P11,D03,0,0,1
1205,-37.0,-32.0,42.0,1645104142.5,P11,D03,0,0,1
1206,-37.0,-31.0,42.0,1645104142.53125,P11,D03,0,0,1
1207,-37.0,-31.0,42.0,1645104142.5625,P11,D03,0,0,1
1208,-37.0,-32.0,42.0,1645104142.59375,P11,D03,0,0,1
1209,-37.0,-32.0,42.0,1645104142.625,P11,D03,0,0,1
1210,-37.0,-32.0,42.0,1645104142.65625,P11,D03,0,0,1
1211,-37.0,-31.0,42.0,1645104142.6875,P11,D03,0,0,1
1212,-37.0,-31.0,41.0,1645104142.71875,P11,D03,0,0,1
1213,-37.0,-32.0,41.0,1645104142.75,P11,D03,0,0,1
1214,-37.0,-31.0,41.0,1645104142.78125,P11,D03,0,0,1
1215,-37.0,-32.0,42.0,1645104142.8125,P11,D03,0,0,1
1216,-37.0,-32.0,42.0,1645104142.84375,P11,D03,0,0,1
1217,-37.0,-31.0,41.0,1645104142.875,P11,D03,0,0,1
1218,-37.0,-32.0,42.0,1645104142.90625,P11,D03,0,0,1
1219,-37.0,-32.0,42.0,1645104142.9375,P11,D03,0,0,1
1220,-37.0,-32.0,41.0,1645104142.96875,P11,D03,0,0,1
1221,-37.0,-32.0,41.0,1645104143.0,P11,D03,0,0,1
1222,-37.0,-32.0,42.0,1645104143.03125,P11,D03,0,0,1
1223,-37.0,-32.0,41.0,1645104143.0625,P11,D03,0,0,1
1224,-37.0,-32.0,41.0,1645104143.09375,P11,D03,0,0,1
1225,-37.0,-32.0,41.0,1645104143.125,P11,D03,0,0,1
1226,-37.0,-32.0,42.0,1645104143.15625,P11,D03,0,0,1
1227,-37.0,-31.0,42.0,1645104143.1875,P11,D03,0,0,1
1228,-37.0,-32.0,42.0,1645104143.21875,P11,D03,0,0,1
1229,-37.0,-32.0,42.0,1645104143.25,P11,D03,0,0,1
1230,-37.0,-32.0,42.0,1645104143.28125,P11,D03,0,0,1
1231,-37.0,-32.0,41.0,1645104143.3125,P11,D03,0,0,1
1232,-37.0,-32.0,42.0,1645104143.34375,P11,D03,0,0,1
1233,-37.0,-31.0,41.0,1645104143.375,P11,D03,0,0,1
1234,-37.0,-32.0,42.0,1645104143.40625,P11,D03,0,0,1
1235,-37.0,-32.0,41.0,1645104143.4375,P11,D03,0,0,1
1236,-37.0,-31.0,42.0,1645104143.46875,P11,D03,0,0,1
1237,-37.0,-31.0,42.0,1645104143.5,P11,D03,0,0,1
1238,-37.0,-32.0,41.0,1645104143.53125,P11,D03,0,0,1
1239,-37.0,-32.0,42.0,1645104143.5625,P11,D03,0,0,1
1240,-37.0,-32.0,41.0,1645104143.59375,P11,D03,0,0,1
1241,-37.0,-32.0,41.0,1645104143.625,P11,D03,0,0,1
1242,-37.0,-32.0,42.0,1645104143.65625,P11,D03,0,0,1
1243,-37.0,-32.0,42.0,1645104143.6875,P11,D03,0,0,1
1244,-37.0,-32.0,41.0,1645104143.71875,P11,D03,0,0,1
1245,-37.0,-32.0,41.0,1645104143.75,P11,D03,0,0,1
1246,-37.0,-32.0,42.0,1645104143.78125,P11,D03,0,0,1
1247,-37.0,-31.0,42.0,1645104143.8125,P11,D03,0,0,1
1248,-37.0,-32.0,41.0,1645104143.84375,P11,D03,0,0,1
1249,-37.0,-32.0,41.0,1645104143.875,P11,D03,0,0,1
1250,-37.0,-32.0,41.0,1645104143.90625,P11,D03,0,0,1
1251,-37.0,-31.0,41.0,1645104143.9375,P11,D03,0,0,1
1252,-37.0,-32.0,41.0,1645104143.96875,P11,D03,0,0,1
1253,-37.0,-32.0,42.0,1645104144.0,P11,D03,0,0,1
1254,-37.0,-32.0,41.0,1645104144.03125,P11,D03,0,0,1
1255,-37.0,-31.0,41.0,1645104144.0625,P11,D03,0,0,1
1256,-37.0,-32.0,41.0,1645104144.09375,P11,D03,0,0,1
1257,-37.0,-32.0,42.0,1645104144.125,P11,D03,0,0,1
1258,-37.0,-32.0,41.0,1645104144.15625,P11,D03,0,0,1
1259,-37.0,-32.0,41.0,1645104144.1875,P11,D03,0,0,1
1260,-37.0,-32.0,41.0,1645104144.21875,P11,D03,0,0,1
1261,-37.0,-32.0,41.0,1645104144.25,P11,D03,0,0,1
1262,-37.0,-31.0,42.0,1645104144.28125,P11,D03,0,0,1
1263,-37.0,-32.0,41.0,1645104144.3125,P11,D03,0,0,1
1264,-37.0,-32.0,41.0,1645104144.34375,P11,D03,0,0,1
1265,-36.0,-31.0,42.0,1645104144.375,P11,D03,0,0,1
1266,-37.0,-31.0,42.0,1645104144.40625,P11,D03,0,0,1
1267,-37.0,-32.0,41.0,1645104144.4375,P11,D03,0,0,1
1268,-37.0,-32.0,42.0,1645104144.46875,P11,D03,0,0,1
1269,-37.0,-32.0,41.0,1645104144.5,P11,D03,0,0,1
1270,-37.0,-32.0,41.0,1645104144.53125,P11,D03,0,0,1
1271,-37.0,-32.0,41.0,1645104144.5625,P11,D03,0,0,1
1272,-37.0,-32.0,41.0,1645104144.59375,P11,D03,0,0,1
1273,-37.0,-32.0,42.0,1645104144.625,P11,D03,0,0,1
1274,-37.0,-32.0,42.0,1645104144.65625,P11,D03,0,0,1
1275,-37.0,-32.0,41.0,1645104144.6875,P11,D03,0,0,1
1276,-37.0,-32.0,41.0,1645104144.71875,P11,D03,0,0,1
1277,-37.0,-31.0,42.0,1645104144.75,P11,D03,0,0,1
1278,-37.0,-32.0,42.0,1645104144.78125,P11,D03,0,0,1
1279,-37.0,-32.0,42.0,1645104144.8125,P11,D03,0,0,1
1280,-37.0,-32.0,41.0,1645104144.84375,P11,D03,0,0,1
1281,-37.0,-32.0,42.0,1645104144.875,P11,D03,0,0,1
1282,-37.0,-32.0,42.0,1645104144.90625,P11,D03,0,0,1
1283,-37.0,-32.0,41.0,1645104144.9375,P11,D03,0,0,1
1284,-37.0,-32.0,41.0,1645104144.96875,P11,D03,0,0,1
1285,-37.0,-32.0,42.0,1645104145.0,P11,D03,0,0,1
1286,-37.0,-32.0,42.0,1645104145.03125,P11,D03,0,0,1
1287,-37.0,-32.0,41.0,1645104145.0625,P11,D03,0,0,1
1288,-37.0,-32.0,42.0,1645104145.09375,P11,D03,0,0,1
1289,-37.0,-31.0,42.0,1645104145.125,P11,D03,0,0,1
1290,-37.0,-32.0,42.0,1645104145.15625,P11,D03,0,0,1
1291,-37.0,-32.0,41.0,1645104145.1875,P11,D03,0,0,1
1292,-37.0,-32.0,42.0,1645104145.21875,P11,D03,0,0,1
1293,-37.0,-31.0,42.0,1645104145.25,P11,D03,0,0,1
1294,-37.0,-32.0,42.0,1645104145.28125,P11,D03,0,0,1
1295,-37.0,-32.0,42.0,1645104145.3125,P11,D03,0,0,1
1296,-37.0,-31.0,41.0,1645104145.34375,P11,D03,0,0,1
1297,-37.0,-31.0,42.0,1645104145.375,P11,D03,0,0,1
1298,-37.0,-32.0,42.0,1645104145.40625,P11,D03,0,0,1
1299,-37.0,-32.0,42.0,1645104145.4375,P11,D03,0,0,1
1300,-37.0,-32.0,42.0,1645104145.46875,P11,D03,0,0,1
1301,-37.0,-32.0,41.0,1645104145.5,P11,D03,0,0,1
1302,-37.0,-32.0,41.0,1645104145.53125,P11,D03,0,0,1
1303,-37.0,-32.0,42.0,1645104145.5625,P11,D03,0,0,1
1304,-37.0,-31.0,41.0,1645104145.59375,P11,D03,0,0,1
1305,-37.0,-32.0,41.0,1645104145.625,P11,D03,0,0,1
1306,-37.0,-32.0,41.0,1645104145.65625,P11,D03,0,0,1
1307,-37.0,-32.0,41.0,1645104145.6875,P11,D03,0,0,1
1308,-37.0,-32.0,41.0,1645104145.71875,P11,D03,0,0,1
1309,-37.0,-32.0,42.0,1645104145.75,P11,D03,0,0,1
1310,-37.0,-32.0,42.0,1645104145.78125,P11,D03,0,0,1
1311,-37.0,-32.0,41.0,1645104145.8125,P11,D03,0,0,1
1312,-37.0,-32.0,41.0,1645104145.84375,P11,D03,0,0,1
1313,-37.0,-32.0,42.0,1645104145.875,P11,D03,0,0,1
1314,-37.0,-32.0,42.0,1645104145.90625,P11,D03,0,0,1
1315,-37.0,-32.0,41.0,1645104145.9375,P11,D03,0,0,1
1316,-37.0,-31.0,41.0,1645104145.96875,P11,D03,0,0,1
1317,-37.0,-32.0,42.0,1645104146.0,P11,D03,0,0,1
1318,-37.0,-32.0,41.0,1645104146.03125,P11,D03,0,0,1
1319,-37.0,-31.0,42.0,1645104146.0625,P11,D03,0,0,1
1320,-37.0,-32.0,42.0,1645104146.09375,P11,D03,0,0,1
1321,-37.0,-32.0,41.0,1645104146.125,P11,D03,0,0,1
1322,-37.0,-32.0,41.0,1645104146.15625,P11,D03,0,0,1
1323,-37.0,-32.0,41.0,1645104146.1875,P11,D03,0,0,1
1324,-37.0,-32.0,42.0,1645104146.21875,P11,D03,0,0,1
1325,-37.0,-32.0,42.0,1645104146.25,P11,D03,0,0,1
1326,-37.0,-32.0,41.0,1645104146.28125,P11,D03,0,0,1
1327,-37.0,-32.0,42.0,1645104146.3125,P11,D03,0,0,1
1328,-37.0,-32.0,42.0,1645104146.34375,P11,D03,0,0,1
1329,-37.0,-32.0,42.0,1645104146.375,P11,D03,0,0,1
1330,-37.0,-31.0,41.0,1645104146.40625,P11,D03,0,0,1
1331,-37.0,-31.0,42.0,1645104146.4375,P11,D03,0,0,1
1332,-37.0,-31.0,41.0,1645104146.46875,P11,D03,0,0,1
1333,-37.0,-31.0,41.0,1645104146.5,P11,D03,0,0,1
1334,-36.0,-31.0,43.0,1645104146.53125,P11,D03,0,0,1
1335,-38.0,-31.0,42.0,1645104146.5625,P11,D03,0,0,1
1336,-37.0,-32.0,42.0,1645104146.59375,P11,D03,0,0,1
1337,-38.0,-31.0,41.0,1645104146.625,P11,D03,0,0,1
1338,-36.0,-31.0,42.0,1645104146.65625,P11,D03,0,0,1
1339,-38.0,-31.0,42.0,1645104146.6875,P11,D03,0,0,1
1340,-40.0,-30.0,43.0,1645104146.71875,P11,D03,0,0,1
1341,-52.0,-28.0,57.0,1645104146.75,P11,D03,0,0,1
1342,-37.0,-34.0,82.0,1645104146.78125,P11,D03,0,0,1
1343,-59.0,-38.0,69.0,1645104146.8125,P11,D03,0,0,1
1344,-75.0,-44.0,64.0,1645104146.84375,P11,D03,0,0,1
1345,-61.0,-45.0,64.0,1645104146.875,P11,D03,0,0,1
1346,-46.0,-45.0,44.0,1645104146.90625,P11,D03,0,0,1
1347,-38.0,-43.0,34.0,1645104146.9375,P11,D03,0,0,1
1348,-14.0,-40.0,14.0,1645104146.96875,P11,D03,0,0,1
1349,-3.0,-37.0,13.0,1645104147.0,P11,D03,0,0,1
1350,12.0,-34.0,6.0,1645104147.03125,P11,D03,0,0,1
1351,22.0,-34.0,1.0,1645104147.0625,P11,D03,0,0,1
1352,36.0,-34.0,0.0,1645104147.09375,P11,D03,0,0,1
1353,43.0,-35.0,1.0,1645104147.125,P11,D03,0,0,1
1354,59.0,-38.0,0.0,1645104147.15625,P11,D03,0,0,1
1355,46.0,-39.0,7.0,1645104147.1875,P11,D03,0,0,1
1356,39.0,-40.0,10.0,1645104147.21875,P11,D03,0,0,1
1357,23.0,-43.0,15.0,1645104147.25,P11,D03,0,0,1
1358,20.0,-45.0,16.0,1645104147.28125,P11,D03,0,0,1
1359,21.0,-50.0,18.0,1645104147.3125,P11,D03,0,0,1
1360,23.0,-53.0,21.0,1645104147.34375,P11,D03,0,0,1
1361,25.0,-57.0,21.0,1645104147.375,P11,D03,0,0,1
1362,21.0,-60.0,18.0,1645104147.40625,P11,D03,0,0,1
1363,28.0,-62.0,20.0,1645104147.4375,P11,D03,0,0,1
1364,31.0,-61.0,30.0,1645104147.46875,P11,D03,0,0,1
1365,23.0,-59.0,24.0,1645104147.5,P11,D03,0,0,1
1366,24.0,-55.0,10.0,1645104147.53125,P11,D03,0,0,1
1367,20.0,-52.0,10.0,1645104147.5625,P11,D03,0,0,1
1368,36.0,-48.0,20.0,1645104147.59375,P11,D03,0,0,1
1369,31.0,-49.0,19.0,1645104147.625,P11,D03,0,0,1
1370,26.0,-50.0,15.0,1645104147.65625,P11,D03,0,0,1
1371,31.0,-51.0,14.0,1645104147.6875,P11,D03,0,0,1
1372,33.0,-53.0,16.0,1645104147.71875,P11,D03,0,0,1
1373,26.0,-56.0,9.0,1645104147.75,P11,D03,0,0,1
1374,30.0,-57.0,5.0,1645104147.78125,P11,D03,0,0,1
1375,31.0,-57.0,5.0,1645104147.8125,P11,D03,0,0,1
1376,30.0,-52.0,9.0,1645104147.84375,P11,D03,0,0,1
1377,7.0,-44.0,26.0,1645104147.875,P11,D03,0,0,1
1378,3.0,-43.0,30.0,1645104147.90625,P11,D03,0,0,1
1379,-8.0,-41.0,34.0,1645104147.9375,P11,D03,0,0,1
1380,-10.0,-41.0,35.0,1645104147.96875,P11,D03,0,0,1
1381,-4.0,-43.0,37.0,1645104148.0,P11,D03,0,0,1
1382,5.0,-40.0,44.0,1645104148.03125,P11,D03,0,0,1
1383,7.0,-35.0,53.0,1645104148.0625,P11,D03,0,0,1
1384,2.0,-34.0,54.0,1645104148.09375,P11,D03,0,0,1
1385,-11.0,-32.0,52.0,1645104148.125,P11,D03,0,0,1
1386,-23.0,-33.0,49.0,1645104148.15625,P11,D03,0,0,1
1387,-35.0,-37.0,50.0,1645104148.1875,P11,D03,0,0,1
1388,-38.0,-39.0,54.0,1645104148.21875,P11,D03,0,0,1
1389,-34.0,-40.0,55.0,1645104148.25,P11,D03,0,0,1
1390,-36.0,-41.0,52.0,1645104148.28125,P11,D03,0,0,1
1391,-37.0,-42.0,51.0,1645104148.3125,P11,D03,0,0,1
1392,-33.0,-40.0,47.0,1645104148.34375,P11,D03,0,0,1
1393,-46.0,-40.0,46.0,1645104148.375,P11,D03,0,0,1
1394,-45.0,-35.0,54.0,1645104148.40625,P11,D03,0,0,1
1395,-38.0,-33.0,49.0,1645104148.4375,P11,D03,0,0,1
1396,-34.0,-29.0,39.0,1645104148.46875,P11,D03,0,0,1
1397,-36.0,-28.0,37.0,1645104148.5,P11,D03,0,0,1
1398,-43.0,-29.0,37.0,1645104148.53125,P11,D03,0,0,1
1399,-46.0,-33.0,36.0,1645104148.5625,P11,D03,0,0,1
1400,-47.0,-35.0,36.0,1645104148.59375,P11,D03,0,0,1
1401,-40.0,-35.0,40.0,1645104148.625,P11,D03,0,0,1
1402,-37.0,-34.0,45.0,1645104148.65625,P11,D03,0,0,1
1403,-29.0,-32.0,50.0,1645104148.6875,P11,D03,0,0,1
1404,-28.0,-31.0,50.0,1645104148.71875,P11,D03,0,0,1
1405,-31.0,-29.0,47.0,1645104148.75,P11,D03,0,0,1
1406,-35.0,-29.0,45.0,1645104148.78125,P11,D03,0,0,1
1407,-38.0,-29.0,40.0,1645104148.8125,P11,D03,0,0,1
1408,-38.0,-30.0,41.0,1645104148.84375,P11,D03,0,0,1
1409,-35.0,-30.0,45.0,1645104148.875,P11,D03,0,0,1
1410,-35.0,-30.0,44.0,1645104148.90625,P11,D03,0,0,1
1411,-36.0,-31.0,43.0,1645104148.9375,P11,D03,0,0,1
1412,-36.0,-30.0,43.0,1645104148.96875,P11,D03,0,0,1
1413,-36.0,-30.0,43.0,1645104149.0,P11,D03,0,0,1
1414,-36.0,-30.0,44.0,1645104149.03125,P11,D03,0,0,1
1415,-36.0,-30.0,44.0,1645104149.0625,P11,D03,0,0,1
1416,-36.0,-29.0,43.0,1645104149.09375,P11,D03,0,0,1
1417,-35.0,-29.0,43.0,1645104149.125,P11,D03,0,0,1
1418,-36.0,-30.0,43.0,1645104149.15625,P11,D03,0,0,1
1419,-35.0,-30.0,42.0,1645104149.1875,P11,D03,0,0,1
1420,-36.0,-32.0,42.0,1645104149.21875,P11,D03,0,0,1
1421,-36.0,-32.0,43.0,1645104149.25,P11,D03,0,0,1
1422,-35.0,-32.0,43.0,1645104149.28125,P11,D03,0,0,1
1423,-36.0,-31.0,43.0,1645104149.3125,P11,D03,0,0,1
1424,-36.0,-31.0,43.0,1645104149.34375,P11,D03,0,0,1
1425,-36.0,-30.0,42.0,1645104149.375,P11,D03,0,0,1
1426,-36.0,-31.0,42.0,1645104149.40625,P11,D03,0,0,1
1427,-36.0,-31.0,43.0,1645104149.4375,P11,D03,0,0,1
1428,-36.0,-31.0,43.0,1645104149.46875,P11,D03,0,0,1
1429,-37.0,-31.0,42.0,1645104149.5,P11,D03,0,0,1
1430,-37.0,-31.0,42.0,1645104149.53125,P11,D03,0,0,1
1431,-36.0,-31.0,42.0,1645104149.5625,P11,D03,0,0,1
1432,-36.0,-31.0,42.0,1645104149.59375,P11,D03,0,0,1
1433,-36.0,-31.0,43.0,1645104149.625,P11,D03,0,0,1
1434,-36.0,-31.0,43.0,1645104149.65625,P11,D03,0,0,1
1435,-36.0,-31.0,42.0,1645104149.6875,P11,D03,0,0,1
1436,-36.0,-31.0,43.0,1645104149.71875,P11,D03,0,0,1
1437,-36.0,-31.0,43.0,1645104149.75,P11,D03,0,0,1
1438,-36.0,-30.0,43.0,1645104149.78125,P11,D03,0,0,1
1439,-36.0,-30.0,43.0,1645104149.8125,P11,D03,0,0,1
1440,-36.0,-30.0,43.0,1645104149.84375,P11,D03,0,0,1
1441,-36.0,-30.0,43.0,1645104149.875,P11,D03,0,0,1
1442,-36.0,-30.0,43.0,1645104149.90625,P11,D03,0,0,1
1443,-36.0,-30.0,43.0,1645104149.9375,P11,D03,0,0,1
1444,-36.0,-30.0,43.0,1645104149.96875,P11,D03,0,0,1
1445,-37.0,-30.0,43.0,1645104150.0,P11,D03,0,0,1
1446,-36.0,-30.0,43.0,1645104150.03125,P11,D03,0,0,1
1447,-36.0,-31.0,43.0,1645104150.0625,P11,D03,0,0,1
1448,-36.0,-30.0,43.0,1645104150.09375,P11,D03,0,0,1
1449,-36.0,-30.0,43.0,1645104150.125,P11,D03,0,0,1
1450,-36.0,-30.0,43.0,1645104150.15625,P11,D03,0,0,1
1451,-36.0,-30.0,43.0,1645104150.1875,P11,D03,0,0,1
1452,-36.0,-30.0,43.0,1645104150.21875,P11,D03,0,0,1
1453,-37.0,-30.0,42.0,1645104150.25,P11,D03,0,0,1
1454,-36.0,-30.0,43.0,1645104150.28125,P11,D03,0,0,1
1455,-36.0,-30.0,43.0,1645104150.3125,P11,D03,0,0,1
1456,-36.0,-30.0,43.0,1645104150.34375,P11,D03,0,0,1
1457,-36.0,-31.0,43.0,1645104150.375,P11,D03,0,0,1
1458,-36.0,-31.0,43.0,1645104150.40625,P11,D03,0,0,1
1459,-37.0,-31.0,43.0,1645104150.4375,P11,D03,0,0,1
1460,-36.0,-30.0,43.0,1645104150.46875,P11,D03,0,0,1
1461,-36.0,-30.0,43.0,1645104150.5,P11,D03,0,0,1
1462,-36.0,-30.0,43.0,1645104150.53125,P11,D03,0,0,1
1463,-36.0,-30.0,42.0,1645104150.5625,P11,D03,0,0,1
1464,-37.0,-30.0,43.0,1645104150.59375,P11,D03,0,0,1
1465,-36.0,-30.0,43.0,1645104150.625,P11,D03,0,0,1
1466,-36.0,-30.0,43.0,1645104150.65625,P11,D03,0,0,1
1467,-36.0,-30.0,43.0,1645104150.6875,P11,D03,0,0,1
1468,-36.0,-30.0,43.0,1645104150.71875,P11,D03,0,0,1
1469,-36.0,-30.0,43.0,1645104150.75,P11,D03,0,0,1
1470,-36.0,-30.0,43.0,1645104150.78125,P11,D03,0,0,1
1471,-36.0,-30.0,43.0,1645104150.8125,P11,D03,0,0,1
1472,-36.0,-30.0,43.0,1645104150.84375,P11,D03,0,0,1
1473,-36.0,-30.0,43.0,1645104150.875,P11,D03,0,0,1
1474,-36.0,-30.0,43.0,1645104150.90625,P11,D03,0,0,1
1475,-36.0,-30.0,43.0,1645104150.9375,P11,D03,0,0,1
1476,-37.0,-31.0,43.0,1645104150.96875,P11,D03,0,0,1
1477,-36.0,-30.0,43.0,1645104151.0,P11,D03,0,0,1
1478,-36.0,-30.0,43.0,1645104151.03125,P11,D03,0,0,1
1479,-37.0,-31.0,43.0,1645104151.0625,P11,D03,0,0,1
1480,-37.0,-31.0,43.0,1645104151.09375,P11,D03,0,0,1
1481,-37.0,-31.0,43.0,1645104151.125,P11,D03,0,0,1
1482,-36.0,-30.0,43.0,1645104151.15625,P11,D03,0,0,1
1483,-36.0,-30.0,43.0,1645104151.1875,P11,D03,0,0,1
1484,-36.0,-30.0,43.0,1645104151.21875,P11,D03,0,0,1
1485,-36.0,-30.0,43.0,1645104151.25,P11,D03,0,0,1
1486,-36.0,-30.0,43.0,1645104151.28125,P11,D03,0,0,1
1487,-36.0,-30.0,43.0,1645104151.3125,P11,D03,0,0,1
1488,-36.0,-30.0,43.0,1645104151.34375,P11,D03,0,0,1
1489,-36.0,-30.0,43.0,1645104151.375,P11,D03,0,0,1
1490,-36.0,-30.0,43.0,1645104151.40625,P11,D03,0,0,1
1491,-36.0,-30.0,43.0,1645104151.4375,P11,D03,0,0,1
1492,-36.0,-30.0,43.0,1645104151.46875,P11,D03,0,0,1
1493,-36.0,-30.0,43.0,1645104151.5,P11,D03,0,0,1
1494,-36.0,-30.0,42.0,1645104151.53125,P11,D03,0,0,1
1495,-36.0,-30.0,43.0,1645104151.5625,P11,D03,0,0,1
1496,-36.0,-30.0,43.0,1645104151.59375,P11,D03,0,0,1
1497,-37.0,-30.0,43.0,1645104151.625,P11,D03,0,0,1
1498,-36.0,-30.0,43.0,1645104151.65625,P11,D03,0,0,1
1499,-37.0,-30.0,43.0,1645104151.6875,P11,D03,0,0,1
1500,-36.0,-30.0,43.0,1645104151.71875,P11,D03,0,0,1
1501,-36.0,-30.0,43.0,1645104151.75,P11,D03,0,0,1
1502,-36.0,-30.0,43.0,1645104151.78125,P11,D03,0,0,1
1503,-36.0,-30.0,43.0,1645104151.8125,P11,D03,0,0,1
1504,-36.0,-30.0,43.0,1645104151.84375,P11,D03,0,0,1
1505,-37.0,-30.0,43.0,1645104151.875,P11,D03,0,0,1
1506,-36.0,-30.0,43.0,1645104151.90625,P11,D03,0,0,1
1507,-36.0,-30.0,43.0,1645104151.9375,P11,D03,0,0,1
1508,-37.0,-30.0,43.0,1645104151.96875,P11,D03,0,0,1
1509,-36.0,-30.0,43.0,1645104152.0,P11,D03,0,0,1
1510,-36.0,-30.0,43.0,1645104152.03125,P11,D03,0,0,1
1511,-36.0,-30.0,43.0,1645104152.0625,P11,D03,0,0,1
1512,-36.0,-30.0,43.0,1645104152.09375,P11,D03,0,0,1
1513,-37.0,-30.0,43.0,1645104152.125,P11,D03,0,0,1
1514,-36.0,-30.0,43.0,1645104152.15625,P11,D03,0,0,1
1515,-37.0,-30.0,43.0,1645104152.1875,P11,D03,0,0,1
1516,-37.0,-30.0,43.0,1645104152.21875,P11,D03,0,0,1
1517,-37.0,-30.0,43.0,1645104152.25,P11,D03,0,0,1
1518,-36.0,-30.0,43.0,1645104152.28125,P11,D03,0,0,1
1519,-37.0,-30.0,43.0,1645104152.3125,P11,D03,0,0,1
1520,-37.0,-30.0,43.0,1645104152.34375,P11,D03,0,0,1
1521,-36.0,-30.0,43.0,1645104152.375,P11,D03,0,0,1
1522,-37.0,-30.0,43.0,1645104152.40625,P11,D03,0,0,1
1523,-37.0,-30.0,43.0,1645104152.4375,P11,D03,0,0,1
1524,-37.0,-30.0,43.0,1645104152.46875,P11,D03,0,0,1
1525,-36.0,-30.0,43.0,1645104152.5,P11,D03,0,0,1
1526,-37.0,-30.0,43.0,1645104152.53125,P11,D03,0,0,1
1527,-37.0,-30.0,43.0,1645104152.5625,P11,D03,0,0,1
1528,-37.0,-30.0,42.0,1645104152.59375,P11,D03,0,0,1
1529,-37.0,-30.0,43.0,1645104152.625,P11,D03,0,0,1
1530,-37.0,-30.0,43.0,1645104152.65625,P11,D03,0,0,1
1531,-37.0,-30.0,43.0,1645104152.6875,P11,D03,0,0,1
1532,-37.0,-30.0,43.0,1645104152.71875,P11,D03,0,0,1
1533,-37.0,-30.0,43.0,1645104152.75,P11,D03,0,0,1
1534,-37.0,-30.0,43.0,1645104152.78125,P11,D03,0,0,1
1535,-36.0,-30.0,43.0,1645104152.8125,P11,D03,0,0,1
1536,-36.0,-30.0,43.0,1645104152.84375,P11,D03,0,0,1
1537,-37.0,-30.0,43.0,1645104152.875,P11,D03,0,0,1
1538,-36.0,-30.0,43.0,1645104152.90625,P11,D03,0,0,1
1539,-37.0,-30.0,43.0,1645104152.9375,P11,D03,0,0,1
1540,-37.0,-30.0,43.0,1645104152.96875,P11,D03,0,0,1
1541,-37.0,-30.0,43.0,1645104153.0,P11,D03,0,0,1
1542,-37.0,-30.0,43.0,1645104153.03125,P11,D03,0,0,1
1543,-37.0,-30.0,43.0,1645104153.0625,P11,D03,0,0,1
1544,-37.0,-30.0,43.0,1645104153.09375,P11,D03,0,0,1
1545,-37.0,-30.0,43.0,1645104153.125,P11,D03,0,0,1
1546,-37.0,-30.0,43.0,1645104153.15625,P11,D03,0,0,1
1547,-37.0,-30.0,43.0,1645104153.1875,P11,D03,0,0,1
1548,-36.0,-30.0,43.0,1645104153.21875,P11,D03,0,0,1
1549,-37.0,-30.0,43.0,1645104153.25,P11,D03,0,0,1
1550,-36.0,-30.0,43.0,1645104153.28125,P11,D03,0,0,1
1551,-36.0,-30.0,43.0,1645104153.3125,P11,D03,0,0,1
1552,-37.0,-30.0,43.0,1645104153.34375,P11,D03,0,0,1
1553,-36.0,-30.0,43.0,1645104153.375,P11,D03,0,0,1
1554,-36.0,-30.0,43.0,1645104153.40625,P11,D03,0,0,1
1555,-36.0,-30.0,43.0,1645104153.4375,P11,D03,0,0,1
1556,-37.0,-30.0,43.0,1645104153.46875,P11,D03,0,0,1
1557,-36.0,-30.0,43.0,1645104153.5,P11,D03,0,0,1
1558,-37.0,-30.0,43.0,1645104153.53125,P11,D03,0,0,1
1559,-36.0,-30.0,43.0,1645104153.5625,P11,D03,0,0,1
1560,-37.0,-30.0,42.0,1645104153.59375,P11,D03,0,0,1
1561,-36.0,-31.0,43.0,1645104153.625,P11,D03,0,0,1
1562,-36.0,-30.0,43.0,1645104153.65625,P11,D03,0,0,1
1563,-37.0,-30.0,43.0,1645104153.6875,P11,D03,0,0,1
1564,-36.0,-30.0,43.0,1645104153.71875,P11,D03,0,0,1
1565,-37.0,-30.0,43.0,1645104153.75,P11,D03,0,0,1
1566,-37.0,-30.0,42.0,1645104153.78125,P11,D03,0,0,1
1567,-36.0,-30.0,43.0,1645104153.8125,P11,D03,0,0,1
1568,-36.0,-30.0,43.0,1645104153.84375,P11,D03,0,0,1
1569,-36.0,-30.0,43.0,1645104153.875,P11,D03,0,0,1
1570,-36.0,-30.0,43.0,1645104153.90625,P11,D03,0,0,1
1571,-37.0,-30.0,43.0,1645104153.9375,P11,D03,0,0,1
1572,-37.0,-30.0,43.0,1645104153.96875,P11,D03,0,0,1
1573,-36.0,-30.0,43.0,1645104154.0,P11,D03,0,0,1
1574,-37.0,-30.0,43.0,1645104154.03125,P11,D03,0,0,1
1575,-37.0,-30.0,43.0,1645104154.0625,P11,D03,0,0,1
1576,-37.0,-30.0,43.0,1645104154.09375,P11,D03,0,0,1
1577,-36.0,-30.0,43.0,1645104154.125,P11,D03,0,0,1
1578,-36.0,-30.0,43.0,1645104154.15625,P11,D03,0,0,1
1579,-36.0,-30.0,43.0,1645104154.1875,P11,D03,0,0,1
1580,-36.0,-30.0,43.0,1645104154.21875,P11,D03,0,0,1
1581,-36.0,-30.0,43.0,1645104154.25,P11,D03,0,0,1
1582,-37.0,-30.0,42.0,1645104154.28125,P11,D03,0,0,1
1583,-36.0,-30.0,43.0,1645104154.3125,P11,D03,0,0,1
1584,-36.0,-30.0,43.0,1645104154.34375,P11,D03,0,0,1
1585,-36.0,-30.0,43.0,1645104154.375,P11,D03,0,0,1
1586,-36.0,-30.0,43.0,1645104154.40625,P11,D03,0,0,1
1587,-36.0,-30.0,43.0,1645104154.4375,P11,D03,0,0,1
1588,-37.0,-30.0,43.0,1645104154.46875,P11,D03,0,0,1
1589,-36.0,-30.0,43.0,1645104154.5,P11,D03,0,0,1
1590,-37.0,-30.0,43.0,1645104154.53125,P11,D03,0,0,1
1591,-37.0,-30.0,43.0,1645104154.5625,P11,D03,0,0,1
1592,-36.0,-30.0,43.0,1645104154.59375,P11,D03,0,0,1
1593,-36.0,-30.0,43.0,1645104154.625,P11,D03,0,0,1
1594,-36.0,-30.0,43.0,1645104154.65625,P11,D03,0,0,1
1595,-37.0,-30.0,43.0,1645104154.6875,P11,D03,0,0,1
1596,-36.0,-30.0,43.0,1645104154.71875,P11,D03,0,0,1
1597,-36.0,-30.0,43.0,1645104154.75,P11,D03,0,0,1
1598,-37.0,-30.0,43.0,1645104154.78125,P11,D03,0,0,1
1599,-37.0,-30.0,43.0,1645104154.8125,P11,D03,0,0,1
1600,-36.0,-30.0,43.0,1645104154.84375,P11,D03,0,0,1
1601,-36.0,-30.0,43.0,1645104154.875,P11,D03,0,0,1
1602,-37.0,-30.0,43.0,1645104154.90625,P11,D03,0,0,1
1603,-37.0,-30.0,43.0,1645104154.9375,P11,D03,0,0,1
1604,-36.0,-30.0,43.0,1645104154.96875,P11,D03,0,0,1
1605,-36.0,-30.0,42.0,1645104155.0,P11,D03,0,0,1
1606,-37.0,-30.0,43.0,1645104155.03125,P11,D03,0,0,1
1607,-36.0,-30.0,43.0,1645104155.0625,P11,D03,0,0,1
1608,-37.0,-30.0,43.0,1645104155.09375,P11,D03,0,0,1
1609,-37.0,-30.0,43.0,1645104155.125,P11,D03,0,0,1
1610,-36.0,-30.0,43.0,1645104155.15625,P11,D03,0,0,1
1611,-37.0,-30.0,43.0,1645104155.1875,P11,D03,0,0,1
1612,-37.0,-30.0,43.0,1645104155.21875,P11,D03,0,0,1
1613,-37.0,-30.0,43.0,1645104155.25,P11,D03,0,0,1
1614,-37.0,-30.0,43.0,1645104155.28125,P11,D03,0,0,1
1615,-36.0,-30.0,43.0,1645104155.3125,P11,D03,0,0,1
1616,-36.0,-30.0,43.0,1645104155.34375,P11,D03,0,0,1
1617,-36.0,-30.0,43.0,1645104155.375,P11,D03,0,0,1
1618,-37.0,-30.0,43.0,1645104155.40625,P11,D03,0,0,1
1619,-37.0,-30.0,43.0,1645104155.4375,P11,D03,0,0,1
1620,-36.0,-30.0,43.0,1645104155.46875,P11,D03,0,0,1
1621,-36.0,-30.0,43.0,1645104155.5,P11,D03,0,0,1
1622,-37.0,-30.0,43.0,1645104155.53125,P11,D03,0,0,1
1623,-36.0,-30.0,43.0,1645104155.5625,P11,D03,0,0,1
1624,-36.0,-30.0,43.0,1645104155.59375,P11,D03,0,0,1
1625,-36.0,-30.0,43.0,1645104155.625,P11,D03,0,0,1
1626,-37.0,-30.0,43.0,1645104155.65625,P11,D03,0,0,1
1627,-37.0,-30.0,43.0,1645104155.6875,P11,D03,0,0,1
1628,-36.0,-30.0,42.0,1645104155.71875,P11,D03,0,0,1
1629,-37.0,-30.0,43.0,1645104155.75,P11,D03,0,0,1
1630,-37.0,-30.0,43.0,1645104155.78125,P11,D03,0,0,1
1631,-37.0,-30.0,43.0,1645104155.8125,P11,D03,0,0,1
1632,-36.0,-30.0,43.0,1645104155.84375,P11,D03,0,0,1
1633,-36.0,-30.0,43.0,1645104155.875,P11,D03,0,0,1
1634,-37.0,-30.0,43.0,1645104155.90625,P11,D03,0,0,1
1635,-36.0,-30.0,43.0,1645104155.9375,P11,D03,0,0,1
1636,-36.0,-30.0,43.0,1645104155.96875,P11,D03,0,0,1
1637,-37.0,-30.0,42.0,1645104156.0,P11,D03,0,0,1
1638,-37.0,-30.0,43.0,1645104156.03125,P11,D03,0,0,1
1639,-36.0,-30.0,43.0,1645104156.0625,P11,D03,0,0,1
1640,-36.0,-30.0,43.0,1645104156.09375,P11,D03,0,0,1
1641,-37.0,-30.0,43.0,1645104156.125,P11,D03,0,0,1
1642,-36.0,-30.0,43.0,1645104156.15625,P11,D03,0,0,1
1643,-36.0,-30.0,43.0,1645104156.1875,P11,D03,0,0,1
1644,-36.0,-30.0,43.0,1645104156.21875,P11,D03,0,0,1
1645,-37.0,-30.0,43.0,1645104156.25,P11,D03,0,0,1
1646,-36.0,-30.0,43.0,1645104156.28125,P11,D03,0,0,1
1647,-37.0,-30.0,43.0,1645104156.3125,P11,D03,0,0,1
1648,-37.0,-30.0,43.0,1645104156.34375,P11,D03,0,0,1
1649,-36.0,-30.0,43.0,1645104156.375,P11,D03,0,0,1
1650,-37.0,-30.0,43.0,1645104156.40625,P11,D03,0,0,1
1651,-36.0,-30.0,43.0,1645104156.4375,P11,D03,0,0,1
1652,-37.0,-30.0,43.0,1645104156.46875,P11,D03,0,0,1
1653,-37.0,-30.0,43.0,1645104156.5,P11,D03,0,0,1
1654,-36.0,-30.0,43.0,1645104156.53125,P11,D03,0,0,1
1655,-36.0,-30.0,43.0,1645104156.5625,P11,D03,0,0,1
1656,-36.0,-30.0,43.0,1645104156.59375,P11,D03,0,0,1
1657,-37.0,-30.0,43.0,1645104156.625,P11,D03,0,0,1
1658,-37.0,-30.0,43.0,1645104156.65625,P11,D03,0,0,1
1659,-36.0,-30.0,43.0,1645104156.6875,P11,D03,0,0,1
1660,-36.0,-30.0,42.0,1645104156.71875,P11,D03,0,0,1
1661,-37.0,-30.0,43.0,1645104156.75,P11,D03,0,0,1
1662,-36.0,-30.0,43.0,1645104156.78125,P11,D03,0,0,1
1663,-37.0,-30.0,43.0,1645104156.8125,P11,D03,0,0,1
1664,-37.0,-30.0,43.0,1645104156.84375,P11,D03,0,0,1
1665,-37.0,-30.0,43.0,1645104156.875,P11,D03,0,0,1
1666,-36.0,-30.0,43.0,1645104156.90625,P11,D03,0,0,1
1667,-36.0,-30.0,43.0,1645104156.9375,P11,D03,0,0,1
1668,-37.0,-30.0,43.0,1645104156.96875,P11,D03,0,0,1
1669,-36.0,-31.0,43.0,1645104157.0,P11,D03,0,0,1
1670,-36.0,-30.0,43.0,1645104157.03125,P11,D03,0,0,1
1671,-37.0,-30.0,43.0,1645104157.0625,P11,D03,0,0,1
1672,-37.0,-30.0,43.0,1645104157.09375,P11,D03,0,0,1
1673,-37.0,-30.0,43.0,1645104157.125,P11,D03,0,0,1
1674,-37.0,-30.0,43.0,1645104157.15625,P11,D03,0,0,1
1675,-36.0,-30.0,43.0,1645104157.1875,P11,D03,0,0,1
1676,-37.0,-30.0,43.0,1645104157.21875,P11,D03,0,0,1
1677,-36.0,-30.0,43.0,1645104157.25,P11,D03,0,0,1
1678,-37.0,-30.0,43.0,1645104157.28125,P11,D03,0,0,1
1679,-36.0,-30.0,43.0,1645104157.3125,P11,D03,0,0,1
1680,-36.0,-30.0,43.0,1645104157.34375,P11,D03,0,0,1
1681,-37.0,-30.0,43.0,1645104157.375,P11,D03,0,0,1
1682,-36.0,-30.0,43.0,1645104157.40625,P11,D03,0,0,1
1683,-36.0,-30.0,43.0,1645104157.4375,P11,D03,0,0,1
1684,-37.0,-30.0,43.0,1645104157.46875,P11,D03,0,0,1
1685,-37.0,-30.0,43.0,1645104157.5,P11,D03,0,0,1
1686,-36.0,-30.0,43.0,1645104157.53125,P11,D03,0,0,1
1687,-37.0,-30.0,43.0,1645104157.5625,P11,D03,0,0,1
1688,-37.0,-30.0,43.0,1645104157.59375,P11,D03,0,0,1
1689,-37.0,-30.0,43.0,1645104157.625,P11,D03,0,0,1
1690,-37.0,-30.0,43.0,1645104157.65625,P11,D03,0,0,1
1691,-37.0,-30.0,43.0,1645104157.6875,P11,D03,0,0,1
1692,-37.0,-30.0,43.0,1645104157.71875,P11,D03,0,0,1
1693,-37.0,-30.0,43.0,1645104157.75,P11,D03,0,0,1
1694,-37.0,-30.0,43.0,1645104157.78125,P11,D03,0,0,1
1695,-37.0,-30.0,43.0,1645104157.8125,P11,D03,0,0,1
1696,-36.0,-30.0,43.0,1645104157.84375,P11,D03,0,0,1
1697,-37.0,-30.0,43.0,1645104157.875,P11,D03,0,0,1
1698,-36.0,-30.0,43.0,1645104157.90625,P11,D03,0,0,1
1699,-36.0,-30.0,43.0,1645104157.9375,P11,D03,0,0,1
1700,-37.0,-30.0,43.0,1645104157.96875,P11,D03,0,0,1
1701,-37.0,-30.0,43.0,1645104158.0,P11,D03,0,0,1
1702,-37.0,-30.0,43.0,1645104158.03125,P11,D03,0,0,1
1703,-36.0,-30.0,43.0,1645104158.0625,P11,D03,0,0,1
1704,-36.0,-30.0,43.0,1645104158.09375,P11,D03,0,0,1
1705,-37.0,-30.0,43.0,1645104158.125,P11,D03,0,0,1
1706,-36.0,-30.0,43.0,1645104158.15625,P11,D03,0,0,1
1707,-37.0,-30.0,43.0,1645104158.1875,P11,D03,0,0,1
1708,-37.0,-30.0,43.0,1645104158.21875,P11,D03,0,0,1
1709,-36.0,-30.0,43.0,1645104158.25,P11,D03,0,0,1
1710,-36.0,-30.0,43.0,1645104158.28125,P11,D03,0,0,1
1711,-37.0,-30.0,43.0,1645104158.3125,P11,D03,0,0,1
1712,-37.0,-30.0,43.0,1645104158.34375,P11,D03,0,0,1
1713,-37.0,-30.0,43.0,1645104158.375,P11,D03,0,0,1
1714,-36.0,-30.0,43.0,1645104158.40625,P11,D03,0,0,1
1715,-37.0,-30.0,43.0,1645104158.4375,P11,D03,0,0,1
1716,-37.0,-30.0,43.0,1645104158.46875,P11,D03,0,0,1
1717,-37.0,-30.0,43.0,1645104158.5,P11,D03,0,0,1
1718,-37.0,-30.0,43.0,1645104158.53125,P11,D03,0,0,1
1719,-37.0,-30.0,43.0,1645104158.5625,P11,D03,0,0,1
1720,-37.0,-30.0,43.0,1645104158.59375,P11,D03,0,0,1
1721,-36.0,-30.0,43.0,1645104158.625,P11,D03,0,0,1
1722,-37.0,-30.0,43.0,1645104158.65625,P11,D03,0,0,1
1723,-37.0,-30.0,43.0,1645104158.6875,P11,D03,0,0,1
1724,-36.0,-30.0,43.0,1645104158.71875,P11,D03,0,0,1
1725,-37.0,-30.0,43.0,1645104158.75,P11,D03,0,0,1
1726,-37.0,-30.0,43.0,1645104158.78125,P11,D03,0,0,1
1727,-36.0,-30.0,43.0,1645104158.8125,P11,D03,0,0,1
1728,-37.0,-30.0,43.0,1645104158.84375,P11,D03,0,0,1
1729,-36.0,-30.0,43.0,1645104158.875,P11,D03,0,0,1
1730,-36.0,-30.0,43.0,1645104158.90625,P11,D03,0,0,1
1731,-37.0,-30.0,43.0,1645104158.9375,P11,D03,0,0,1
1732,-37.0,-30.0,43.0,1645104158.96875,P11,D03,0,0,1
1733,-37.0,-30.0,43.0,1645104159.0,P11,D03,0,0,1
1734,-36.0,-30.0,43.0,1645104159.03125,P11,D03,0,0,1
1735,-37.0,-30.0,43.0,1645104159.0625,P11,D03,0,0,1
1736,-36.0,-30.0,43.0,1645104159.09375,P11,D03,0,0,1
1737,-36.0,-30.0,43.0,1645104159.125,P11,D03,0,0,1
1738,-36.0,-30.0,43.0,1645104159.15625,P11,D03,0,0,1
1739,-37.0,-30.0,43.0,1645104159.1875,P11,D03,0,0,1
1740,-36.0,-30.0,43.0,1645104159.21875,P11,D03,0,0,1
1741,-36.0,-30.0,43.0,1645104159.25,P11,D03,0,0,1
1742,-37.0,-30.0,43.0,1645104159.28125,P11,D03,0,0,1
1743,-36.0,-30.0,43.0,1645104159.3125,P11,D03,0,0,1
1744,-36.0,-30.0,43.0,1645104159.34375,P11,D03,0,0,1
1745,-37.0,-30.0,43.0,1645104159.375,P11,D03,0,0,1
1746,-36.0,-30.0,43.0,1645104159.40625,P11,D03,0,0,1
1747,-36.0,-30.0,43.0,1645104159.4375,P11,D03,0,0,1
1748,-36.0,-30.0,43.0,1645104159.46875,P11,D03,0,0,1
1749,-37.0,-30.0,43.0,1645104159.5,P11,D03,0,0,1
1750,-36.0,-30.0,43.0,1645104159.53125,P11,D03,0,0,1
1751,-36.0,-30.0,43.0,1645104159.5625,P11,D03,0,0,1
1752,-37.0,-30.0,42.0,1645104159.59375,P11,D03,0,0,1
1753,-36.0,-30.0,43.0,1645104159.625,P11,D03,0,0,1
1754,-36.0,-30.0,43.0,1645104159.65625,P11,D03,0,0,1
1755,-37.0,-31.0,43.0,1645104159.6875,P11,D03,0,0,1
1756,-36.0,-30.0,42.0,1645104159.71875,P11,D03,0,0,1
1757,-36.0,-30.0,43.0,1645104159.75,P11,D03,0,0,1
1758,-37.0,-30.0,43.0,1645104159.78125,P11,D03,0,0,1
1759,-37.0,-30.0,43.0,1645104159.8125,P11,D03,0,0,1
1760,-36.0,-30.0,43.0,1645104159.84375,P11,D03,0,0,1
1761,-36.0,-30.0,43.0,1645104159.875,P11,D03,0,0,1
1762,-36.0,-30.0,43.0,1645104159.90625,P11,D03,0,0,1
1763,-37.0,-30.0,43.0,1645104159.9375,P11,D03,0,0,1
1764,-36.0,-30.0,43.0,1645104159.96875,P11,D03,0,0,1
1765,-36.0,-30.0,43.0,1645104160.0,P11,D03,0,0,1
1766,-37.0,-30.0,43.0,1645104160.03125,P11,D03,0,0,1
1767,-37.0,-30.0,43.0,1645104160.0625,P11,D03,0,0,1
1768,-37.0,-30.0,43.0,1645104160.09375,P11,D03,0,0,1
1769,-37.0,-30.0,43.0,1645104160.125,P11,D03,0,0,1
1770,-37.0,-30.0,43.0,1645104160.15625,P11,D03,0,0,1
1771,-36.0,-30.0,43.0,1645104160.1875,P11,D03,0,0,1
1772,-37.0,-30.0,43.0,1645104160.21875,P11,D03,0,0,1
1773,-37.0,-30.0,43.0,1645104160.25,P11,D03,0,0,1
1774,-36.0,-30.0,43.0,1645104160.28125,P11,D03,0,0,1
1775,-37.0,-30.0,43.0,1645104160.3125,P11,D03,0,0,1
1776,-36.0,-30.0,43.0,1645104160.34375,P11,D03,0,0,1
1777,-37.0,-30.0,43.0,1645104160.375,P11,D03,0,0,1
1778,-37.0,-30.0,43.0,1645104160.40625,P11,D03,0,0,1
1779,-37.0,-30.0,43.0,1645104160.4375,P11,D03,0,0,1
1780,-37.0,-30.0,43.0,1645104160.46875,P11,D03,0,0,1
1781,-37.0,-30.0,43.0,1645104160.5,P11,D03,0,0,1
1782,-36.0,-30.0,43.0,1645104160.53125,P11,D03,0,0,1
1783,-37.0,-30.0,43.0,1645104160.5625,P11,D03,0,0,1
1784,-37.0,-30.0,43.0,1645104160.59375,P11,D03,0,0,1
1785,-37.0,-30.0,43.0,1645104160.625,P11,D03,0,0,1
1786,-36.0,-30.0,43.0,1645104160.65625,P11,D03,0,0,1
1787,-36.0,-30.0,43.0,1645104160.6875,P11,D03,0,0,1
1788,-37.0,-30.0,43.0,1645104160.71875,P11,D03,0,0,1
1789,-36.0,-30.0,43.0,1645104160.75,P11,D03,0,0,1
1790,-37.0,-30.0,43.0,1645104160.78125,P11,D03,0,0,1
1791,-37.0,-30.0,43.0,1645104160.8125,P11,D03,0,0,1
1792,-37.0,-30.0,43.0,1645104160.84375,P11,D03,0,0,1
1793,-37.0,-30.0,43.0,1645104160.875,P11,D03,0,0,1
1794,-36.0,-30.0,43.0,1645104160.90625,P11,D03,0,0,1
1795,-37.0,-30.0,43.0,1645104160.9375,P11,D03,0,0,1
1796,-37.0,-30.0,43.0,1645104160.96875,P11,D03,0,0,1
1797,-36.0,-30.0,43.0,1645104161.0,P11,D03,0,0,1
1798,-36.0,-30.0,43.0,1645104161.03125,P11,D03,0,0,1
1799,-37.0,-30.0,43.0,1645104161.0625,P11,D03,0,0,1
1800,-36.0,-30.0,43.0,1645104161.09375,P11,D03,0,0,1
1801,-36.0,-30.0,43.0,1645104161.125,P11,D03,0,0,1
1802,-37.0,-30.0,43.0,1645104161.15625,P11,D03,0,0,1
1803,-36.0,-30.0,43.0,1645104161.1875,P11,D03,0,0,1
1804,-37.0,-30.0,43.0,1645104161.21875,P11,D03,0,0,1
1805,-37.0,-30.0,43.0,1645104161.25,P11,D03,0,0,1
1806,-36.0,-30.0,43.0,1645104161.28125,P11,D03,0,0,1
1807,-37.0,-30.0,43.0,1645104161.3125,P11,D03,0,0,1
1808,-37.0,-30.0,43.0,1645104161.34375,P11,D03,0,0,1
1809,-37.0,-30.0,43.0,1645104161.375,P11,D03,0,0,1
1810,-37.0,-30.0,43.0,1645104161.40625,P11,D03,0,0,1
1811,-36.0,-30.0,43.0,1645104161.4375,P11,D03,0,0,1
1812,-37.0,-30.0,43.0,1645104161.46875,P11,D03,0,0,1
1813,-37.0,-30.0,43.0,1645104161.5,P11,D03,0,0,1
1814,-36.0,-30.0,43.0,1645104161.53125,P11,D03,0,0,1
1815,-36.0,-30.0,43.0,1645104161.5625,P11,D03,0,0,1
1816,-37.0,-30.0,43.0,1645104161.59375,P11,D03,0,0,1
1817,-36.0,-30.0,43.0,1645104161.625,P11,D03,0,0,1
1818,-36.0,-30.0,43.0,1645104161.65625,P11,D03,0,0,1
1819,-37.0,-30.0,43.0,1645104161.6875,P11,D03,0,0,1
1820,-37.0,-30.0,43.0,1645104161.71875,P11,D03,0,0,1
1821,-37.0,-30.0,43.0,1645104161.75,P11,D03,0,0,1
1822,-37.0,-30.0,43.0,1645104161.78125,P11,D03,0,0,1
1823,-36.0,-30.0,43.0,1645104161.8125,P11,D03,0,0,1
1824,-36.0,-30.0,43.0,1645104161.84375,P11,D03,0,0,1
1825,-37.0,-30.0,42.0,1645104161.875,P11,D03,0,0,1
1826,-37.0,-30.0,43.0,1645104161.90625,P11,D03,0,0,1
1827,-37.0,-30.0,43.0,1645104161.9375,P11,D03,0,0,1
1828,-37.0,-30.0,43.0,1645104161.96875,P11,D03,0,0,1
1829,-36.0,-30.0,43.0,1645104162.0,P11,D03,0,0,1
1830,-36.0,-30.0,43.0,1645104162.03125,P11,D03,0,0,1
1831,-37.0,-30.0,43.0,1645104162.0625,P11,D03,0,0,1
1832,-37.0,-30.0,43.0,1645104162.09375,P11,D03,0,0,1
1833,-37.0,-30.0,43.0,1645104162.125,P11,D03,0,0,1
1834,-36.0,-30.0,43.0,1645104162.15625,P11,D03,0,0,1
1835,-37.0,-30.0,43.0,1645104162.1875,P11,D03,0,0,1
1836,-36.0,-30.0,43.0,1645104162.21875,P11,D03,0,0,1
1837,-36.0,-30.0,43.0,1645104162.25,P11,D03,0,0,1
1838,-37.0,-30.0,43.0,1645104162.28125,P11,D03,0,0,1
1839,-37.0,-30.0,43.0,1645104162.3125,P11,D03,0,0,1
1840,-37.0,-30.0,43.0,1645104162.34375,P11,D03,0,0,1
1841,-36.0,-30.0,43.0,1645104162.375,P11,D03,0,0,1
1842,-36.0,-30.0,43.0,1645104162.40625,P11,D03,0,0,1
1843,-37.0,-30.0,43.0,1645104162.4375,P11,D03,0,0,1
1844,-36.0,-30.0,43.0,1645104162.46875,P11,D03,0,0,1
1845,-37.0,-30.0,43.0,1645104162.5,P11,D03,0,0,1
1846,-37.0,-30.0,43.0,1645104162.53125,P11,D03,0,0,1
1847,-36.0,-30.0,43.0,1645104162.5625,P11,D03,0,0,1
1848,-36.0,-30.0,43.0,1645104162.59375,P11,D03,0,0,1
1849,-37.0,-30.0,43.0,1645104162.625,P11,D03,0,0,1
1850,-36.0,-30.0,43.0,1645104162.65625,P11,D03,0,0,1
1851,-37.0,-30.0,42.0,1645104162.6875,P11,D03,0,0,1
1852,-37.0,-30.0,43.0,1645104162.71875,P11,D03,0,0,1
1853,-36.0,-30.0,43.0,1645104162.75,P11,D03,0,0,1
1854,-36.0,-30.0,43.0,1645104162.78125,P11,D03,0,0,1
1855,-36.0,-30.0,43.0,1645104162.8125,P11,D03,0,0,1
1856,-37.0,-30.0,43.0,1645104162.84375,P11,D03,0,0,1
1857,-36.0,-30.0,43.0,1645104162.875,P11,D03,0,0,1
1858,-36.0,-30.0,43.0,1645104162.90625,P11,D03,0,0,1
1859,-37.0,-30.0,43.0,1645104162.9375,P11,D03,0,0,1
1860,-36.0,-30.0,43.0,1645104162.96875,P11,D03,0,0,1
1861,-37.0,-30.0,43.0,1645104163.0,P11,D03,0,0,1
1862,-36.0,-30.0,43.0,1645104163.03125,P11,D03,0,0,1
1863,-37.0,-30.0,43.0,1645104163.0625,P11,D03,0,0,1
1864,-36.0,-30.0,43.0,1645104163.09375,P11,D03,0,0,1
1865,-37.0,-30.0,43.0,1645104163.125,P11,D03,0,0,1
1866,-36.0,-30.0,43.0,1645104163.15625,P11,D03,0,0,1
1867,-37.0,-30.0,43.0,1645104163.1875,P11,D03,0,0,1
1868,-36.0,-30.0,43.0,1645104163.21875,P11,D03,0,0,1
1869,-37.0,-30.0,43.0,1645104163.25,P11,D03,0,0,1
1870,-37.0,-30.0,43.0,1645104163.28125,P11,D03,0,0,1
1871,-36.0,-30.0,43.0,1645104163.3125,P11,D03,0,0,1
1872,-37.0,-30.0,43.0,1645104163.34375,P11,D03,0,0,1
1873,-37.0,-30.0,43.0,1645104163.375,P11,D03,0,0,1
1874,-36.0,-30.0,43.0,1645104163.40625,P11,D03,0,0,1
1875,-37.0,-30.0,43.0,1645104163.4375,P11,D03,0,0,1
1876,-37.0,-30.0,42.0,1645104163.46875,P11,D03,0,0,1
1877,-36.0,-30.0,43.0,1645104163.5,P11,D03,0,0,1
1878,-37.0,-30.0,43.0,1645104163.53125,P11,D03,0,0,1
1879,-37.0,-30.0,43.0,1645104163.5625,P11,D03,0,0,1
1880,-37.0,-30.0,43.0,1645104163.59375,P11,D03,0,0,1
1881,-36.0,-30.0,43.0,1645104163.625,P11,D03,0,0,1
1882,-37.0,-30.0,43.0,1645104163.65625,P11,D03,0,0,1
1883,-36.0,-30.0,43.0,1645104163.6875,P11,D03,0,0,1
1884,-37.0,-30.0,43.0,1645104163.71875,P11,D03,0,0,1
1885,-37.0,-30.0,43.0,1645104163.75,P11,D03,0,0,1
1886,-37.0,-30.0,43.0,1645104163.78125,P11,D03,0,0,1
1887,-36.0,-30.0,43.0,1645104163.8125,P11,D03,0,0,1
1888,-37.0,-30.0,43.0,1645104163.84375,P11,D03,0,0,1
1889,-37.0,-30.0,43.0,1645104163.875,P11,D03,0,0,1
1890,-37.0,-30.0,43.0,1645104163.90625,P11,D03,0,0,1
1891,-37.0,-30.0,43.0,1645104163.9375,P11,D03,0,0,1
1892,-37.0,-30.0,43.0,1645104163.96875,P11,D03,0,0,1
1893,-37.0,-30.0,43.0,1645104164.0,P11,D03,0,0,1
1894,-36.0,-30.0,43.0,1645104164.03125,P11,D03,0,0,1
1895,-37.0,-30.0,43.0,1645104164.0625,P11,D03,0,0,1
1896,-37.0,-30.0,43.0,1645104164.09375,P11,D03,0,0,1
1897,-37.0,-30.0,43.0,1645104164.125,P11,D03,0,0,1
1898,-37.0,-30.0,43.0,1645104164.15625,P11,D03,0,0,1
1899,-37.0,-30.0,43.0,1645104164.1875,P11,D03,0,0,1
1900,-37.0,-30.0,43.0,1645104164.21875,P11,D03,0,0,1
1901,-36.0,-30.0,43.0,1645104164.25,P11,D03,0,0,1
1902,-37.0,-30.0,43.0,1645104164.28125,P11,D03,0,0,1
1903,-37.0,-30.0,43.0,1645104164.3125,P11,D03,0,0,1
1904,-36.0,-30.0,43.0,1645104164.34375,P11,D03,0,0,1
1905,-36.0,-30.0,43.0,1645104164.375,P11,D03,0,0,1
1906,-37.0,-30.0,43.0,1645104164.40625,P11,D03,0,0,1
1907,-37.0,-30.0,43.0,1645104164.4375,P11,D03,0,0,1
1908,-36.0,-30.0,43.0,1645104164.46875,P11,D03,0,0,1
1909,-37.0,-30.0,43.0,1645104164.5,P11,D03,0,0,1
1910,-37.0,-30.0,43.0,1645104164.53125,P11,D03,0,0,1
1911,-36.0,-30.0,43.0,1645104164.5625,P11,D03,0,0,1
1912,-37.0,-30.0,43.0,1645104164.59375,P11,D03,0,0,1
1913,-36.0,-30.0,43.0,1645104164.625,P11,D03,0,0,1
1914,-37.0,-30.0,43.0,1645104164.65625,P11,D03,0,0,1
1915,-37.0,-30.0,43.0,1645104164.6875,P11,D03,0,0,1
1916,-37.0,-30.0,43.0,1645104164.71875,P11,D03,0,0,1
1917,-36.0,-30.0,43.0,1645104164.75,P11,D03,0,0,1
1918,-37.0,-30.0,43.0,1645104164.78125,P11,D03,0,0,1
1919,-37.0,-30.0,43.0,1645104164.8125,P11,D03,0,0,1
1920,-36.0,-30.0,43.0,1645104164.84375,P11,D03,0,0,1
1921,-36.0,-30.0,43.0,1645104164.875,P11,D03,0,0,1
1922,-37.0,-30.0,43.0,1645104164.90625,P11,D03,0,0,1
1923,-36.0,-30.0,43.0,1645104164.9375,P11,D03,0,0,1
1924,-36.0,-30.0,43.0,1645104164.96875,P11,D03,0,0,1
1925,-37.0,-30.0,43.0,1645104165.0,P11,D03,0,0,1
1926,-37.0,-30.0,43.0,1645104165.03125,P11,D03,0,0,1
1927,-37.0,-30.0,43.0,1645104165.0625,P11,D03,0,0,1
1928,-36.0,-30.0,43.0,1645104165.09375,P11,D03,0,0,1
1929,-36.0,-30.0,43.0,1645104165.125,P11,D03,0,0,1
1930,-36.0,-30.0,43.0,1645104165.15625,P11,D03,0,0,1
1931,-37.0,-30.0,43.0,1645104165.1875,P11,D03,0,0,1
1932,-37.0,-30.0,43.0,1645104165.21875,P11,D03,0,0,1
1933,-37.0,-30.0,43.0,1645104165.25,P11,D03,0,0,1
1934,-37.0,-30.0,43.0,1645104165.28125,P11,D03,0,0,1
1935,-37.0,-30.0,43.0,1645104165.3125,P11,D03,0,0,1
1936,-36.0,-30.0,43.0,1645104165.34375,P11,D03,0,0,1
1937,-37.0,-30.0,43.0,1645104165.375,P11,D03,0,0,1
1938,-36.0,-30.0,43.0,1645104165.40625,P11,D03,0,0,1
1939,-37.0,-30.0,43.0,1645104165.4375,P11,D03,0,0,1
1940,-37.0,-30.0,43.0,1645104165.46875,P11,D03,0,0,1
1941,-36.0,-30.0,43.0,1645104165.5,P11,D03,0,0,1
1942,-37.0,-30.0,42.0,1645104165.53125,P11,D03,0,0,1
1943,-37.0,-30.0,43.0,1645104165.5625,P11,D03,0,0,1
1944,-36.0,-30.0,43.0,1645104165.59375,P11,D03,0,0,1
1945,-36.0,-30.0,43.0,1645104165.625,P11,D03,0,0,1
1946,-37.0,-31.0,43.0,1645104165.65625,P11,D03,0,0,1
1947,-36.0,-30.0,43.0,1645104165.6875,P11,D03,0,0,1
1948,-36.0,-30.0,43.0,1645104165.71875,P11,D03,0,0,1
1949,-36.0,-30.0,43.0,1645104165.75,P11,D03,0,0,1
1950,-36.0,-30.0,43.0,1645104165.78125,P11,D03,0,0,1
1951,-36.0,-30.0,43.0,1645104165.8125,P11,D03,0,0,1
1952,-36.0,-30.0,43.0,1645104165.84375,P11,D03,0,0,1
1953,-37.0,-30.0,43.0,1645104165.875,P11,D03,0,0,1
1954,-36.0,-30.0,43.0,1645104165.90625,P11,D03,0,0,1
1955,-36.0,-30.0,43.0,1645104165.9375,P11,D03,0,0,1
1956,-37.0,-30.0,43.0,1645104165.96875,P11,D03,0,0,1
1957,-37.0,-30.0,43.0,1645104166.0,P11,D03,0,0,1
1958,-37.0,-30.0,43.0,1645104166.03125,P11,D03,0,0,1
1959,-37.0,-30.0,43.0,1645104166.0625,P11,D03,0,0,1
1960,-36.0,-30.0,43.0,1645104166.09375,P11,D03,0,0,1
1961,-37.0,-30.0,43.0,1645104166.125,P11,D03,0,0,1
1962,-36.0,-30.0,43.0,1645104166.15625,P11,D03,0,0,1
1963,-37.0,-30.0,43.0,1645104166.1875,P11,D03,0,0,1
1964,-37.0,-30.0,43.0,1645104166.21875,P11,D03,0,0,1
1965,-36.0,-30.0,43.0,1645104166.25,P11,D03,0,0,1
1966,-36.0,-30.0,43.0,1645104166.28125,P11,D03,0,0,1
1967,-36.0,-30.0,43.0,1645104166.3125,P11,D03,0,0,1
1968,-37.0,-30.0,43.0,1645104166.34375,P11,D03,0,0,1
1969,-36.0,-30.0,43.0,1645104166.375,P11,D03,0,0,1
1970,-36.0,-30.0,43.0,1645104166.40625,P11,D03,0,0,1
1971,-37.0,-31.0,43.0,1645104166.4375,P11,D03,0,0,1
1972,-36.0,-30.0,43.0,1645104166.46875,P11,D03,0,0,1
1973,-36.0,-30.0,43.0,1645104166.5,P11,D03,0,0,1
1974,-37.0,-30.0,43.0,1645104166.53125,P11,D03,0,0,1
1975,-37.0,-30.0,42.0,1645104166.5625,P11,D03,0,0,1
1976,-36.0,-30.0,43.0,1645104166.59375,P11,D03,0,0,1
1977,-36.0,-30.0,43.0,1645104166.625,P11,D03,0,0,1
1978,-37.0,-30.0,43.0,1645104166.65625,P11,D03,0,0,1
1979,-36.0,-30.0,43.0,1645104166.6875,P11,D03,0,0,1
1980,-36.0,-30.0,43.0,1645104166.71875,P11,D03,0,0,1
1981,-37.0,-30.0,43.0,1645104166.75,P11,D03,0,0,1
1982,-37.0,-30.0,43.0,1645104166.78125,P11,D03,0,0,1
1983,-36.0,-30.0,43.0,1645104166.8125,P11,D03,0,0,1
1984,-36.0,-30.0,43.0,1645104166.84375,P11,D03,0,0,1
1985,-36.0,-30.0,43.0,1645104166.875,P11,D03,0,0,1
1986,-37.0,-30.0,43.0,1645104166.90625,P11,D03,0,0,1
1987,-37.0,-30.0,43.0,1645104166.9375,P11,D03,0,0,1
1988,-37.0,-30.0,43.0,1645104166.96875,P11,D03,0,0,1
1989,-37.0,-30.0,43.0,1645104167.0,P11,D03,0,0,1
1990,-37.0,-30.0,43.0,1645104167.03125,P11,D03,0,0,1
1991,-36.0,-30.0,43.0,1645104167.0625,P11,D03,0,0,1
1992,-36.0,-30.0,43.0,1645104167.09375,P11,D03,0,0,1
1993,-36.0,-30.0,43.0,1645104167.125,P11,D03,0,0,1
1994,-37.0,-30.0,43.0,1645104167.15625,P11,D03,0,0,1
1995,-37.0,-30.0,43.0,1645104167.1875,P11,D03,0,0,1
1996,-37.0,-30.0,43.0,1645104167.21875,P11,D03,0,0,1
1997,-36.0,-30.0,42.0,1645104167.25,P11,D03,0,0,1
1998,-36.0,-30.0,43.0,1645104167.28125,P11,D03,0,0,1
1999,-36.0,-30.0,43.0,1645104167.3125,P11,D03,0,0,1
2000,-37.0,-30.0,43.0,1645104167.34375,P11,D03,0,0,1
2001,-36.0,-30.0,43.0,1645104167.375,P11,D03,0,0,1
2002,-37.0,-30.0,43.0,1645104167.40625,P11,D03,0,0,1
2003,-37.0,-30.0,43.0,1645104167.4375,P11,D03,0,0,1
2004,-36.0,-30.0,43.0,1645104167.46875,P11,D03,0,0,1
2005,-37.0,-30.0,43.0,1645104167.5,P11,D03,0,0,1
2006,-37.0,-30.0,42.0,1645104167.53125,P11,D03,0,0,1
2007,-36.0,-30.0,43.0,1645104167.5625,P11,D03,0,0,1
2008,-36.0,-30.0,43.0,1645104167.59375,P11,D03,0,0,1
2009,-36.0,-30.0,42.0,1645104167.625,P11,D03,0,0,1
2010,-36.0,-30.0,43.0,1645104167.65625,P11,D03,0,0,1
2011,-37.0,-30.0,43.0,1645104167.6875,P11,D03,0,0,1
2012,-37.0,-30.0,43.0,1645104167.71875,P11,D03,0,0,1
2013,-36.0,-30.0,43.0,1645104167.75,P11,D03,0,0,1
2014,-37.0,-30.0,43.0,1645104167.78125,P11,D03,0,0,1
2015,-36.0,-30.0,43.0,1645104167.8125,P11,D03,0,0,1
2016,-37.0,-30.0,43.0,1645104167.84375,P11,D03,0,0,1
2017,-36.0,-30.0,43.0,1645104167.875,P11,D03,0,0,1
2018,-37.0,-30.0,43.0,1645104167.90625,P11,D03,0,0,1
2019,-36.0,-30.0,43.0,1645104167.9375,P11,D03,0,0,1
2020,-37.0,-30.0,43.0,1645104167.96875,P11,D03,0,0,1
2021,-37.0,-30.0,43.0,1645104168.0,P11,D03,0,0,1
2022,-36.0,-30.0,43.0,1645104168.03125,P11,D03,0,0,1
2023,-37.0,-30.0,42.0,1645104168.0625,P11,D03,0,0,1
2024,-36.0,-30.0,43.0,1645104168.09375,P11,D03,0,0,1
2025,-37.0,-30.0,43.0,1645104168.125,P11,D03,0,0,1
2026,-37.0,-30.0,43.0,1645104168.15625,P11,D03,0,0,1
2027,-37.0,-30.0,43.0,1645104168.1875,P11,D03,0,0,1
2028,-37.0,-30.0,43.0,1645104168.21875,P11,D03,0,0,1
2029,-36.0,-30.0,43.0,1645104168.25,P11,D03,0,0,1
2030,-36.0,-30.0,43.0,1645104168.28125,P11,D03,0,0,1
2031,-36.0,-31.0,43.0,1645104168.3125,P11,D03,0,0,1
2032,-37.0,-30.0,43.0,1645104168.34375,P11,D03,0,0,1
2033,-37.0,-30.0,43.0,1645104168.375,P11,D03,0,0,1
2034,-36.0,-30.0,43.0,1645104168.40625,P11,D03,0,0,1
2035,-37.0,-30.0,43.0,1645104168.4375,P11,D03,0,0,1
2036,-37.0,-30.0,43.0,1645104168.46875,P11,D03,0,0,1
2037,-37.0,-30.0,43.0,1645104168.5,P11,D03,0,0,1
2038,-36.0,-30.0,43.0,1645104168.53125,P11,D03,0,0,1
2039,-37.0,-30.0,43.0,1645104168.5625,P11,D03,0,0,1
2040,-36.0,-30.0,42.0,1645104168.59375,P11,D03,0,0,1
2041,-37.0,-30.0,43.0,1645104168.625,P11,D03,0,0,1
2042,-37.0,-30.0,43.0,1645104168.65625,P11,D03,0,0,1
2043,-36.0,-30.0,43.0,1645104168.6875,P11,D03,0,0,1
2044,-37.0,-30.0,43.0,1645104168.71875,P11,D03,0,0,1
2045,-37.0,-31.0,43.0,1645104168.75,P11,D03,0,0,1
2046,-37.0,-30.0,43.0,1645104168.78125,P11,D03,0,0,1
2047,-36.0,-30.0,43.0,1645104168.8125,P11,D03,0,0,1
2048,-36.0,-30.0,43.0,1645104168.84375,P11,D03,0,0,1
2049,-37.0,-30.0,42.0,1645104168.875,P11,D03,0,0,1
2050,-36.0,-30.0,43.0,1645104168.90625,P11,D03,0,0,1
2051,-36.0,-30.0,43.0,1645104168.9375,P11,D03,0,0,1
2052,-37.0,-30.0,43.0,1645104168.96875,P11,D03,0,0,1
2053,-36.0,-30.0,43.0,1645104169.0,P11,D03,0,0,1
2054,-36.0,-30.0,43.0,1645104169.03125,P11,D03,0,0,1
2055,-37.0,-30.0,43.0,1645104169.0625,P11,D03,0,0,1
2056,-37.0,-30.0,42.0,1645104169.09375,P11,D03,0,0,1
2057,-36.0,-30.0,43.0,1645104169.125,P11,D03,0,0,1
2058,-37.0,-30.0,43.0,1645104169.15625,P11,D03,0,0,1
2059,-37.0,-30.0,43.0,1645104169.1875,P11,D03,0,0,1
2060,-36.0,-30.0,43.0,1645104169.21875,P11,D03,0,0,1
2061,-36.0,-30.0,43.0,1645104169.25,P11,D03,0,0,1
2062,-36.0,-30.0,43.0,1645104169.28125,P11,D03,0,0,1
2063,-37.0,-30.0,43.0,1645104169.3125,P11,D03,0,0,1
2064,-37.0,-30.0,43.0,1645104169.34375,P11,D03,0,0,1
2065,-36.0,-30.0,43.0,1645104169.375,P11,D03,0,0,1
2066,-37.0,-30.0,43.0,1645104169.40625,P11,D03,0,0,1
2067,-37.0,-30.0,43.0,1645104169.4375,P11,D03,0,0,1
2068,-36.0,-30.0,43.0,1645104169.46875,P11,D03,0,0,1
2069,-36.0,-30.0,43.0,1645104169.5,P11,D03,0,0,1
2070,-36.0,-30.0,43.0,1645104169.53125,P11,D03,0,0,1
2071,-37.0,-30.0,43.0,1645104169.5625,P11,D03,0,0,1
2072,-36.0,-30.0,43.0,1645104169.59375,P11,D03,0,0,1
2073,-37.0,-30.0,43.0,1645104169.625,P11,D03,0,0,1
2074,-37.0,-30.0,43.0,1645104169.65625,P11,D03,0,0,1
2075,-36.0,-30.0,43.0,1645104169.6875,P11,D03,0,0,1
2076,-36.0,-30.0,43.0,1645104169.71875,P11,D03,0,0,1
2077,-37.0,-30.0,43.0,1645104169.75,P11,D03,0,0,1
2078,-37.0,-30.0,43.0,1645104169.78125,P11,D03,0,0,1
2079,-37.0,-30.0,43.0,1645104169.8125,P11,D03,0,0,1
2080,-36.0,-30.0,43.0,1645104169.84375,P11,D03,0,0,1
2081,-37.0,-30.0,43.0,1645104169.875,P11,D03,0,0,1
2082,-37.0,-30.0,43.0,1645104169.90625,P11,D03,0,0,1
2083,-37.0,-30.0,43.0,1645104169.9375,P11,D03,0,0,1
2084,-36.0,-30.0,43.0,1645104169.96875,P11,D03,0,0,1
2085,-37.0,-30.0,43.0,1645104170.0,P11,D03,0,0,1
2086,-36.0,-30.0,43.0,1645104170.03125,P11,D03,0,0,1
2087,-37.0,-30.0,43.0,1645104170.0625,P11,D03,0,0,1
2088,-37.0,-30.0,43.0,1645104170.09375,P11,D03,0,0,1
2089,-37.0,-30.0,43.0,1645104170.125,P11,D03,0,0,1
2090,-36.0,-30.0,43.0,1645104170.15625,P11,D03,0,0,1
2091,-37.0,-30.0,43.0,1645104170.1875,P11,D03,0,0,1
2092,-37.0,-30.0,43.0,1645104170.21875,P11,D03,0,0,1
2093,-36.0,-30.0,43.0,1645104170.25,P11,D03,0,0,1
2094,-37.0,-30.0,43.0,1645104170.28125,P11,D03,0,0,1
2095,-36.0,-30.0,43.0,1645104170.3125,P11,D03,0,0,1
2096,-36.0,-30.0,43.0,1645104170.34375,P11,D03,0,0,1
2097,-36.0,-30.0,43.0,1645104170.375,P11,D03,0,0,1
2098,-37.0,-30.0,43.0,1645104170.40625,P11,D03,0,0,1
2099,-37.0,-30.0,43.0,1645104170.4375,P11,D03,0,0,1
2100,-36.0,-30.0,43.0,1645104170.46875,P11,D03,0,0,1
2101,-37.0,-30.0,43.0,1645104170.5,P11,D03,0,0,1
2102,-37.0,-30.0,43.0,1645104170.53125,P11,D03,0,0,1
2103,-36.0,-30.0,43.0,1645104170.5625,P11,D03,0,0,1
2104,-37.0,-30.0,43.0,1645104170.59375,P11,D03,0,0,1
2105,-36.0,-30.0,43.0,1645104170.625,P11,D03,0,0,1
2106,-37.0,-30.0,43.0,1645104170.65625,P11,D03,0,0,1
2107,-36.0,-30.0,43.0,1645104170.6875,P11,D03,0,0,1
2108,-37.0,-30.0,43.0,1645104170.71875,P11,D03,0,0,1
2109,-37.0,-30.0,42.0,1645104170.75,P11,D03,0,0,1
2110,-36.0,-30.0,43.0,1645104170.78125,P11,D03,0,0,1
2111,-37.0,-30.0,43.0,1645104170.8125,P11,D03,0,0,1
2112,-37.0,-30.0,43.0,1645104170.84375,P11,D03,0,0,1
2113,-37.0,-30.0,43.0,1645104170.875,P11,D03,0,0,1
2114,-36.0,-30.0,43.0,1645104170.90625,P11,D03,0,0,1
2115,-37.0,-30.0,43.0,1645104170.9375,P11,D03,0,0,1
2116,-36.0,-30.0,43.0,1645104170.96875,P11,D03,0,0,1
2117,-36.0,-30.0,43.0,1645104171.0,P11,D03,0,0,1
2118,-37.0,-30.0,43.0,1645104171.03125,P11,D03,0,0,1
2119,-36.0,-30.0,43.0,1645104171.0625,P11,D03,0,0,1
2120,-36.0,-30.0,43.0,1645104171.09375,P11,D03,0,0,1
2121,-37.0,-30.0,42.0,1645104171.125,P11,D03,0,0,1
2122,-36.0,-30.0,43.0,1645104171.15625,P11,D03,0,0,1
2123,-36.0,-30.0,43.0,1645104171.1875,P11,D03,0,0,1
2124,-37.0,-30.0,43.0,1645104171.21875,P11,D03,0,0,1
2125,-37.0,-30.0,43.0,1645104171.25,P11,D03,0,0,1
2126,-36.0,-30.0,43.0,1645104171.28125,P11,D03,0,0,1
2127,-36.0,-30.0,43.0,1645104171.3125,P11,D03,0,0,1
2128,-36.0,-30.0,43.0,1645104171.34375,P11,D03,0,0,1
2129,-37.0,-30.0,43.0,1645104171.375,P11,D03,0,0,1
2130,-36.0,-30.0,43.0,1645104171.40625,P11,D03,0,0,1
2131,-36.0,-30.0,43.0,1645104171.4375,P11,D03,0,0,1
2132,-36.0,-30.0,43.0,1645104171.46875,P11,D03,0,0,1
2133,-36.0,-30.0,43.0,1645104171.5,P11,D03,0,0,1
2134,-36.0,-30.0,43.0,1645104171.53125,P11,D03,0,0,1
2135,-37.0,-30.0,43.0,1645104171.5625,P11,D03,0,0,1
2136,-36.0,-30.0,43.0,1645104171.59375,P11,D03,0,0,1
2137,-37.0,-30.0,43.0,1645104171.625,P11,D03,0,0,1
2138,-37.0,-30.0,42.0,1645104171.65625,P11,D03,0,0,1
2139,-36.0,-30.0,43.0,1645104171.6875,P11,D03,0,0,1
2140,-37.0,-31.0,42.0,1645104171.71875,P11,D03,0,0,1
2141,-36.0,-30.0,43.0,1645104171.75,P11,D03,0,0,1
2142,-36.0,-30.0,43.0,1645104171.78125,P11,D03,0,0,1
2143,-37.0,-30.0,42.0,1645104171.8125,P11,D03,0,0,1
2144,-37.0,-31.0,43.0,1645104171.84375,P11,D03,0,0,1
2145,-36.0,-30.0,43.0,1645104171.875,P11,D03,0,0,1
2146,-36.0,-30.0,43.0,1645104171.90625,P11,D03,0,0,1
2147,-37.0,-30.0,43.0,1645104171.9375,P11,D03,0,0,1
2148,-36.0,-30.0,43.0,1645104171.96875,P11,D03,0,0,1
2149,-36.0,-30.0,43.0,1645104172.0,P11,D03,0,0,1
2150,-37.0,-30.0,43.0,1645104172.03125,P11,D03,0,0,1
2151,-37.0,-30.0,43.0,1645104172.0625,P11,D03,0,0,1
2152,-36.0,-30.0,43.0,1645104172.09375,P11,D03,0,0,1
2153,-37.0,-30.0,43.0,1645104172.125,P11,D03,0,0,1
2154,-36.0,-30.0,43.0,1645104172.15625,P11,D03,0,0,1
2155,-37.0,-30.0,43.0,1645104172.1875,P11,D03,0,0,1
2156,-36.0,-30.0,43.0,1645104172.21875,P11,D03,0,0,1
2157,-37.0,-30.0,43.0,1645104172.25,P11,D03,0,0,1
2158,-37.0,-30.0,43.0,1645104172.28125,P11,D03,0,0,1
2159,-37.0,-30.0,43.0,1645104172.3125,P11,D03,0,0,1
2160,-37.0,-30.0,43.0,1645104172.34375,P11,D03,0,0,1
2161,-37.0,-30.0,43.0,1645104172.375,P11,D03,0,0,1
2162,-36.0,-30.0,43.0,1645104172.40625,P11,D03,0,0,1
2163,-37.0,-30.0,43.0,1645104172.4375,P11,D03,0,0,1
2164,-37.0,-30.0,43.0,1645104172.46875,P11,D03,0,0,1
2165,-37.0,-30.0,43.0,1645104172.5,P11,D03,0,0,1
2166,-37.0,-30.0,43.0,1645104172.53125,P11,D03,0,0,1
2167,-36.0,-30.0,43.0,1645104172.5625,P11,D03,0,0,1
2168,-36.0,-30.0,43.0,1645104172.59375,P11,D03,0,0,1
2169,-37.0,-30.0,43.0,1645104172.625,P11,D03,0,0,1
2170,-37.0,-30.0,43.0,1645104172.65625,P11,D03,0,0,1
2171,-37.0,-30.0,43.0,1645104172.6875,P11,D03,0,0,1
2172,-36.0,-30.0,43.0,1645104172.71875,P11,D03,0,0,1
2173,-37.0,-30.0,43.0,1645104172.75,P11,D03,0,0,1
2174,-36.0,-30.0,43.0,1645104172.78125,P11,D03,0,0,1
2175,-37.0,-30.0,43.0,1645104172.8125,P11,D03,0,0,1
2176,-36.0,-30.0,43.0,1645104172.84375,P11,D03,0,0,1
2177,-36.0,-30.0,43.0,1645104172.875,P11,D03,0,0,1
2178,-37.0,-30.0,43.0,1645104172.90625,P11,D03,0,0,1
2179,-37.0,-30.0,43.0,1645104172.9375,P11,D03,0,0,1
2180,-36.0,-30.0,43.0,1645104172.96875,P11,D03,0,0,1
2181,-36.0,-30.0,43.0,1645104173.0,P11,D03,0,0,1
2182,-37.0,-30.0,43.0,1645104173.03125,P11,D03,0,0,1
2183,-37.0,-30.0,43.0,1645104173.0625,P11,D03,0,0,1
2184,-36.0,-30.0,43.0,1645104173.09375,P11,D03,0,0,1
2185,-37.0,-30.0,43.0,1645104173.125,P11,D03,0,0,1
2186,-37.0,-30.0,43.0,1645104173.15625,P11,D03,0,0,1
2187,-36.0,-30.0,43.0,1645104173.1875,P11,D03,0,0,1
2188,-36.0,-30.0,43.0,1645104173.21875,P11,D03,0,0,1
2189,-37.0,-30.0,42.0,1645104173.25,P11,D03,0,0,1
2190,-36.0,-30.0,43.0,1645104173.28125,P11,D03,0,0,1
2191,-36.0,-30.0,43.0,1645104173.3125,P11,D03,0,0,1
2192,-37.0,-30.0,43.0,1645104173.34375,P11,D03,0,0,1
2193,-37.0,-30.0,43.0,1645104173.375,P11,D03,0,0,1
2194,-36.0,-30.0,43.0,1645104173.40625,P11,D03,0,0,1
2195,-36.0,-30.0,43.0,1645104173.4375,P11,D03,0,0,1
2196,-37.0,-30.0,42.0,1645104173.46875,P11,D03,0,0,1
2197,-36.0,-30.0,43.0,1645104173.5,P11,D03,0,0,1
2198,-36.0,-30.0,43.0,1645104173.53125,P11,D03,0,0,1
2199,-37.0,-30.0,43.0,1645104173.5625,P11,D03,0,0,1
2200,-37.0,-30.0,43.0,1645104173.59375,P11,D03,0,0,1
2201,-36.0,-30.0,43.0,1645104173.625,P11,D03,0,0,1
2202,-36.0,-30.0,42.0,1645104173.65625,P11,D03,0,0,1
2203,-36.0,-30.0,43.0,1645104173.6875,P11,D03,0,0,1
2204,-36.0,-30.0,43.0,1645104173.71875,P11,D03,0,0,1
2205,-37.0,-30.0,43.0,1645104173.75,P11,D03,0,0,1
2206,-37.0,-30.0,43.0,1645104173.78125,P11,D03,0,0,1
2207,-37.0,-30.0,43.0,1645104173.8125,P11,D03,0,0,1
2208,-37.0,-30.0,43.0,1645104173.84375,P11,D03,0,0,1
2209,-36.0,-30.0,43.0,1645104173.875,P11,D03,0,0,1
2210,-36.0,-30.0,43.0,1645104173.90625,P11,D03,0,0,1
2211,-37.0,-31.0,42.0,1645104173.9375,P11,D03,0,0,1
2212,-36.0,-30.0,42.0,1645104173.96875,P11,D03,0,0,1
2213,-36.0,-30.0,43.0,1645104174.0,P11,D03,0,0,1
2214,-36.0,-30.0,43.0,1645104174.03125,P11,D03,0,0,1
2215,-37.0,-30.0,43.0,1645104174.0625,P11,D03,0,0,1
2216,-36.0,-30.0,43.0,1645104174.09375,P11,D03,0,0,1
2217,-36.0,-30.0,43.0,1645104174.125,P11,D03,0,0,1
2218,-37.0,-31.0,43.0,1645104174.15625,P11,D03,0,0,1
2219,-36.0,-30.0,43.0,1645104174.1875,P11,D03,0,0,1
2220,-37.0,-30.0,43.0,1645104174.21875,P11,D03,0,0,1
2221,-36.0,-30.0,43.0,1645104174.25,P11,D03,0,0,1
2222,-36.0,-30.0,43.0,1645104174.28125,P11,D03,0,0,1
2223,-36.0,-30.0,43.0,1645104174.3125,P11,D03,0,0,1
2224,-37.0,-30.0,43.0,1645104174.34375,P11,D03,0,0,1
2225,-37.0,-30.0,43.0,1645104174.375,P11,D03,0,0,1
2226,-36.0,-30.0,43.0,1645104174.40625,P11,D03,0,0,1
2227,-37.0,-30.0,43.0,1645104174.4375,P11,D03,0,0,1
2228,-37.0,-30.0,43.0,1645104174.46875,P11,D03,0,0,1
2229,-37.0,-30.0,43.0,1645104174.5,P11,D03,0,0,1
2230,-36.0,-30.0,43.0,1645104174.53125,P11,D03,0,0,1
2231,-37.0,-30.0,43.0,1645104174.5625,P11,D03,0,0,1
2232,-37.0,-30.0,43.0,1645104174.59375,P11,D03,0,0,1
2233,-36.0,-30.0,43.0,1645104174.625,P11,D03,0,0,1
2234,-37.0,-30.0,43.0,1645104174.65625,P11,D03,0,0,1
2235,-36.0,-30.0,43.0,1645104174.6875,P11,D03,0,0,1
2236,-36.0,-30.0,43.0,1645104174.71875,P11,D03,0,0,1
2237,-36.0,-30.0,43.0,1645104174.75,P11,D03,0,0,1
2238,-37.0,-30.0,43.0,1645104174.78125,P11,D03,0,0,1
2239,-37.0,-30.0,43.0,1645104174.8125,P11,D03,0,0,1
2240,-36.0,-30.0,43.0,1645104174.84375,P11,D03,0,0,1
2241,-37.0,-30.0,43.0,1645104174.875,P11,D03,0,0,1
2242,-37.0,-30.0,43.0,1645104174.90625,P11,D03,0,0,1
2243,-36.0,-30.0,43.0,1645104174.9375,P11,D03,0,0,1
2244,-36.0,-30.0,43.0,1645104174.96875,P11,D03,0,0,1
2245,-36.0,-30.0,43.0,1645104175.0,P11,D03,0,0,1
2246,-37.0,-30.0,43.0,1645104175.03125,P11,D03,0,0,1
2247,-37.0,-30.0,43.0,1645104175.0625,P11,D03,0,0,1
2248,-36.0,-30.0,43.0,1645104175.09375,P11,D03,0,0,1
2249,-36.0,-30.0,43.0,1645104175.125,P11,D03,0,0,1
2250,-36.0,-30.0,43.0,1645104175.15625,P11,D03,0,0,1
2251,-37.0,-30.0,43.0,1645104175.1875,P11,D03,0,0,1
2252,-37.0,-30.0,43.0,1645104175.21875,P11,D03,0,0,1
2253,-36.0,-30.0,43.0,1645104175.25,P11,D03,0,0,1
2254,-36.0,-30.0,43.0,1645104175.28125,P11,D03,0,0,1
2255,-37.0,-30.0,43.0,1645104175.3125,P11,D03,0,0,1
2256,-37.0,-30.0,43.0,1645104175.34375,P11,D03,0,0,1
2257,-36.0,-30.0,43.0,1645104175.375,P11,D03,0,0,1
2258,-37.0,-30.0,43.0,1645104175.40625,P11,D03,0,0,1
2259,-37.0,-30.0,43.0,1645104175.4375,P11,D03,0,0,1
2260,-36.0,-30.0,43.0,1645104175.46875,P11,D03,0,0,1
2261,-36.0,-30.0,43.0,1645104175.5,P11,D03,0,0,1
2262,-37.0,-30.0,43.0,1645104175.53125,P11,D03,0,0,1
2263,-37.0,-30.0,43.0,1645104175.5625,P11,D03,0,0,1
2264,-36.0,-30.0,43.0,1645104175.59375,P11,D03,0,0,1
2265,-37.0,-30.0,43.0,1645104175.625,P11,D03,0,0,1
2266,-37.0,-30.0,43.0,1645104175.65625,P11,D03,0,0,1
2267,-36.0,-30.0,43.0,1645104175.6875,P11,D03,0,0,1
2268,-37.0,-30.0,43.0,1645104175.71875,P11,D03,0,0,1
2269,-37.0,-30.0,43.0,1645104175.75,P11,D03,0,0,1
2270,-37.0,-30.0,43.0,1645104175.78125,P11,D03,0,0,1
2271,-36.0,-30.0,43.0,1645104175.8125,P11,D03,0,0,1
2272,-37.0,-30.0,43.0,1645104175.84375,P11,D03,0,0,1
2273,-37.0,-30.0,43.0,1645104175.875,P11,D03,0,0,1
2274,-37.0,-30.0,43.0,1645104175.90625,P11,D03,0,0,1
2275,-36.0,-30.0,43.0,1645104175.9375,P11,D03,0,0,1
2276,-37.0,-30.0,43.0,1645104175.96875,P11,D03,0,0,1
2277,-36.0,-30.0,42.0,1645104176.0,P11,D03,0,0,1
2278,-36.0,-30.0,43.0,1645104176.03125,P11,D03,0,0,1
2279,-36.0,-30.0,43.0,1645104176.0625,P11,D03,0,0,1
2280,-37.0,-30.0,42.0,1645104176.09375,P11,D03,0,0,1
2281,-36.0,-30.0,43.0,1645104176.125,P11,D03,0,0,1
2282,-36.0,-30.0,43.0,1645104176.15625,P11,D03,0,0,1
2283,-37.0,-30.0,43.0,1645104176.1875,P11,D03,0,0,1
2284,-37.0,-30.0,43.0,1645104176.21875,P11,D03,0,0,1
2285,-36.0,-30.0,43.0,1645104176.25,P11,D03,0,0,1
2286,-37.0,-30.0,43.0,1645104176.28125,P11,D03,0,0,1
2287,-37.0,-30.0,43.0,1645104176.3125,P11,D03,0,0,1
2288,-36.0,-30.0,43.0,1645104176.34375,P11,D03,0,0,1
2289,-36.0,-30.0,43.0,1645104176.375,P11,D03,0,0,1
2290,-36.0,-30.0,43.0,1645104176.40625,P11,D03,0,0,1
2291,-36.0,-30.0,43.0,1645104176.4375,P11,D03,0,0,1
2292,-36.0,-30.0,43.0,1645104176.46875,P11,D03,0,0,1
2293,-37.0,-30.0,42.0,1645104176.5,P11,D03,0,0,1
2294,-37.0,-30.0,43.0,1645104176.53125,P11,D03,0,0,1
2295,-36.0,-30.0,43.0,1645104176.5625,P11,D03,0,0,1
2296,-36.0,-30.0,43.0,1645104176.59375,P11,D03,0,0,1
2297,-36.0,-30.0,43.0,1645104176.625,P11,D03,0,0,1
2298,-36.0,-30.0,43.0,1645104176.65625,P11,D03,0,0,1
2299,-37.0,-30.0,43.0,1645104176.6875,P11,D03,0,0,1
2300,-36.0,-30.0,43.0,1645104176.71875,P11,D03,0,0,1
2301,-36.0,-30.0,43.0,1645104176.75,P11,D03,0,0,1
2302,-36.0,-30.0,43.0,1645104176.78125,P11,D03,0,0,1
2303,-37.0,-30.0,43.0,1645104176.8125,P11,D03,0,0,1
2304,-37.0,-30.0,43.0,1645104176.84375,P11,D03,0,0,1
2305,-37.0,-30.0,43.0,1645104176.875,P11,D03,0,0,1
2306,-37.0,-30.0,43.0,1645104176.90625,P11,D03,0,0,1
2307,-36.0,-30.0,43.0,1645104176.9375,P11,D03,0,0,1
2308,-36.0,-30.0,43.0,1645104176.96875,P11,D03,0,0,1
2309,-37.0,-31.0,43.0,1645104177.0,P11,D03,0,0,1
2310,-37.0,-30.0,43.0,1645104177.03125,P11,D03,0,0,1
2311,-36.0,-30.0,43.0,1645104177.0625,P11,D03,0,0,1
2312,-36.0,-30.0,43.0,1645104177.09375,P11,D03,0,0,1
2313,-37.0,-30.0,43.0,1645104177.125,P11,D03,0,0,1
2314,-36.0,-30.0,43.0,1645104177.15625,P11,D03,0,0,1
2315,-36.0,-30.0,43.0,1645104177.1875,P11,D03,0,0,1
2316,-37.0,-30.0,43.0,1645104177.21875,P11,D03,0,0,1
2317,-36.0,-30.0,43.0,1645104177.25,P11,D03,0,0,1
2318,-36.0,-30.0,43.0,1645104177.28125,P11,D03,0,0,1
2319,-37.0,-30.0,43.0,1645104177.3125,P11,D03,0,0,1
2320,-37.0,-30.0,43.0,1645104177.34375,P11,D03,0,0,1
2321,-37.0,-30.0,43.0,1645104177.375,P11,D03,0,0,1
2322,-36.0,-30.0,43.0,1645104177.40625,P11,D03,0,0,1
2323,-37.0,-30.0,43.0,1645104177.4375,P11,D03,0,0,1
2324,-37.0,-30.0,43.0,1645104177.46875,P11,D03,0,0,1
2325,-36.0,-30.0,43.0,1645104177.5,P11,D03,0,0,1
