,acc_x,acc_y,acc_z,timestamp,participant,document,val,arou,eng
0,-37.0,-31.0,42.0,1645104320.46875,P11,D04,1,1,1
1,-37.0,-31.0,42.0,1645104320.5,P11,D04,1,1,1
2,-37.0,-31.0,42.0,1645104320.53125,P11,D04,1,1,1
3,-37.0,-31.0,42.0,1645104320.5625,P11,D04,1,1,1
4,-37.0,-31.0,42.0,1645104320.59375,P11,D04,1,1,1
5,-37.0,-31.0,42.0,1645104320.625,P11,D04,1,1,1
6,-37.0,-31.0,42.0,1645104320.65625,P11,D04,1,1,1
7,-37.0,-31.0,42.0,1645104320.6875,P11,D04,1,1,1
8,-37.0,-31.0,42.0,1645104320.71875,P11,D04,1,1,1
9,-37.0,-31.0,42.0,1645104320.75,P11,D04,1,1,1
10,-37.0,-31.0,42.0,1645104320.78125,P11,D04,1,1,1
11,-37.0,-31.0,42.0,1645104320.8125,P11,D04,1,1,1
12,-36.0,-31.0,42.0,1645104320.84375,P11,D04,1,1,1
13,-37.0,-31.0,42.0,1645104320.875,P11,D04,1,1,1
14,-37.0,-31.0,42.0,1645104320.90625,P11,D04,1,1,1
15,-37.0,-31.0,42.0,1645104320.9375,P11,D04,1,1,1
16,-37.0,-31.0,42.0,1645104320.96875,P11,D04,1,1,1
17,-37.0,-31.0,42.0,1645104321.0,P11,D04,1,1,1
18,-37.0,-31.0,42.0,1645104321.03125,P11,D04,1,1,1
19,-37.0,-31.0,42.0,1645104321.0625,P11,D04,1,1,1
20,-37.0,-31.0,42.0,1645104321.09375,P11,D04,1,1,1
21,-37.0,-31.0,42.0,1645104321.125,P11,D04,1,1,1
22,-37.0,-31.0,42.0,1645104321.15625,P11,D04,1,1,1
23,-37.0,-31.0,42.0,1645104321.1875,P11,D04,1,1,1
24,-37.0,-31.0,42.0,1645104321.21875,P11,D04,1,1,1
25,-37.0,-31.0,42.0,1645104321.25,P11,D04,1,1,1
26,-37.0,-31.0,42.0,1645104321.28125,P11,D04,1,1,1
27,-37.0,-31.0,42.0,1645104321.3125,P11,D04,1,1,1
28,-37.0,-31.0,42.0,1645104321.34375,P11,D04,1,1,1
29,-37.0,-31.0,42.0,1645104321.375,P11,D04,1,1,1
30,-37.0,-31.0,42.0,1645104321.40625,P11,D04,1,1,1
31,-37.0,-31.0,42.0,1645104321.4375,P11,D04,1,1,1
32,-37.0,-31.0,42.0,1645104321.46875,P11,D04,1,1,1
33,-37.0,-31.0,42.0,1645104321.5,P11,D04,1,1,1
34,-37.0,-31.0,42.0,1645104321.53125,P11,D04,1,1,1
35,-37.0,-31.0,42.0,1645104321.5625,P11,D04,1,1,1
36,-37.0,-31.0,42.0,1645104321.59375,P11,D04,1,1,1
37,-36.0,-31.0,42.0,1645104321.625,P11,D04,1,1,1
38,-37.0,-31.0,42.0,1645104321.65625,P11,D04,1,1,1
39,-37.0,-31.0,42.0,1645104321.6875,P11,D04,1,1,1
40,-37.0,-31.0,42.0,1645104321.71875,P11,D04,1,1,1
41,-37.0,-31.0,42.0,1645104321.75,P11,D04,1,1,1
42,-37.0,-31.0,42.0,1645104321.78125,P11,D04,1,1,1
43,-37.0,-31.0,42.0,1645104321.8125,P11,D04,1,1,1
44,-37.0,-31.0,42.0,1645104321.84375,P11,D04,1,1,1
45,-37.0,-31.0,42.0,1645104321.875,P11,D04,1,1,1
46,-37.0,-31.0,42.0,1645104321.90625,P11,D04,1,1,1
47,-37.0,-31.0,42.0,1645104321.9375,P11,D04,1,1,1
48,-37.0,-31.0,42.0,1645104321.96875,P11,D04,1,1,1
49,-37.0,-31.0,42.0,1645104322.0,P11,D04,1,1,1
50,-37.0,-31.0,42.0,1645104322.03125,P11,D04,1,1,1
51,-37.0,-31.0,42.0,1645104322.0625,P11,D04,1,1,1
52,-37.0,-31.0,42.0,1645104322.09375,P11,D04,1,1,1
53,-37.0,-31.0,42.0,1645104322.125,P11,D04,1,1,1
54,-37.0,-31.0,42.0,1645104322.15625,P11,D04,1,1,1
55,-37.0,-31.0,42.0,1645104322.1875,P11,D04,1,1,1
56,-37.0,-31.0,42.0,1645104322.21875,P11,D04,1,1,1
57,-37.0,-31.0,42.0,1645104322.25,P11,D04,1,1,1
58,-37.0,-31.0,42.0,1645104322.28125,P11,D04,1,1,1
59,-37.0,-31.0,42.0,1645104322.3125,P11,D04,1,1,1
60,-37.0,-31.0,42.0,1645104322.34375,P11,D04,1,1,1
61,-37.0,-31.0,42.0,1645104322.375,P11,D04,1,1,1
62,-37.0,-31.0,42.0,1645104322.40625,P11,D04,1,1,1
63,-37.0,-31.0,42.0,1645104322.4375,P11,D04,1,1,1
64,-37.0,-31.0,42.0,1645104322.46875,P11,D04,1,1,1
65,-37.0,-31.0,42.0,1645104322.5,P11,D04,1,1,1
66,-37.0,-32.0,42.0,1645104322.53125,P11,D04,1,1,1
67,-36.0,-31.0,42.0,1645104322.5625,P11,D04,1,1,1
68,-37.0,-31.0,42.0,1645104322.59375,P11,D04,1,1,1
69,-37.0,-31.0,42.0,1645104322.625,P11,D04,1,1,1
70,-37.0,-31.0,42.0,1645104322.65625,P11,D04,1,1,1
71,-37.0,-31.0,42.0,1645104322.6875,P11,D04,1,1,1
72,-37.0,-31.0,42.0,1645104322.71875,P11,D04,1,1,1
73,-37.0,-31.0,42.0,1645104322.75,P11,D04,1,1,1
74,-37.0,-32.0,42.0,1645104322.78125,P11,D04,1,1,1
75,-37.0,-31.0,42.0,1645104322.8125,P11,D04,1,1,1
76,-37.0,-31.0,42.0,1645104322.84375,P11,D04,1,1,1
77,-37.0,-31.0,42.0,1645104322.875,P11,D04,1,1,1
78,-37.0,-31.0,42.0,1645104322.90625,P11,D04,1,1,1
79,-37.0,-31.0,42.0,1645104322.9375,P11,D04,1,1,1
80,-37.0,-31.0,42.0,1645104322.96875,P11,D04,1,1,1
81,-37.0,-31.0,42.0,1645104323.0,P11,D04,1,1,1
82,-37.0,-31.0,42.0,1645104323.03125,P11,D04,1,1,1
83,-37.0,-31.0,42.0,1645104323.0625,P11,D04,1,1,1
84,-37.0,-31.0,42.0,1645104323.09375,P11,D04,1,1,1
85,-37.0,-31.0,42.0,1645104323.125,P11,D04,1,1,1
86,-37.0,-31.0,42.0,1645104323.15625,P11,D04,1,1,1
87,-37.0,-31.0,42.0,1645104323.1875,P11,D04,1,1,1
88,-36.0,-31.0,42.0,1645104323.21875,P11,D04,1,1,1
89,-37.0,-31.0,42.0,1645104323.25,P11,D04,1,1,1
90,-37.0,-31.0,42.0,1645104323.28125,P11,D04,1,1,1
91,-36.0,-31.0,42.0,1645104323.3125,P11,D04,1,1,1
92,-37.0,-31.0,42.0,1645104323.34375,P11,D04,1,1,1
93,-37.0,-31.0,42.0,1645104323.375,P11,D04,1,1,1
94,-37.0,-31.0,42.0,1645104323.40625,P11,D04,1,1,1
95,-37.0,-31.0,42.0,1645104323.4375,P11,D04,1,1,1
96,-37.0,-31.0,42.0,1645104323.46875,P11,D04,1,1,1
97,-37.0,-31.0,42.0,1645104323.5,P11,D04,1,1,1
98,-37.0,-31.0,42.0,1645104323.53125,P11,D04,1,1,1
99,-37.0,-31.0,42.0,1645104323.5625,P11,D04,1,1,1
100,-37.0,-31.0,42.0,1645104323.59375,P11,D04,1,1,1
101,-37.0,-31.0,42.0,1645104323.625,P11,D04,1,1,1
102,-37.0,-31.0,42.0,1645104323.65625,P11,D04,1,1,1
103,-37.0,-31.0,42.0,1645104323.6875,P11,D04,1,1,1
104,-37.0,-31.0,42.0,1645104323.71875,P11,D04,1,1,1
105,-37.0,-31.0,42.0,1645104323.75,P11,D04,1,1,1
106,-37.0,-31.0,42.0,1645104323.78125,P11,D04,1,1,1
107,-37.0,-31.0,42.0,1645104323.8125,P11,D04,1,1,1
108,-37.0,-31.0,42.0,1645104323.84375,P11,D04,1,1,1
109,-37.0,-31.0,42.0,1645104323.875,P11,D04,1,1,1
110,-37.0,-31.0,42.0,1645104323.90625,P11,D04,1,1,1
111,-37.0,-31.0,42.0,1645104323.9375,P11,D04,1,1,1
112,-37.0,-31.0,42.0,1645104323.96875,P11,D04,1,1,1
113,-37.0,-31.0,42.0,1645104324.0,P11,D04,1,1,1
114,-37.0,-31.0,42.0,1645104324.03125,P11,D04,1,1,1
115,-37.0,-31.0,42.0,1645104324.0625,P11,D04,1,1,1
116,-37.0,-31.0,42.0,1645104324.09375,P11,D04,1,1,1
117,-37.0,-31.0,42.0,1645104324.125,P11,D04,1,1,1
118,-37.0,-31.0,42.0,1645104324.15625,P11,D04,1,1,1
119,-37.0,-31.0,42.0,1645104324.1875,P11,D04,1,1,1
120,-37.0,-31.0,42.0,1645104324.21875,P11,D04,1,1,1
121,-37.0,-31.0,42.0,1645104324.25,P11,D04,1,1,1
122,-37.0,-31.0,42.0,1645104324.28125,P11,D04,1,1,1
123,-37.0,-31.0,42.0,1645104324.3125,P11,D04,1,1,1
124,-37.0,-31.0,42.0,1645104324.34375,P11,D04,1,1,1
125,-37.0,-31.0,42.0,1645104324.375,P11,D04,1,1,1
126,-37.0,-31.0,42.0,1645104324.40625,P11,D04,1,1,1
127,-37.0,-31.0,42.0,1645104324.4375,P11,D04,1,1,1
128,-37.0,-31.0,42.0,1645104324.46875,P11,D04,1,1,1
129,-37.0,-31.0,42.0,1645104324.5,P11,D04,1,1,1
130,-37.0,-31.0,42.0,1645104324.53125,P11,D04,1,1,1
131,-37.0,-31.0,42.0,1645104324.5625,P11,D04,1,1,1
132,-37.0,-31.0,42.0,1645104324.59375,P11,D04,1,1,1
133,-37.0,-32.0,42.0,1645104324.625,P11,D04,1,1,1
134,-37.0,-31.0,42.0,1645104324.65625,P11,D04,1,1,1
135,-37.0,-31.0,42.0,1645104324.6875,P11,D04,1,1,1
136,-37.0,-31.0,42.0,1645104324.71875,P11,D04,1,1,1
137,-37.0,-31.0,42.0,1645104324.75,P11,D04,1,1,1
138,-37.0,-31.0,42.0,1645104324.78125,P11,D04,1,1,1
139,-37.0,-31.0,42.0,1645104324.8125,P11,D04,1,1,1
140,-37.0,-31.0,42.0,1645104324.84375,P11,D04,1,1,1
141,-37.0,-31.0,42.0,1645104324.875,P11,D04,1,1,1
142,-37.0,-31.0,42.0,1645104324.90625,P11,D04,1,1,1
143,-37.0,-31.0,42.0,1645104324.9375,P11,D04,1,1,1
144,-37.0,-31.0,42.0,1645104324.96875,P11,D04,1,1,1
145,-37.0,-31.0,42.0,1645104325.0,P11,D04,1,1,1
146,-37.0,-31.0,42.0,1645104325.03125,P11,D04,1,1,1
147,-37.0,-31.0,42.0,1645104325.0625,P11,D04,1,1,1
148,-37.0,-31.0,42.0,1645104325.09375,P11,D04,1,1,1
149,-37.0,-31.0,42.0,1645104325.125,P11,D04,1,1,1
150,-37.0,-31.0,42.0,1645104325.15625,P11,D04,1,1,1
151,-37.0,-31.0,42.0,1645104325.1875,P11,D04,1,1,1
152,-37.0,-31.0,42.0,1645104325.21875,P11,D04,1,1,1
153,-37.0,-31.0,42.0,1645104325.25,P11,D04,1,1,1
154,-37.0,-31.0,42.0,1645104325.28125,P11,D04,1,1,1
155,-37.0,-32.0,42.0,1645104325.3125,P11,D04,1,1,1
156,-37.0,-31.0,42.0,1645104325.34375,P11,D04,1,1,1
157,-37.0,-31.0,42.0,1645104325.375,P11,D04,1,1,1
158,-37.0,-32.0,41.0,1645104325.40625,P11,D04,1,1,1
159,-37.0,-31.0,42.0,1645104325.4375,P11,D04,1,1,1
160,-36.0,-31.0,42.0,1645104325.46875,P11,D04,1,1,1
161,-37.0,-31.0,42.0,1645104325.5,P11,D04,1,1,1
162,-37.0,-32.0,42.0,1645104325.53125,P11,D04,1,1,1
163,-37.0,-31.0,42.0,1645104325.5625,P11,D04,1,1,1
164,-36.0,-31.0,42.0,1645104325.59375,P11,D04,1,1,1
165,-37.0,-31.0,42.0,1645104325.625,P11,D04,1,1,1
166,-37.0,-32.0,42.0,1645104325.65625,P11,D04,1,1,1
167,-37.0,-31.0,42.0,1645104325.6875,P11,D04,1,1,1
168,-37.0,-31.0,42.0,1645104325.71875,P11,D04,1,1,1
169,-37.0,-31.0,42.0,1645104325.75,P11,D04,1,1,1
170,-37.0,-31.0,42.0,1645104325.78125,P11,D04,1,1,1
171,-37.0,-31.0,42.0,1645104325.8125,P11,D04,1,1,1
172,-37.0,-31.0,42.0,1645104325.84375,P11,D04,1,1,1
173,-37.0,-31.0,42.0,1645104325.875,P11,D04,1,1,1
174,-37.0,-32.0,41.0,1645104325.90625,P11,D04,1,1,1
175,-37.0,-31.0,42.0,1645104325.9375,P11,D04,1,1,1
176,-36.0,-31.0,42.0,1645104325.96875,P11,D04,1,1,1
177,-37.0,-31.0,42.0,1645104326.0,P11,D04,1,1,1
178,-37.0,-32.0,42.0,1645104326.03125,P11,D04,1,1,1
179,-37.0,-31.0,42.0,1645104326.0625,P11,D04,1,1,1
180,-37.0,-31.0,42.0,1645104326.09375,P11,D04,1,1,1
181,-36.0,-31.0,42.0,1645104326.125,P11,D04,1,1,1
182,-37.0,-31.0,42.0,1645104326.15625,P11,D04,1,1,1
183,-37.0,-32.0,42.0,1645104326.1875,P11,D04,1,1,1
184,-37.0,-32.0,41.0,1645104326.21875,P11,D04,1,1,1
185,-37.0,-32.0,42.0,1645104326.25,P11,D04,1,1,1
186,-37.0,-31.0,42.0,1645104326.28125,P11,D04,1,1,1
187,-37.0,-31.0,42.0,1645104326.3125,P11,D04,1,1,1
188,-37.0,-31.0,42.0,1645104326.34375,P11,D04,1,1,1
189,-37.0,-32.0,42.0,1645104326.375,P11,D04,1,1,1
190,-37.0,-31.0,42.0,1645104326.40625,P11,D04,1,1,1
191,-37.0,-32.0,42.0,1645104326.4375,P11,D04,1,1,1
192,-37.0,-31.0,42.0,1645104326.46875,P11,D04,1,1,1
193,-37.0,-31.0,42.0,1645104326.5,P11,D04,1,1,1
194,-37.0,-31.0,42.0,1645104326.53125,P11,D04,1,1,1
195,-37.0,-31.0,42.0,1645104326.5625,P11,D04,1,1,1
196,-37.0,-32.0,42.0,1645104326.59375,P11,D04,1,1,1
197,-37.0,-32.0,42.0,1645104326.625,P11,D04,1,1,1
198,-37.0,-31.0,42.0,1645104326.65625,P11,D04,1,1,1
199,-37.0,-32.0,42.0,1645104326.6875,P11,D04,1,1,1
200,-37.0,-31.0,42.0,1645104326.71875,P11,D04,1,1,1
201,-37.0,-31.0,42.0,1645104326.75,P11,D04,1,1,1
202,-37.0,-32.0,42.0,1645104326.78125,P11,D04,1,1,1
203,-37.0,-31.0,42.0,1645104326.8125,P11,D04,1,1,1
204,-37.0,-31.0,42.0,1645104326.84375,P11,D04,1,1,1
205,-37.0,-31.0,42.0,1645104326.875,P11,D04,1,1,1
206,-37.0,-31.0,42.0,1645104326.90625,P11,D04,1,1,1
207,-36.0,-31.0,42.0,1645104326.9375,P11,D04,1,1,1
208,-36.0,-31.0,42.0,1645104326.96875,P11,D04,1,1,1
209,-37.0,-31.0,42.0,1645104327.0,P11,D04,1,1,1
210,-37.0,-31.0,42.0,1645104327.03125,P11,D04,1,1,1
211,-37.0,-31.0,42.0,1645104327.0625,P11,D04,1,1,1
212,-37.0,-31.0,42.0,1645104327.09375,P11,D04,1,1,1
213,-37.0,-31.0,42.0,1645104327.125,P11,D04,1,1,1
214,-37.0,-31.0,42.0,1645104327.15625,P11,D04,1,1,1
215,-37.0,-31.0,42.0,1645104327.1875,P11,D04,1,1,1
216,-37.0,-31.0,42.0,1645104327.21875,P11,D04,1,1,1
217,-37.0,-31.0,42.0,1645104327.25,P11,D04,1,1,1
218,-37.0,-31.0,42.0,1645104327.28125,P11,D04,1,1,1
219,-37.0,-31.0,42.0,1645104327.3125,P11,D04,1,1,1
220,-37.0,-32.0,42.0,1645104327.34375,P11,D04,1,1,1
221,-36.0,-31.0,42.0,1645104327.375,P11,D04,1,1,1
222,-37.0,-31.0,42.0,1645104327.40625,P11,D04,1,1,1
223,-37.0,-31.0,42.0,1645104327.4375,P11,D04,1,1,1
224,-36.0,-31.0,42.0,1645104327.46875,P11,D04,1,1,1
225,-37.0,-31.0,42.0,1645104327.5,P11,D04,1,1,1
226,-37.0,-31.0,42.0,1645104327.53125,P11,D04,1,1,1
227,-37.0,-31.0,42.0,1645104327.5625,P11,D04,1,1,1
228,-37.0,-31.0,42.0,1645104327.59375,P11,D04,1,1,1
229,-37.0,-31.0,42.0,1645104327.625,P11,D04,1,1,1
230,-37.0,-31.0,42.0,1645104327.65625,P11,D04,1,1,1
231,-37.0,-31.0,42.0,1645104327.6875,P11,D04,1,1,1
232,-37.0,-31.0,42.0,1645104327.71875,P11,D04,1,1,1
233,-37.0,-31.0,42.0,1645104327.75,P11,D04,1,1,1
234,-37.0,-31.0,42.0,1645104327.78125,P11,D04,1,1,1
235,-37.0,-31.0,42.0,1645104327.8125,P11,D04,1,1,1
236,-37.0,-31.0,42.0,1645104327.84375,P11,D04,1,1,1
237,-37.0,-32.0,42.0,1645104327.875,P11,D04,1,1,1
238,-37.0,-31.0,42.0,1645104327.90625,P11,D04,1,1,1
239,-37.0,-31.0,42.0,1645104327.9375,P11,D04,1,1,1
240,-37.0,-31.0,42.0,1645104327.96875,P11,D04,1,1,1
241,-37.0,-31.0,42.0,1645104328.0,P11,D04,1,1,1
242,-37.0,-32.0,42.0,1645104328.03125,P11,D04,1,1,1
243,-37.0,-32.0,42.0,1645104328.0625,P11,D04,1,1,1
244,-37.0,-31.0,42.0,1645104328.09375,P11,D04,1,1,1
245,-36.0,-31.0,42.0,1645104328.125,P11,D04,1,1,1
246,-37.0,-31.0,42.0,1645104328.15625,P11,D04,1,1,1
247,-37.0,-31.0,42.0,1645104328.1875,P11,D04,1,1,1
248,-37.0,-32.0,42.0,1645104328.21875,P11,D04,1,1,1
249,-37.0,-32.0,42.0,1645104328.25,P11,D04,1,1,1
250,-37.0,-31.0,42.0,1645104328.28125,P11,D04,1,1,1
251,-37.0,-31.0,42.0,1645104328.3125,P11,D04,1,1,1
252,-37.0,-31.0,42.0,1645104328.34375,P11,D04,1,1,1
253,-37.0,-31.0,42.0,1645104328.375,P11,D04,1,1,1
254,-37.0,-31.0,42.0,1645104328.40625,P11,D04,1,1,1
255,-37.0,-31.0,42.0,1645104328.4375,P11,D04,1,1,1
256,-37.0,-31.0,42.0,1645104328.46875,P11,D04,1,1,1
257,-37.0,-32.0,42.0,1645104328.5,P11,D04,1,1,1
258,-37.0,-31.0,42.0,1645104328.53125,P11,D04,1,1,1
259,-37.0,-31.0,42.0,1645104328.5625,P11,D04,1,1,1
260,-37.0,-32.0,42.0,1645104328.59375,P11,D04,1,1,1
261,-37.0,-31.0,42.0,1645104328.625,P11,D04,1,1,1
262,-37.0,-31.0,42.0,1645104328.65625,P11,D04,1,1,1
263,-37.0,-31.0,42.0,1645104328.6875,P11,D04,1,1,1
264,-37.0,-32.0,41.0,1645104328.71875,P11,D04,1,1,1
265,-37.0,-31.0,41.0,1645104328.75,P11,D04,1,1,1
266,-37.0,-31.0,42.0,1645104328.78125,P11,D04,1,1,1
267,-37.0,-31.0,42.0,1645104328.8125,P11,D04,1,1,1
268,-37.0,-31.0,42.0,1645104328.84375,P11,D04,1,1,1
269,-37.0,-32.0,42.0,1645104328.875,P11,D04,1,1,1
270,-37.0,-32.0,42.0,1645104328.90625,P11,D04,1,1,1
271,-37.0,-32.0,42.0,1645104328.9375,P11,D04,1,1,1
272,-37.0,-32.0,42.0,1645104328.96875,P11,D04,1,1,1
273,-37.0,-31.0,42.0,1645104329.0,P11,D04,1,1,1
274,-37.0,-31.0,42.0,1645104329.03125,P11,D04,1,1,1
275,-37.0,-31.0,42.0,1645104329.0625,P11,D04,1,1,1
276,-37.0,-32.0,42.0,1645104329.09375,P11,D04,1,1,1
277,-37.0,-31.0,42.0,1645104329.125,P11,D04,1,1,1
278,-37.0,-31.0,42.0,1645104329.15625,P11,D04,1,1,1
279,-37.0,-32.0,42.0,1645104329.1875,P11,D04,1,1,1
280,-37.0,-31.0,42.0,1645104329.21875,P11,D04,1,1,1
281,-37.0,-31.0,42.0,1645104329.25,P11,D04,1,1,1
282,-37.0,-31.0,41.0,1645104329.28125,P11,D04,1,1,1
283,-37.0,-31.0,42.0,1645104329.3125,P11,D04,1,1,1
284,-37.0,-31.0,42.0,1645104329.34375,P11,D04,1,1,1
285,-37.0,-31.0,42.0,1645104329.375,P11,D04,1,1,1
286,-37.0,-31.0,42.0,1645104329.40625,P11,D04,1,1,1
287,-37.0,-31.0,42.0,1645104329.4375,P11,D04,1,1,1
288,-37.0,-31.0,42.0,1645104329.46875,P11,D04,1,1,1
289,-37.0,-31.0,42.0,1645104329.5,P11,D04,1,1,1
290,-37.0,-31.0,42.0,1645104329.53125,P11,D04,1,1,1
291,-37.0,-31.0,42.0,1645104329.5625,P11,D04,1,1,1
292,-37.0,-31.0,42.0,1645104329.59375,P11,D04,1,1,1
293,-37.0,-31.0,42.0,1645104329.625,P11,D04,1,1,1
294,-37.0,-31.0,42.0,1645104329.65625,P11,D04,1,1,1
295,-37.0,-31.0,42.0,1645104329.6875,P11,D04,1,1,1
296,-37.0,-31.0,42.0,1645104329.71875,P11,D04,1,1,1
297,-37.0,-31.0,42.0,1645104329.75,P11,D04,1,1,1
298,-37.0,-31.0,42.0,1645104329.78125,P11,D04,1,1,1
299,-37.0,-31.0,42.0,1645104329.8125,P11,D04,1,1,1
300,-37.0,-31.0,42.0,1645104329.84375,P11,D04,1,1,1
301,-37.0,-31.0,42.0,1645104329.875,P11,D04,1,1,1
302,-37.0,-31.0,42.0,1645104329.90625,P11,D04,1,1,1
303,-37.0,-31.0,42.0,1645104329.9375,P11,D04,1,1,1
304,-36.0,-31.0,42.0,1645104329.96875,P11,D04,1,1,1
305,-37.0,-32.0,42.0,1645104330.0,P11,D04,1,1,1
306,-37.0,-31.0,42.0,1645104330.03125,P11,D04,1,1,1
307,-37.0,-31.0,42.0,1645104330.0625,P11,D04,1,1,1
308,-37.0,-32.0,42.0,1645104330.09375,P11,D04,1,1,1
309,-37.0,-31.0,42.0,1645104330.125,P11,D04,1,1,1
310,-37.0,-31.0,42.0,1645104330.15625,P11,D04,1,1,1
311,-37.0,-31.0,42.0,1645104330.1875,P11,D04,1,1,1
312,-37.0,-31.0,42.0,1645104330.21875,P11,D04,1,1,1
313,-37.0,-31.0,42.0,1645104330.25,P11,D04,1,1,1
314,-37.0,-31.0,42.0,1645104330.28125,P11,D04,1,1,1
315,-37.0,-31.0,42.0,1645104330.3125,P11,D04,1,1,1
316,-37.0,-31.0,42.0,1645104330.34375,P11,D04,1,1,1
317,-37.0,-31.0,42.0,1645104330.375,P11,D04,1,1,1
318,-37.0,-31.0,42.0,1645104330.40625,P11,D04,1,1,1
319,-37.0,-31.0,42.0,1645104330.4375,P11,D04,1,1,1
320,-37.0,-31.0,42.0,1645104330.46875,P11,D04,1,1,1
321,-37.0,-31.0,42.0,1645104330.5,P11,D04,1,1,1
322,-37.0,-31.0,42.0,1645104330.53125,P11,D04,1,1,1
323,-37.0,-31.0,42.0,1645104330.5625,P11,D04,1,1,1
324,-37.0,-31.0,42.0,1645104330.59375,P11,D04,1,1,1
325,-37.0,-31.0,42.0,1645104330.625,P11,D04,1,1,1
326,-36.0,-31.0,42.0,1645104330.65625,P11,D04,1,1,1
327,-37.0,-32.0,42.0,1645104330.6875,P11,D04,1,1,1
328,-37.0,-32.0,42.0,1645104330.71875,P11,D04,1,1,1
329,-37.0,-31.0,42.0,1645104330.75,P11,D04,1,1,1
330,-37.0,-31.0,42.0,1645104330.78125,P11,D04,1,1,1
331,-37.0,-32.0,42.0,1645104330.8125,P11,D04,1,1,1
332,-37.0,-31.0,42.0,1645104330.84375,P11,D04,1,1,1
333,-37.0,-31.0,42.0,1645104330.875,P11,D04,1,1,1
334,-37.0,-31.0,42.0,1645104330.90625,P11,D04,1,1,1
335,-37.0,-32.0,42.0,1645104330.9375,P11,D04,1,1,1
336,-37.0,-31.0,42.0,1645104330.96875,P11,D04,1,1,1
337,-37.0,-31.0,42.0,1645104331.0,P11,D04,1,1,1
338,-37.0,-32.0,42.0,1645104331.03125,P11,D04,1,1,1
339,-37.0,-31.0,42.0,1645104331.0625,P11,D04,1,1,1
340,-37.0,-31.0,42.0,1645104331.09375,P11,D04,1,1,1
341,-37.0,-31.0,42.0,1645104331.125,P11,D04,1,1,1
342,-37.0,-32.0,42.0,1645104331.15625,P11,D04,1,1,1
343,-37.0,-31.0,42.0,1645104331.1875,P11,D04,1,1,1
344,-37.0,-31.0,42.0,1645104331.21875,P11,D04,1,1,1
345,-37.0,-31.0,42.0,1645104331.25,P11,D04,1,1,1
346,-37.0,-32.0,41.0,1645104331.28125,P11,D04,1,1,1
347,-37.0,-31.0,42.0,1645104331.3125,P11,D04,1,1,1
348,-37.0,-31.0,41.0,1645104331.34375,P11,D04,1,1,1
349,-37.0,-31.0,42.0,1645104331.375,P11,D04,1,1,1
350,-37.0,-32.0,42.0,1645104331.40625,P11,D04,1,1,1
351,-37.0,-32.0,42.0,1645104331.4375,P11,D04,1,1,1
352,-37.0,-31.0,42.0,1645104331.46875,P11,D04,1,1,1
353,-37.0,-31.0,42.0,1645104331.5,P11,D04,1,1,1
354,-37.0,-32.0,42.0,1645104331.53125,P11,D04,1,1,1
355,-37.0,-32.0,42.0,1645104331.5625,P11,D04,1,1,1
356,-36.0,-31.0,42.0,1645104331.59375,P11,D04,1,1,1
357,-37.0,-31.0,42.0,1645104331.625,P11,D04,1,1,1
358,-37.0,-32.0,42.0,1645104331.65625,P11,D04,1,1,1
359,-37.0,-32.0,42.0,1645104331.6875,P11,D04,1,1,1
360,-37.0,-31.0,42.0,1645104331.71875,P11,D04,1,1,1
361,-37.0,-32.0,42.0,1645104331.75,P11,D04,1,1,1
362,-37.0,-32.0,42.0,1645104331.78125,P11,D04,1,1,1
363,-37.0,-31.0,42.0,1645104331.8125,P11,D04,1,1,1
364,-37.0,-31.0,42.0,1645104331.84375,P11,D04,1,1,1
365,-37.0,-32.0,42.0,1645104331.875,P11,D04,1,1,1
366,-37.0,-31.0,42.0,1645104331.90625,P11,D04,1,1,1
367,-37.0,-31.0,42.0,1645104331.9375,P11,D04,1,1,1
368,-37.0,-31.0,42.0,1645104331.96875,P11,D04,1,1,1
369,-37.0,-31.0,42.0,1645104332.0,P11,D04,1,1,1
370,-37.0,-32.0,42.0,1645104332.03125,P11,D04,1,1,1
371,-37.0,-31.0,42.0,1645104332.0625,P11,D04,1,1,1
372,-37.0,-31.0,42.0,1645104332.09375,P11,D04,1,1,1
373,-37.0,-31.0,42.0,1645104332.125,P11,D04,1,1,1
374,-37.0,-31.0,42.0,1645104332.15625,P11,D04,1,1,1
375,-37.0,-32.0,42.0,1645104332.1875,P11,D04,1,1,1
376,-37.0,-31.0,42.0,1645104332.21875,P11,D04,1,1,1
377,-37.0,-31.0,42.0,1645104332.25,P11,D04,1,1,1
378,-37.0,-32.0,42.0,1645104332.28125,P11,D04,1,1,1
379,-37.0,-31.0,42.0,1645104332.3125,P11,D04,1,1,1
380,-37.0,-31.0,42.0,1645104332.34375,P11,D04,1,1,1
381,-37.0,-31.0,42.0,1645104332.375,P11,D04,1,1,1
382,-37.0,-31.0,42.0,1645104332.40625,P11,D04,1,1,1
383,-37.0,-31.0,42.0,1645104332.4375,P11,D04,1,1,1
384,-37.0,-31.0,42.0,1645104332.46875,P11,D04,1,1,1
385,-37.0,-31.0,42.0,1645104332.5,P11,D04,1,1,1
386,-37.0,-31.0,42.0,1645104332.53125,P11,D04,1,1,1
387,-37.0,-31.0,42.0,1645104332.5625,P11,D04,1,1,1
388,-37.0,-31.0,42.0,1645104332.59375,P11,D04,1,1,1
389,-37.0,-31.0,42.0,1645104332.625,P11,D04,1,1,1
390,-37.0,-31.0,42.0,1645104332.65625,P11,D04,1,1,1
391,-37.0,-31.0,42.0,1645104332.6875,P11,D04,1,1,1
392,-37.0,-31.0,42.0,1645104332.71875,P11,D04,1,1,1
393,-37.0,-31.0,42.0,1645104332.75,P11,D04,1,1,1
394,-37.0,-31.0,42.0,1645104332.78125,P11,D04,1,1,1
395,-37.0,-31.0,42.0,1645104332.8125,P11,D04,1,1,1
396,-37.0,-31.0,42.0,1645104332.84375,P11,D04,1,1,1
397,-37.0,-31.0,42.0,1645104332.875,P11,D04,1,1,1
398,-37.0,-32.0,42.0,1645104332.90625,P11,D04,1,1,1
399,-37.0,-31.0,42.0,1645104332.9375,P11,D04,1,1,1
400,-37.0,-31.0,42.0,1645104332.96875,P11,D04,1,1,1
401,-37.0,-31.0,42.0,1645104333.0,P11,D04,1,1,1
402,-37.0,-31.0,42.0,1645104333.03125,P11,D04,1,1,1
403,-37.0,-31.0,42.0,1645104333.0625,P11,D04,1,1,1
404,-37.0,-31.0,42.0,1645104333.09375,P11,D04,1,1,1
405,-37.0,-31.0,42.0,1645104333.125,P11,D04,1,1,1
406,-37.0,-31.0,42.0,1645104333.15625,P11,D04,1,1,1
407,-37.0,-31.0,42.0,1645104333.1875,P11,D04,1,1,1
408,-37.0,-31.0,42.0,1645104333.21875,P11,D04,1,1,1
409,-37.0,-31.0,42.0,1645104333.25,P11,D04,1,1,1
410,-37.0,-31.0,42.0,1645104333.28125,P11,D04,1,1,1
411,-37.0,-31.0,42.0,1645104333.3125,P11,D04,1,1,1
412,-37.0,-31.0,42.0,1645104333.34375,P11,D04,1,1,1
413,-37.0,-31.0,42.0,1645104333.375,P11,D04,1,1,1
414,-37.0,-32.0,42.0,1645104333.40625,P11,D04,1,1,1
415,-37.0,-31.0,42.0,1645104333.4375,P11,D04,1,1,1
416,-37.0,-31.0,42.0,1645104333.46875,P11,D04,1,1,1
417,-36.0,-32.0,42.0,1645104333.5,P11,D04,1,1,1
418,-37.0,-32.0,42.0,1645104333.53125,P11,D04,1,1,1
419,-36.0,-31.0,42.0,1645104333.5625,P11,D04,1,1,1
420,-36.0,-32.0,42.0,1645104333.59375,P11,D04,1,1,1
421,-37.0,-31.0,42.0,1645104333.625,P11,D04,1,1,1
422,-37.0,-31.0,41.0,1645104333.65625,P11,D04,1,1,1
423,-36.0,-32.0,42.0,1645104333.6875,P11,D04,1,1,1
424,-37.0,-32.0,41.0,1645104333.71875,P11,D04,1,1,1
425,-37.0,-31.0,41.0,1645104333.75,P11,D04,1,1,1
426,-36.0,-31.0,42.0,1645104333.78125,P11,D04,1,1,1
427,-37.0,-32.0,42.0,1645104333.8125,P11,D04,1,1,1
428,-37.0,-31.0,42.0,1645104333.84375,P11,D04,1,1,1
429,-37.0,-31.0,42.0,1645104333.875,P11,D04,1,1,1
430,-37.0,-32.0,42.0,1645104333.90625,P11,D04,1,1,1
431,-37.0,-32.0,42.0,1645104333.9375,P11,D04,1,1,1
432,-37.0,-32.0,42.0,1645104333.96875,P11,D04,1,1,1
433,-37.0,-32.0,42.0,1645104334.0,P11,D04,1,1,1
434,-37.0,-32.0,41.0,1645104334.03125,P11,D04,1,1,1
435,-37.0,-32.0,41.0,1645104334.0625,P11,D04,1,1,1
436,-37.0,-31.0,42.0,1645104334.09375,P11,D04,1,1,1
437,-37.0,-31.0,42.0,1645104334.125,P11,D04,1,1,1
438,-37.0,-32.0,42.0,1645104334.15625,P11,D04,1,1,1
439,-37.0,-31.0,42.0,1645104334.1875,P11,D04,1,1,1
440,-37.0,-31.0,42.0,1645104334.21875,P11,D04,1,1,1
441,-37.0,-32.0,42.0,1645104334.25,P11,D04,1,1,1
442,-37.0,-31.0,42.0,1645104334.28125,P11,D04,1,1,1
443,-37.0,-31.0,42.0,1645104334.3125,P11,D04,1,1,1
444,-37.0,-31.0,42.0,1645104334.34375,P11,D04,1,1,1
445,-37.0,-31.0,42.0,1645104334.375,P11,D04,1,1,1
446,-36.0,-31.0,42.0,1645104334.40625,P11,D04,1,1,1
447,-37.0,-31.0,42.0,1645104334.4375,P11,D04,1,1,1
448,-37.0,-31.0,42.0,1645104334.46875,P11,D04,1,1,1
449,-36.0,-31.0,42.0,1645104334.5,P11,D04,1,1,1
450,-36.0,-31.0,42.0,1645104334.53125,P11,D04,1,1,1
451,-37.0,-31.0,42.0,1645104334.5625,P11,D04,1,1,1
452,-36.0,-31.0,42.0,1645104334.59375,P11,D04,1,1,1
453,-37.0,-31.0,42.0,1645104334.625,P11,D04,1,1,1
454,-37.0,-31.0,42.0,1645104334.65625,P11,D04,1,1,1
455,-37.0,-31.0,42.0,1645104334.6875,P11,D04,1,1,1
456,-37.0,-31.0,42.0,1645104334.71875,P11,D04,1,1,1
457,-37.0,-31.0,42.0,1645104334.75,P11,D04,1,1,1
458,-37.0,-31.0,42.0,1645104334.78125,P11,D04,1,1,1
459,-37.0,-31.0,42.0,1645104334.8125,P11,D04,1,1,1
460,-36.0,-31.0,42.0,1645104334.84375,P11,D04,1,1,1
461,-37.0,-31.0,42.0,1645104334.875,P11,D04,1,1,1
462,-37.0,-31.0,42.0,1645104334.90625,P11,D04,1,1,1
463,-37.0,-31.0,42.0,1645104334.9375,P11,D04,1,1,1
464,-37.0,-31.0,42.0,1645104334.96875,P11,D04,1,1,1
465,-37.0,-31.0,42.0,1645104335.0,P11,D04,1,1,1
466,-37.0,-31.0,42.0,1645104335.03125,P11,D04,1,1,1
467,-36.0,-31.0,42.0,1645104335.0625,P11,D04,1,1,1
468,-37.0,-31.0,42.0,1645104335.09375,P11,D04,1,1,1
469,-37.0,-31.0,42.0,1645104335.125,P11,D04,1,1,1
470,-37.0,-31.0,42.0,1645104335.15625,P11,D04,1,1,1
471,-37.0,-31.0,42.0,1645104335.1875,P11,D04,1,1,1
472,-37.0,-31.0,42.0,1645104335.21875,P11,D04,1,1,1
473,-37.0,-31.0,42.0,1645104335.25,P11,D04,1,1,1
474,-37.0,-31.0,42.0,1645104335.28125,P11,D04,1,1,1
475,-37.0,-31.0,42.0,1645104335.3125,P11,D04,1,1,1
476,-37.0,-31.0,42.0,1645104335.34375,P11,D04,1,1,1
477,-37.0,-31.0,42.0,1645104335.375,P11,D04,1,1,1
478,-37.0,-31.0,42.0,1645104335.40625,P11,D04,1,1,1
479,-37.0,-31.0,42.0,1645104335.4375,P11,D04,1,1,1
480,-37.0,-31.0,42.0,1645104335.46875,P11,D04,1,1,1
481,-37.0,-31.0,42.0,1645104335.5,P11,D04,1,1,1
482,-37.0,-31.0,42.0,1645104335.53125,P11,D04,1,1,1
483,-37.0,-31.0,42.0,1645104335.5625,P11,D04,1,1,1
484,-37.0,-31.0,42.0,1645104335.59375,P11,D04,1,1,1
485,-37.0,-31.0,42.0,1645104335.625,P11,D04,1,1,1
486,-36.0,-31.0,42.0,1645104335.65625,P11,D04,1,1,1
487,-37.0,-31.0,42.0,1645104335.6875,P11,D04,1,1,1
488,-37.0,-31.0,42.0,1645104335.71875,P11,D04,1,1,1
489,-37.0,-31.0,42.0,1645104335.75,P11,D04,1,1,1
490,-37.0,-31.0,42.0,1645104335.78125,P11,D04,1,1,1
491,-37.0,-31.0,42.0,1645104335.8125,P11,D04,1,1,1
492,-37.0,-31.0,42.0,1645104335.84375,P11,D04,1,1,1
493,-36.0,-31.0,42.0,1645104335.875,P11,D04,1,1,1
494,-37.0,-31.0,42.0,1645104335.90625,P11,D04,1,1,1
495,-37.0,-32.0,42.0,1645104335.9375,P11,D04,1,1,1
496,-36.0,-31.0,42.0,1645104335.96875,P11,D04,1,1,1
497,-37.0,-31.0,42.0,1645104336.0,P11,D04,1,1,1
498,-37.0,-31.0,42.0,1645104336.03125,P11,D04,1,1,1
499,-37.0,-31.0,42.0,1645104336.0625,P11,D04,1,1,1
500,-37.0,-31.0,42.0,1645104336.09375,P11,D04,1,1,1
501,-37.0,-31.0,42.0,1645104336.125,P11,D04,1,1,1
502,-37.0,-31.0,42.0,1645104336.15625,P11,D04,1,1,1
503,-37.0,-31.0,42.0,1645104336.1875,P11,D04,1,1,1
504,-36.0,-31.0,42.0,1645104336.21875,P11,D04,1,1,1
505,-37.0,-31.0,42.0,1645104336.25,P11,D04,1,1,1
506,-37.0,-31.0,42.0,1645104336.28125,P11,D04,1,1,1
507,-36.0,-31.0,42.0,1645104336.3125,P11,D04,1,1,1
508,-37.0,-31.0,42.0,1645104336.34375,P11,D04,1,1,1
509,-36.0,-31.0,42.0,1645104336.375,P11,D04,1,1,1
510,-37.0,-31.0,42.0,1645104336.40625,P11,D04,1,1,1
511,-37.0,-32.0,42.0,1645104336.4375,P11,D04,1,1,1
512,-37.0,-32.0,42.0,1645104336.46875,P11,D04,1,1,1
513,-37.0,-31.0,42.0,1645104336.5,P11,D04,1,1,1
514,-36.0,-31.0,42.0,1645104336.53125,P11,D04,1,1,1
515,-37.0,-31.0,42.0,1645104336.5625,P11,D04,1,1,1
516,-37.0,-31.0,42.0,1645104336.59375,P11,D04,1,1,1
517,-36.0,-31.0,42.0,1645104336.625,P11,D04,1,1,1
518,-37.0,-31.0,42.0,1645104336.65625,P11,D04,1,1,1
519,-37.0,-31.0,42.0,1645104336.6875,P11,D04,1,1,1
520,-37.0,-31.0,42.0,1645104336.71875,P11,D04,1,1,1
521,-37.0,-31.0,42.0,1645104336.75,P11,D04,1,1,1
522,-37.0,-31.0,42.0,1645104336.78125,P11,D04,1,1,1
523,-37.0,-31.0,42.0,1645104336.8125,P11,D04,1,1,1
524,-37.0,-31.0,42.0,1645104336.84375,P11,D04,1,1,1
525,-37.0,-31.0,42.0,1645104336.875,P11,D04,1,1,1
526,-37.0,-31.0,42.0,1645104336.90625,P11,D04,1,1,1
527,-37.0,-31.0,42.0,1645104336.9375,P11,D04,1,1,1
528,-37.0,-31.0,42.0,1645104336.96875,P11,D04,1,1,1
529,-37.0,-32.0,42.0,1645104337.0,P11,D04,1,1,1
530,-37.0,-32.0,42.0,1645104337.03125,P11,D04,1,1,1
531,-36.0,-31.0,42.0,1645104337.0625,P11,D04,1,1,1
532,-37.0,-31.0,42.0,1645104337.09375,P11,D04,1,1,1
533,-37.0,-32.0,42.0,1645104337.125,P11,D04,1,1,1
534,-37.0,-32.0,42.0,1645104337.15625,P11,D04,1,1,1
535,-37.0,-31.0,42.0,1645104337.1875,P11,D04,1,1,1
536,-37.0,-31.0,42.0,1645104337.21875,P11,D04,1,1,1
537,-37.0,-31.0,42.0,1645104337.25,P11,D04,1,1,1
538,-37.0,-31.0,42.0,1645104337.28125,P11,D04,1,1,1
539,-37.0,-31.0,42.0,1645104337.3125,P11,D04,1,1,1
540,-37.0,-31.0,42.0,1645104337.34375,P11,D04,1,1,1
541,-37.0,-31.0,42.0,1645104337.375,P11,D04,1,1,1
542,-37.0,-31.0,42.0,1645104337.40625,P11,D04,1,1,1
543,-37.0,-31.0,42.0,1645104337.4375,P11,D04,1,1,1
544,-37.0,-31.0,42.0,1645104337.46875,P11,D04,1,1,1
545,-37.0,-31.0,42.0,1645104337.5,P11,D04,1,1,1
546,-37.0,-31.0,42.0,1645104337.53125,P11,D04,1,1,1
547,-37.0,-31.0,42.0,1645104337.5625,P11,D04,1,1,1
548,-37.0,-31.0,42.0,1645104337.59375,P11,D04,1,1,1
549,-37.0,-31.0,42.0,1645104337.625,P11,D04,1,1,1
550,-37.0,-31.0,42.0,1645104337.65625,P11,D04,1,1,1
551,-37.0,-31.0,42.0,1645104337.6875,P11,D04,1,1,1
552,-36.0,-31.0,42.0,1645104337.71875,P11,D04,1,1,1
553,-37.0,-31.0,42.0,1645104337.75,P11,D04,1,1,1
554,-37.0,-31.0,42.0,1645104337.78125,P11,D04,1,1,1
555,-36.0,-31.0,42.0,1645104337.8125,P11,D04,1,1,1
556,-36.0,-31.0,42.0,1645104337.84375,P11,D04,1,1,1
557,-37.0,-31.0,42.0,1645104337.875,P11,D04,1,1,1
558,-37.0,-31.0,42.0,1645104337.90625,P11,D04,1,1,1
559,-37.0,-31.0,42.0,1645104337.9375,P11,D04,1,1,1
560,-37.0,-31.0,42.0,1645104337.96875,P11,D04,1,1,1
561,-37.0,-31.0,42.0,1645104338.0,P11,D04,1,1,1
562,-36.0,-31.0,42.0,1645104338.03125,P11,D04,1,1,1
563,-37.0,-31.0,42.0,1645104338.0625,P11,D04,1,1,1
564,-37.0,-31.0,42.0,1645104338.09375,P11,D04,1,1,1
565,-37.0,-31.0,42.0,1645104338.125,P11,D04,1,1,1
566,-37.0,-31.0,42.0,1645104338.15625,P11,D04,1,1,1
567,-37.0,-31.0,42.0,1645104338.1875,P11,D04,1,1,1
568,-37.0,-31.0,42.0,1645104338.21875,P11,D04,1,1,1
569,-37.0,-31.0,42.0,1645104338.25,P11,D04,1,1,1
570,-37.0,-31.0,42.0,1645104338.28125,P11,D04,1,1,1
571,-37.0,-31.0,42.0,1645104338.3125,P11,D04,1,1,1
572,-37.0,-31.0,42.0,1645104338.34375,P11,D04,1,1,1
573,-37.0,-31.0,42.0,1645104338.375,P11,D04,1,1,1
574,-37.0,-31.0,42.0,1645104338.40625,P11,D04,1,1,1
575,-36.0,-31.0,42.0,1645104338.4375,P11,D04,1,1,1
576,-37.0,-31.0,42.0,1645104338.46875,P11,D04,1,1,1
577,-37.0,-31.0,42.0,1645104338.5,P11,D04,1,1,1
578,-37.0,-31.0,42.0,1645104338.53125,P11,D04,1,1,1
579,-37.0,-31.0,42.0,1645104338.5625,P11,D04,1,1,1
580,-37.0,-32.0,42.0,1645104338.59375,P11,D04,1,1,1
581,-37.0,-31.0,42.0,1645104338.625,P11,D04,1,1,1
582,-37.0,-31.0,42.0,1645104338.65625,P11,D04,1,1,1
583,-37.0,-31.0,42.0,1645104338.6875,P11,D04,1,1,1
584,-37.0,-31.0,42.0,1645104338.71875,P11,D04,1,1,1
585,-37.0,-31.0,42.0,1645104338.75,P11,D04,1,1,1
586,-37.0,-31.0,42.0,1645104338.78125,P11,D04,1,1,1
587,-37.0,-31.0,42.0,1645104338.8125,P11,D04,1,1,1
588,-37.0,-31.0,42.0,1645104338.84375,P11,D04,1,1,1
589,-37.0,-31.0,42.0,1645104338.875,P11,D04,1,1,1
590,-37.0,-31.0,42.0,1645104338.90625,P11,D04,1,1,1
591,-37.0,-31.0,42.0,1645104338.9375,P11,D04,1,1,1
592,-37.0,-31.0,42.0,1645104338.96875,P11,D04,1,1,1
593,-37.0,-31.0,42.0,1645104339.0,P11,D04,1,1,1
594,-37.0,-31.0,42.0,1645104339.03125,P11,D04,1,1,1
595,-37.0,-31.0,42.0,1645104339.0625,P11,D04,1,1,1
596,-37.0,-31.0,42.0,1645104339.09375,P11,D04,1,1,1
597,-37.0,-31.0,42.0,1645104339.125,P11,D04,1,1,1
598,-36.0,-31.0,42.0,1645104339.15625,P11,D04,1,1,1
599,-37.0,-32.0,42.0,1645104339.1875,P11,D04,1,1,1
600,-37.0,-31.0,42.0,1645104339.21875,P11,D04,1,1,1
601,-36.0,-31.0,42.0,1645104339.25,P11,D04,1,1,1
602,-37.0,-31.0,42.0,1645104339.28125,P11,D04,1,1,1
603,-37.0,-32.0,42.0,1645104339.3125,P11,D04,1,1,1
604,-37.0,-31.0,42.0,1645104339.34375,P11,D04,1,1,1
605,-37.0,-31.0,42.0,1645104339.375,P11,D04,1,1,1
606,-37.0,-31.0,42.0,1645104339.40625,P11,D04,1,1,1
607,-37.0,-32.0,42.0,1645104339.4375,P11,D04,1,1,1
608,-37.0,-31.0,42.0,1645104339.46875,P11,D04,1,1,1
609,-37.0,-31.0,42.0,1645104339.5,P11,D04,1,1,1
610,-37.0,-31.0,42.0,1645104339.53125,P11,D04,1,1,1
611,-37.0,-32.0,42.0,1645104339.5625,P11,D04,1,1,1
612,-37.0,-31.0,42.0,1645104339.59375,P11,D04,1,1,1
613,-37.0,-31.0,42.0,1645104339.625,P11,D04,1,1,1
614,-37.0,-31.0,42.0,1645104339.65625,P11,D04,1,1,1
615,-37.0,-31.0,42.0,1645104339.6875,P11,D04,1,1,1
616,-37.0,-31.0,42.0,1645104339.71875,P11,D04,1,1,1
617,-37.0,-31.0,42.0,1645104339.75,P11,D04,1,1,1
618,-37.0,-31.0,42.0,1645104339.78125,P11,D04,1,1,1
619,-37.0,-31.0,42.0,1645104339.8125,P11,D04,1,1,1
620,-37.0,-31.0,42.0,1645104339.84375,P11,D04,1,1,1
621,-37.0,-31.0,42.0,1645104339.875,P11,D04,1,1,1
622,-37.0,-31.0,42.0,1645104339.90625,P11,D04,1,1,1
623,-37.0,-31.0,42.0,1645104339.9375,P11,D04,1,1,1
624,-37.0,-31.0,42.0,1645104339.96875,P11,D04,1,1,1
625,-37.0,-31.0,42.0,1645104340.0,P11,D04,1,1,1
626,-37.0,-31.0,42.0,1645104340.03125,P11,D04,1,1,1
627,-37.0,-31.0,42.0,1645104340.0625,P11,D04,1,1,1
628,-37.0,-31.0,42.0,1645104340.09375,P11,D04,1,1,1
629,-37.0,-31.0,42.0,1645104340.125,P11,D04,1,1,1
630,-37.0,-31.0,42.0,1645104340.15625,P11,D04,1,1,1
631,-37.0,-31.0,42.0,1645104340.1875,P11,D04,1,1,1
632,-37.0,-31.0,42.0,1645104340.21875,P11,D04,1,1,1
633,-36.0,-31.0,42.0,1645104340.25,P11,D04,1,1,1
634,-37.0,-31.0,42.0,1645104340.28125,P11,D04,1,1,1
635,-37.0,-31.0,42.0,1645104340.3125,P11,D04,1,1,1
636,-37.0,-31.0,42.0,1645104340.34375,P11,D04,1,1,1
637,-37.0,-31.0,42.0,1645104340.375,P11,D04,1,1,1
638,-37.0,-31.0,42.0,1645104340.40625,P11,D04,1,1,1
639,-37.0,-31.0,42.0,1645104340.4375,P11,D04,1,1,1
640,-37.0,-31.0,42.0,1645104340.46875,P11,D04,1,1,1
641,-37.0,-31.0,42.0,1645104340.5,P11,D04,1,1,1
642,-37.0,-31.0,42.0,1645104340.53125,P11,D04,1,1,1
643,-37.0,-31.0,42.0,1645104340.5625,P11,D04,1,1,1
644,-37.0,-31.0,42.0,1645104340.59375,P11,D04,1,1,1
645,-37.0,-31.0,42.0,1645104340.625,P11,D04,1,1,1
646,-37.0,-31.0,42.0,1645104340.65625,P11,D04,1,1,1
647,-37.0,-31.0,42.0,1645104340.6875,P11,D04,1,1,1
648,-36.0,-31.0,42.0,1645104340.71875,P11,D04,1,1,1
649,-37.0,-32.0,42.0,1645104340.75,P11,D04,1,1,1
650,-37.0,-31.0,42.0,1645104340.78125,P11,D04,1,1,1
651,-37.0,-31.0,42.0,1645104340.8125,P11,D04,1,1,1
652,-36.0,-31.0,42.0,1645104340.84375,P11,D04,1,1,1
653,-37.0,-31.0,42.0,1645104340.875,P11,D04,1,1,1
654,-37.0,-31.0,42.0,1645104340.90625,P11,D04,1,1,1
655,-37.0,-31.0,42.0,1645104340.9375,P11,D04,1,1,1
656,-37.0,-31.0,42.0,1645104340.96875,P11,D04,1,1,1
657,-37.0,-31.0,42.0,1645104341.0,P11,D04,1,1,1
658,-36.0,-31.0,42.0,1645104341.03125,P11,D04,1,1,1
659,-37.0,-31.0,42.0,1645104341.0625,P11,D04,1,1,1
660,-37.0,-31.0,42.0,1645104341.09375,P11,D04,1,1,1
661,-37.0,-31.0,42.0,1645104341.125,P11,D04,1,1,1
662,-37.0,-31.0,42.0,1645104341.15625,P11,D04,1,1,1
663,-37.0,-31.0,42.0,1645104341.1875,P11,D04,1,1,1
664,-37.0,-31.0,42.0,1645104341.21875,P11,D04,1,1,1
665,-37.0,-31.0,42.0,1645104341.25,P11,D04,1,1,1
666,-37.0,-31.0,42.0,1645104341.28125,P11,D04,1,1,1
667,-37.0,-31.0,42.0,1645104341.3125,P11,D04,1,1,1
668,-36.0,-31.0,42.0,1645104341.34375,P11,D04,1,1,1
669,-37.0,-31.0,42.0,1645104341.375,P11,D04,1,1,1
670,-37.0,-31.0,42.0,1645104341.40625,P11,D04,1,1,1
671,-36.0,-31.0,42.0,1645104341.4375,P11,D04,1,1,1
672,-37.0,-32.0,42.0,1645104341.46875,P11,D04,1,1,1
673,-37.0,-31.0,42.0,1645104341.5,P11,D04,1,1,1
674,-36.0,-31.0,42.0,1645104341.53125,P11,D04,1,1,1
675,-37.0,-31.0,42.0,1645104341.5625,P11,D04,1,1,1
676,-37.0,-31.0,42.0,1645104341.59375,P11,D04,1,1,1
677,-36.0,-31.0,42.0,1645104341.625,P11,D04,1,1,1
678,-37.0,-31.0,42.0,1645104341.65625,P11,D04,1,1,1
679,-37.0,-31.0,42.0,1645104341.6875,P11,D04,1,1,1
680,-37.0,-31.0,42.0,1645104341.71875,P11,D04,1,1,1
681,-36.0,-31.0,42.0,1645104341.75,P11,D04,1,1,1
682,-37.0,-31.0,42.0,1645104341.78125,P11,D04,1,1,1
683,-36.0,-31.0,42.0,1645104341.8125,P11,D04,1,1,1
684,-37.0,-31.0,42.0,1645104341.84375,P11,D04,1,1,1
685,-37.0,-31.0,42.0,1645104341.875,P11,D04,1,1,1
686,-37.0,-31.0,42.0,1645104341.90625,P11,D04,1,1,1
687,-37.0,-31.0,42.0,1645104341.9375,P11,D04,1,1,1
688,-36.0,-31.0,42.0,1645104341.96875,P11,D04,1,1,1
689,-37.0,-31.0,42.0,1645104342.0,P11,D04,1,1,1
690,-37.0,-31.0,42.0,1645104342.03125,P11,D04,1,1,1
691,-37.0,-31.0,42.0,1645104342.0625,P11,D04,1,1,1
692,-37.0,-31.0,42.0,1645104342.09375,P11,D04,1,1,1
693,-37.0,-31.0,42.0,1645104342.125,P11,D04,1,1,1
694,-37.0,-31.0,42.0,1645104342.15625,P11,D04,1,1,1
695,-37.0,-31.0,42.0,1645104342.1875,P11,D04,1,1,1
696,-36.0,-31.0,42.0,1645104342.21875,P11,D04,1,1,1
697,-37.0,-31.0,42.0,1645104342.25,P11,D04,1,1,1
698,-36.0,-31.0,42.0,1645104342.28125,P11,D04,1,1,1
699,-37.0,-31.0,42.0,1645104342.3125,P11,D04,1,1,1
700,-37.0,-32.0,42.0,1645104342.34375,P11,D04,1,1,1
701,-36.0,-32.0,42.0,1645104342.375,P11,D04,1,1,1
702,-37.0,-31.0,42.0,1645104342.40625,P11,D04,1,1,1
703,-37.0,-31.0,42.0,1645104342.4375,P11,D04,1,1,1
704,-37.0,-32.0,42.0,1645104342.46875,P11,D04,1,1,1
705,-37.0,-32.0,42.0,1645104342.5,P11,D04,1,1,1
706,-37.0,-31.0,42.0,1645104342.53125,P11,D04,1,1,1
707,-37.0,-31.0,42.0,1645104342.5625,P11,D04,1,1,1
708,-37.0,-31.0,42.0,1645104342.59375,P11,D04,1,1,1
709,-37.0,-31.0,42.0,1645104342.625,P11,D04,1,1,1
710,-37.0,-31.0,42.0,1645104342.65625,P11,D04,1,1,1
711,-37.0,-31.0,42.0,1645104342.6875,P11,D04,1,1,1
712,-37.0,-31.0,42.0,1645104342.71875,P11,D04,1,1,1
713,-37.0,-31.0,42.0,1645104342.75,P11,D04,1,1,1
714,-37.0,-31.0,42.0,1645104342.78125,P11,D04,1,1,1
715,-37.0,-31.0,42.0,1645104342.8125,P11,D04,1,1,1
716,-37.0,-31.0,42.0,1645104342.84375,P11,D04,1,1,1
717,-37.0,-31.0,42.0,1645104342.875,P11,D04,1,1,1
718,-37.0,-31.0,42.0,1645104342.90625,P11,D04,1,1,1
719,-37.0,-31.0,42.0,1645104342.9375,P11,D04,1,1,1
720,-37.0,-31.0,42.0,1645104342.96875,P11,D04,1,1,1
721,-37.0,-31.0,42.0,1645104343.0,P11,D04,1,1,1
722,-37.0,-31.0,42.0,1645104343.03125,P11,D04,1,1,1
723,-37.0,-31.0,42.0,1645104343.0625,P11,D04,1,1,1
724,-37.0,-31.0,42.0,1645104343.09375,P11,D04,1,1,1
725,-36.0,-31.0,42.0,1645104343.125,P11,D04,1,1,1
726,-37.0,-31.0,42.0,1645104343.15625,P11,D04,1,1,1
727,-37.0,-31.0,42.0,1645104343.1875,P11,D04,1,1,1
728,-36.0,-31.0,42.0,1645104343.21875,P11,D04,1,1,1
729,-36.0,-31.0,42.0,1645104343.25,P11,D04,1,1,1
730,-37.0,-31.0,42.0,1645104343.28125,P11,D04,1,1,1
731,-37.0,-31.0,42.0,1645104343.3125,P11,D04,1,1,1
732,-37.0,-31.0,42.0,1645104343.34375,P11,D04,1,1,1
733,-37.0,-31.0,42.0,1645104343.375,P11,D04,1,1,1
734,-37.0,-31.0,42.0,1645104343.40625,P11,D04,1,1,1
735,-37.0,-31.0,42.0,1645104343.4375,P11,D04,1,1,1
736,-37.0,-31.0,42.0,1645104343.46875,P11,D04,1,1,1
737,-37.0,-31.0,42.0,1645104343.5,P11,D04,1,1,1
738,-37.0,-31.0,42.0,1645104343.53125,P11,D04,1,1,1
739,-37.0,-31.0,42.0,1645104343.5625,P11,D04,1,1,1
740,-37.0,-31.0,42.0,1645104343.59375,P11,D04,1,1,1
741,-37.0,-31.0,42.0,1645104343.625,P11,D04,1,1,1
742,-37.0,-31.0,42.0,1645104343.65625,P11,D04,1,1,1
743,-37.0,-31.0,42.0,1645104343.6875,P11,D04,1,1,1
744,-37.0,-31.0,42.0,1645104343.71875,P11,D04,1,1,1
745,-37.0,-31.0,42.0,1645104343.75,P11,D04,1,1,1
746,-37.0,-31.0,42.0,1645104343.78125,P11,D04,1,1,1
747,-36.0,-31.0,42.0,1645104343.8125,P11,D04,1,1,1
748,-37.0,-31.0,42.0,1645104343.84375,P11,D04,1,1,1
749,-37.0,-31.0,42.0,1645104343.875,P11,D04,1,1,1
750,-37.0,-31.0,42.0,1645104343.90625,P11,D04,1,1,1
751,-36.0,-31.0,42.0,1645104343.9375,P11,D04,1,1,1
752,-37.0,-31.0,42.0,1645104343.96875,P11,D04,1,1,1
753,-37.0,-31.0,42.0,1645104344.0,P11,D04,1,1,1
754,-36.0,-31.0,42.0,1645104344.03125,P11,D04,1,1,1
755,-37.0,-31.0,42.0,1645104344.0625,P11,D04,1,1,1
756,-37.0,-31.0,42.0,1645104344.09375,P11,D04,1,1,1
757,-37.0,-31.0,42.0,1645104344.125,P11,D04,1,1,1
758,-37.0,-31.0,42.0,1645104344.15625,P11,D04,1,1,1
759,-37.0,-31.0,42.0,1645104344.1875,P11,D04,1,1,1
760,-37.0,-31.0,42.0,1645104344.21875,P11,D04,1,1,1
761,-37.0,-31.0,42.0,1645104344.25,P11,D04,1,1,1
762,-36.0,-31.0,42.0,1645104344.28125,P11,D04,1,1,1
763,-37.0,-31.0,42.0,1645104344.3125,P11,D04,1,1,1
764,-37.0,-31.0,42.0,1645104344.34375,P11,D04,1,1,1
765,-37.0,-31.0,42.0,1645104344.375,P11,D04,1,1,1
766,-37.0,-31.0,42.0,1645104344.40625,P11,D04,1,1,1
767,-37.0,-31.0,42.0,1645104344.4375,P11,D04,1,1,1
768,-36.0,-31.0,42.0,1645104344.46875,P11,D04,1,1,1
769,-37.0,-31.0,42.0,1645104344.5,P11,D04,1,1,1
770,-37.0,-32.0,42.0,1645104344.53125,P11,D04,1,1,1
771,-37.0,-31.0,42.0,1645104344.5625,P11,D04,1,1,1
772,-36.0,-31.0,42.0,1645104344.59375,P11,D04,1,1,1
773,-36.0,-31.0,42.0,1645104344.625,P11,D04,1,1,1
774,-37.0,-32.0,42.0,1645104344.65625,P11,D04,1,1,1
775,-37.0,-32.0,42.0,1645104344.6875,P11,D04,1,1,1
776,-37.0,-31.0,42.0,1645104344.71875,P11,D04,1,1,1
777,-37.0,-31.0,42.0,1645104344.75,P11,D04,1,1,1
778,-37.0,-32.0,42.0,1645104344.78125,P11,D04,1,1,1
779,-37.0,-31.0,42.0,1645104344.8125,P11,D04,1,1,1
780,-37.0,-31.0,42.0,1645104344.84375,P11,D04,1,1,1
781,-36.0,-31.0,42.0,1645104344.875,P11,D04,1,1,1
782,-37.0,-31.0,42.0,1645104344.90625,P11,D04,1,1,1
783,-37.0,-31.0,42.0,1645104344.9375,P11,D04,1,1,1
784,-36.0,-31.0,42.0,1645104344.96875,P11,D04,1,1,1
785,-37.0,-32.0,42.0,1645104345.0,P11,D04,1,1,1
786,-36.0,-31.0,42.0,1645104345.03125,P11,D04,1,1,1
787,-37.0,-31.0,42.0,1645104345.0625,P11,D04,1,1,1
788,-37.0,-32.0,42.0,1645104345.09375,P11,D04,1,1,1
789,-37.0,-32.0,42.0,1645104345.125,P11,D04,1,1,1
790,-36.0,-31.0,42.0,1645104345.15625,P11,D04,1,1,1
791,-37.0,-31.0,42.0,1645104345.1875,P11,D04,1,1,1
792,-37.0,-31.0,42.0,1645104345.21875,P11,D04,1,1,1
793,-37.0,-31.0,42.0,1645104345.25,P11,D04,1,1,1
794,-37.0,-31.0,42.0,1645104345.28125,P11,D04,1,1,1
795,-37.0,-32.0,41.0,1645104345.3125,P11,D04,1,1,1
796,-37.0,-32.0,42.0,1645104345.34375,P11,D04,1,1,1
797,-37.0,-31.0,42.0,1645104345.375,P11,D04,1,1,1
798,-37.0,-31.0,42.0,1645104345.40625,P11,D04,1,1,1
799,-37.0,-31.0,42.0,1645104345.4375,P11,D04,1,1,1
800,-37.0,-31.0,42.0,1645104345.46875,P11,D04,1,1,1
801,-37.0,-31.0,42.0,1645104345.5,P11,D04,1,1,1
802,-37.0,-31.0,42.0,1645104345.53125,P11,D04,1,1,1
803,-37.0,-31.0,42.0,1645104345.5625,P11,D04,1,1,1
804,-37.0,-31.0,42.0,1645104345.59375,P11,D04,1,1,1
805,-37.0,-31.0,42.0,1645104345.625,P11,D04,1,1,1
806,-36.0,-31.0,42.0,1645104345.65625,P11,D04,1,1,1
807,-37.0,-31.0,42.0,1645104345.6875,P11,D04,1,1,1
808,-37.0,-32.0,42.0,1645104345.71875,P11,D04,1,1,1
809,-37.0,-31.0,42.0,1645104345.75,P11,D04,1,1,1
810,-36.0,-31.0,42.0,1645104345.78125,P11,D04,1,1,1
811,-37.0,-31.0,42.0,1645104345.8125,P11,D04,1,1,1
812,-37.0,-31.0,42.0,1645104345.84375,P11,D04,1,1,1
813,-37.0,-31.0,42.0,1645104345.875,P11,D04,1,1,1
814,-37.0,-31.0,42.0,1645104345.90625,P11,D04,1,1,1
815,-37.0,-31.0,42.0,1645104345.9375,P11,D04,1,1,1
816,-36.0,-31.0,42.0,1645104345.96875,P11,D04,1,1,1
817,-37.0,-31.0,42.0,1645104346.0,P11,D04,1,1,1
818,-37.0,-31.0,42.0,1645104346.03125,P11,D04,1,1,1
819,-37.0,-31.0,42.0,1645104346.0625,P11,D04,1,1,1
820,-37.0,-31.0,42.0,1645104346.09375,P11,D04,1,1,1
821,-37.0,-31.0,42.0,1645104346.125,P11,D04,1,1,1
822,-36.0,-31.0,42.0,1645104346.15625,P11,D04,1,1,1
823,-37.0,-31.0,42.0,1645104346.1875,P11,D04,1,1,1
824,-37.0,-31.0,42.0,1645104346.21875,P11,D04,1,1,1
825,-37.0,-31.0,42.0,1645104346.25,P11,D04,1,1,1
826,-37.0,-31.0,42.0,1645104346.28125,P11,D04,1,1,1
827,-37.0,-31.0,42.0,1645104346.3125,P11,D04,1,1,1
828,-37.0,-31.0,42.0,1645104346.34375,P11,D04,1,1,1
829,-37.0,-31.0,42.0,1645104346.375,P11,D04,1,1,1
830,-36.0,-31.0,42.0,1645104346.40625,P11,D04,1,1,1
831,-37.0,-32.0,42.0,1645104346.4375,P11,D04,1,1,1
832,-37.0,-31.0,42.0,1645104346.46875,P11,D04,1,1,1
833,-37.0,-31.0,42.0,1645104346.5,P11,D04,1,1,1
834,-37.0,-31.0,42.0,1645104346.53125,P11,D04,1,1,1
835,-37.0,-31.0,42.0,1645104346.5625,P11,D04,1,1,1
836,-37.0,-31.0,42.0,1645104346.59375,P11,D04,1,1,1
837,-37.0,-31.0,42.0,1645104346.625,P11,D04,1,1,1
838,-37.0,-31.0,42.0,1645104346.65625,P11,D04,1,1,1
839,-36.0,-31.0,42.0,1645104346.6875,P11,D04,1,1,1
840,-36.0,-31.0,42.0,1645104346.71875,P11,D04,1,1,1
841,-37.0,-31.0,42.0,1645104346.75,P11,D04,1,1,1
842,-37.0,-31.0,42.0,1645104346.78125,P11,D04,1,1,1
843,-37.0,-31.0,42.0,1645104346.8125,P11,D04,1,1,1
844,-37.0,-31.0,42.0,1645104346.84375,P11,D04,1,1,1
845,-37.0,-31.0,42.0,1645104346.875,P11,D04,1,1,1
846,-37.0,-31.0,42.0,1645104346.90625,P11,D04,1,1,1
847,-37.0,-31.0,42.0,1645104346.9375,P11,D04,1,1,1
848,-37.0,-31.0,42.0,1645104346.96875,P11,D04,1,1,1
849,-37.0,-31.0,42.0,1645104347.0,P11,D04,1,1,1
850,-37.0,-31.0,42.0,1645104347.03125,P11,D04,1,1,1
851,-37.0,-32.0,42.0,1645104347.0625,P11,D04,1,1,1
852,-37.0,-31.0,42.0,1645104347.09375,P11,D04,1,1,1
853,-37.0,-31.0,42.0,1645104347.125,P11,D04,1,1,1
854,-37.0,-31.0,42.0,1645104347.15625,P11,D04,1,1,1
855,-36.0,-31.0,42.0,1645104347.1875,P11,D04,1,1,1
856,-37.0,-31.0,42.0,1645104347.21875,P11,D04,1,1,1
857,-37.0,-31.0,42.0,1645104347.25,P11,D04,1,1,1
858,-37.0,-31.0,42.0,1645104347.28125,P11,D04,1,1,1
859,-37.0,-32.0,42.0,1645104347.3125,P11,D04,1,1,1
860,-36.0,-31.0,42.0,1645104347.34375,P11,D04,1,1,1
861,-36.0,-31.0,42.0,1645104347.375,P11,D04,1,1,1
862,-37.0,-31.0,42.0,1645104347.40625,P11,D04,1,1,1
863,-37.0,-32.0,42.0,1645104347.4375,P11,D04,1,1,1
864,-36.0,-32.0,42.0,1645104347.46875,P11,D04,1,1,1
865,-36.0,-31.0,42.0,1645104347.5,P11,D04,1,1,1
866,-37.0,-31.0,42.0,1645104347.53125,P11,D04,1,1,1
867,-36.0,-32.0,42.0,1645104347.5625,P11,D04,1,1,1
868,-37.0,-31.0,42.0,1645104347.59375,P11,D04,1,1,1
869,-37.0,-31.0,42.0,1645104347.625,P11,D04,1,1,1
870,-37.0,-31.0,42.0,1645104347.65625,P11,D04,1,1,1
871,-37.0,-32.0,42.0,1645104347.6875,P11,D04,1,1,1
872,-36.0,-31.0,42.0,1645104347.71875,P11,D04,1,1,1
873,-37.0,-32.0,42.0,1645104347.75,P11,D04,1,1,1
874,-37.0,-31.0,42.0,1645104347.78125,P11,D04,1,1,1
875,-37.0,-31.0,42.0,1645104347.8125,P11,D04,1,1,1
876,-37.0,-31.0,42.0,1645104347.84375,P11,D04,1,1,1
877,-37.0,-31.0,42.0,1645104347.875,P11,D04,1,1,1
878,-37.0,-31.0,42.0,1645104347.90625,P11,D04,1,1,1
879,-37.0,-31.0,42.0,1645104347.9375,P11,D04,1,1,1
880,-37.0,-31.0,42.0,1645104347.96875,P11,D04,1,1,1
881,-37.0,-31.0,42.0,1645104348.0,P11,D04,1,1,1
882,-37.0,-31.0,42.0,1645104348.03125,P11,D04,1,1,1
883,-37.0,-31.0,42.0,1645104348.0625,P11,D04,1,1,1
884,-36.0,-31.0,42.0,1645104348.09375,P11,D04,1,1,1
885,-37.0,-31.0,42.0,1645104348.125,P11,D04,1,1,1
886,-37.0,-31.0,42.0,1645104348.15625,P11,D04,1,1,1
887,-37.0,-31.0,42.0,1645104348.1875,P11,D04,1,1,1
888,-37.0,-31.0,42.0,1645104348.21875,P11,D04,1,1,1
889,-37.0,-31.0,42.0,1645104348.25,P11,D04,1,1,1
890,-37.0,-31.0,42.0,1645104348.28125,P11,D04,1,1,1
891,-37.0,-31.0,42.0,1645104348.3125,P11,D04,1,1,1
892,-37.0,-31.0,42.0,1645104348.34375,P11,D04,1,1,1
893,-37.0,-31.0,42.0,1645104348.375,P11,D04,1,1,1
894,-37.0,-31.0,42.0,1645104348.40625,P11,D04,1,1,1
895,-36.0,-31.0,42.0,1645104348.4375,P11,D04,1,1,1
896,-37.0,-31.0,42.0,1645104348.46875,P11,D04,1,1,1
897,-37.0,-31.0,42.0,1645104348.5,P11,D04,1,1,1
898,-37.0,-31.0,42.0,1645104348.53125,P11,D04,1,1,1
899,-37.0,-31.0,42.0,1645104348.5625,P11,D04,1,1,1
900,-37.0,-31.0,42.0,1645104348.59375,P11,D04,1,1,1
901,-37.0,-31.0,42.0,1645104348.625,P11,D04,1,1,1
902,-37.0,-31.0,42.0,1645104348.65625,P11,D04,1,1,1
903,-37.0,-32.0,42.0,1645104348.6875,P11,D04,1,1,1
904,-37.0,-31.0,42.0,1645104348.71875,P11,D04,1,1,1
905,-37.0,-31.0,42.0,1645104348.75,P11,D04,1,1,1
906,-37.0,-31.0,42.0,1645104348.78125,P11,D04,1,1,1
907,-36.0,-31.0,42.0,1645104348.8125,P11,D04,1,1,1
908,-37.0,-31.0,42.0,1645104348.84375,P11,D04,1,1,1
909,-37.0,-32.0,42.0,1645104348.875,P11,D04,1,1,1
910,-37.0,-31.0,42.0,1645104348.90625,P11,D04,1,1,1
911,-37.0,-31.0,42.0,1645104348.9375,P11,D04,1,1,1
912,-37.0,-31.0,42.0,1645104348.96875,P11,D04,1,1,1
913,-37.0,-31.0,42.0,1645104349.0,P11,D04,1,1,1
914,-37.0,-31.0,42.0,1645104349.03125,P11,D04,1,1,1
915,-37.0,-31.0,42.0,1645104349.0625,P11,D04,1,1,1
916,-37.0,-31.0,42.0,1645104349.09375,P11,D04,1,1,1
917,-36.0,-31.0,42.0,1645104349.125,P11,D04,1,1,1
918,-36.0,-31.0,42.0,1645104349.15625,P11,D04,1,1,1
919,-37.0,-31.0,42.0,1645104349.1875,P11,D04,1,1,1
920,-37.0,-31.0,42.0,1645104349.21875,P11,D04,1,1,1
921,-37.0,-31.0,42.0,1645104349.25,P11,D04,1,1,1
922,-37.0,-31.0,42.0,1645104349.28125,P11,D04,1,1,1
923,-37.0,-31.0,42.0,1645104349.3125,P11,D04,1,1,1
924,-37.0,-31.0,42.0,1645104349.34375,P11,D04,1,1,1
925,-37.0,-32.0,42.0,1645104349.375,P11,D04,1,1,1
926,-37.0,-31.0,42.0,1645104349.40625,P11,D04,1,1,1
927,-37.0,-31.0,42.0,1645104349.4375,P11,D04,1,1,1
928,-37.0,-31.0,42.0,1645104349.46875,P11,D04,1,1,1
929,-37.0,-31.0,42.0,1645104349.5,P11,D04,1,1,1
930,-37.0,-31.0,42.0,1645104349.53125,P11,D04,1,1,1
931,-37.0,-31.0,42.0,1645104349.5625,P11,D04,1,1,1
932,-37.0,-31.0,42.0,1645104349.59375,P11,D04,1,1,1
933,-36.0,-31.0,42.0,1645104349.625,P11,D04,1,1,1
934,-37.0,-32.0,42.0,1645104349.65625,P11,D04,1,1,1
935,-37.0,-31.0,42.0,1645104349.6875,P11,D04,1,1,1
936,-37.0,-31.0,42.0,1645104349.71875,P11,D04,1,1,1
937,-37.0,-31.0,42.0,1645104349.75,P11,D04,1,1,1
938,-37.0,-31.0,42.0,1645104349.78125,P11,D04,1,1,1
939,-36.0,-31.0,42.0,1645104349.8125,P11,D04,1,1,1
940,-37.0,-32.0,42.0,1645104349.84375,P11,D04,1,1,1
941,-37.0,-31.0,42.0,1645104349.875,P11,D04,1,1,1
942,-37.0,-32.0,42.0,1645104349.90625,P11,D04,1,1,1
943,-36.0,-31.0,42.0,1645104349.9375,P11,D04,1,1,1
944,-37.0,-31.0,42.0,1645104349.96875,P11,D04,1,1,1
945,-37.0,-32.0,42.0,1645104350.0,P11,D04,1,1,1
946,-37.0,-32.0,42.0,1645104350.03125,P11,D04,1,1,1
947,-37.0,-31.0,42.0,1645104350.0625,P11,D04,1,1,1
948,-37.0,-31.0,42.0,1645104350.09375,P11,D04,1,1,1
949,-36.0,-32.0,42.0,1645104350.125,P11,D04,1,1,1
950,-37.0,-32.0,42.0,1645104350.15625,P11,D04,1,1,1
951,-37.0,-32.0,42.0,1645104350.1875,P11,D04,1,1,1
952,-37.0,-31.0,42.0,1645104350.21875,P11,D04,1,1,1
953,-37.0,-31.0,42.0,1645104350.25,P11,D04,1,1,1
954,-37.0,-31.0,42.0,1645104350.28125,P11,D04,1,1,1
955,-37.0,-31.0,42.0,1645104350.3125,P11,D04,1,1,1
956,-37.0,-31.0,42.0,1645104350.34375,P11,D04,1,1,1
957,-37.0,-31.0,42.0,1645104350.375,P11,D04,1,1,1
958,-37.0,-31.0,42.0,1645104350.40625,P11,D04,1,1,1
959,-37.0,-32.0,42.0,1645104350.4375,P11,D04,1,1,1
960,-36.0,-32.0,42.0,1645104350.46875,P11,D04,1,1,1
961,-36.0,-31.0,42.0,1645104350.5,P11,D04,1,1,1
962,-37.0,-32.0,42.0,1645104350.53125,P11,D04,1,1,1
963,-37.0,-32.0,42.0,1645104350.5625,P11,D04,1,1,1
964,-36.0,-31.0,42.0,1645104350.59375,P11,D04,1,1,1
965,-37.0,-31.0,42.0,1645104350.625,P11,D04,1,1,1
966,-37.0,-32.0,42.0,1645104350.65625,P11,D04,1,1,1
967,-37.0,-32.0,42.0,1645104350.6875,P11,D04,1,1,1
968,-36.0,-31.0,42.0,1645104350.71875,P11,D04,1,1,1
969,-37.0,-31.0,42.0,1645104350.75,P11,D04,1,1,1
970,-37.0,-31.0,42.0,1645104350.78125,P11,D04,1,1,1
971,-36.0,-31.0,42.0,1645104350.8125,P11,D04,1,1,1
972,-37.0,-31.0,42.0,1645104350.84375,P11,D04,1,1,1
973,-37.0,-31.0,42.0,1645104350.875,P11,D04,1,1,1
974,-37.0,-31.0,42.0,1645104350.90625,P11,D04,1,1,1
975,-37.0,-31.0,42.0,1645104350.9375,P11,D04,1,1,1
976,-37.0,-31.0,42.0,1645104350.96875,P11,D04,1,1,1
977,-37.0,-31.0,42.0,1645104351.0,P11,D04,1,1,1
978,-37.0,-31.0,42.0,1645104351.03125,P11,D04,1,1,1
979,-37.0,-31.0,42.0,1645104351.0625,P11,D04,1,1,1
980,-37.0,-31.0,42.0,1645104351.09375,P11,D04,1,1,1
981,-37.0,-31.0,42.0,1645104351.125,P11,D04,1,1,1
982,-37.0,-31.0,42.0,1645104351.15625,P11,D04,1,1,1
983,-36.0,-31.0,42.0,1645104351.1875,P11,D04,1,1,1
984,-37.0,-32.0,42.0,1645104351.21875,P11,D04,1,1,1
985,-37.0,-31.0,42.0,1645104351.25,P11,D04,1,1,1
986,-37.0,-31.0,42.0,1645104351.28125,P11,D04,1,1,1
987,-36.0,-31.0,42.0,1645104351.3125,P11,D04,1,1,1
988,-36.0,-31.0,42.0,1645104351.34375,P11,D04,1,1,1
989,-36.0,-31.0,42.0,1645104351.375,P11,D04,1,1,1
990,-37.0,-31.0,42.0,1645104351.40625,P11,D04,1,1,1
991,-37.0,-31.0,42.0,1645104351.4375,P11,D04,1,1,1
992,-36.0,-31.0,42.0,1645104351.46875,P11,D04,1,1,1
993,-36.0,-31.0,42.0,1645104351.5,P11,D04,1,1,1
994,-37.0,-31.0,42.0,1645104351.53125,P11,D04,1,1,1
995,-37.0,-31.0,42.0,1645104351.5625,P11,D04,1,1,1
996,-36.0,-31.0,42.0,1645104351.59375,P11,D04,1,1,1
997,-37.0,-31.0,42.0,1645104351.625,P11,D04,1,1,1
998,-37.0,-31.0,42.0,1645104351.65625,P11,D04,1,1,1
999,-37.0,-31.0,42.0,1645104351.6875,P11,D04,1,1,1
1000,-37.0,-31.0,42.0,1645104351.71875,P11,D04,1,1,1
1001,-37.0,-31.0,42.0,1645104351.75,P11,D04,1,1,1
1002,-37.0,-31.0,42.0,1645104351.78125,P11,D04,1,1,1
1003,-37.0,-31.0,42.0,1645104351.8125,P11,D04,1,1,1
1004,-37.0,-31.0,42.0,1645104351.84375,P11,D04,1,1,1
1005,-37.0,-31.0,42.0,1645104351.875,P11,D04,1,1,1
1006,-37.0,-31.0,42.0,1645104351.90625,P11,D04,1,1,1
1007,-37.0,-32.0,42.0,1645104351.9375,P11,D04,1,1,1
1008,-37.0,-31.0,42.0,1645104351.96875,P11,D04,1,1,1
1009,-37.0,-31.0,42.0,1645104352.0,P11,D04,1,1,1
1010,-37.0,-32.0,42.0,1645104352.03125,P11,D04,1,1,1
1011,-36.0,-31.0,42.0,1645104352.0625,P11,D04,1,1,1
1012,-36.0,-31.0,42.0,1645104352.09375,P11,D04,1,1,1
1013,-37.0,-31.0,42.0,1645104352.125,P11,D04,1,1,1
1014,-37.0,-31.0,42.0,1645104352.15625,P11,D04,1,1,1
1015,-37.0,-31.0,42.0,1645104352.1875,P11,D04,1,1,1
1016,-36.0,-31.0,42.0,1645104352.21875,P11,D04,1,1,1
1017,-37.0,-31.0,42.0,1645104352.25,P11,D04,1,1,1
1018,-37.0,-31.0,42.0,1645104352.28125,P11,D04,1,1,1
1019,-37.0,-32.0,42.0,1645104352.3125,P11,D04,1,1,1
1020,-37.0,-32.0,42.0,1645104352.34375,P11,D04,1,1,1
1021,-37.0,-32.0,42.0,1645104352.375,P11,D04,1,1,1
1022,-37.0,-31.0,42.0,1645104352.40625,P11,D04,1,1,1
1023,-37.0,-32.0,42.0,1645104352.4375,P11,D04,1,1,1
1024,-37.0,-31.0,42.0,1645104352.46875,P11,D04,1,1,1
1025,-37.0,-31.0,42.0,1645104352.5,P11,D04,1,1,1
1026,-37.0,-32.0,42.0,1645104352.53125,P11,D04,1,1,1
1027,-37.0,-32.0,42.0,1645104352.5625,P11,D04,1,1,1
1028,-37.0,-31.0,42.0,1645104352.59375,P11,D04,1,1,1
1029,-37.0,-32.0,42.0,1645104352.625,P11,D04,1,1,1
1030,-37.0,-32.0,42.0,1645104352.65625,P11,D04,1,1,1
1031,-37.0,-32.0,42.0,1645104352.6875,P11,D04,1,1,1
1032,-37.0,-32.0,42.0,1645104352.71875,P11,D04,1,1,1
1033,-37.0,-32.0,42.0,1645104352.75,P11,D04,1,1,1
1034,-36.0,-31.0,42.0,1645104352.78125,P11,D04,1,1,1
1035,-37.0,-31.0,42.0,1645104352.8125,P11,D04,1,1,1
1036,-37.0,-31.0,42.0,1645104352.84375,P11,D04,1,1,1
1037,-36.0,-31.0,42.0,1645104352.875,P11,D04,1,1,1
1038,-36.0,-31.0,43.0,1645104352.90625,P11,D04,1,1,1
1039,-36.0,-31.0,43.0,1645104352.9375,P11,D04,1,1,1
1040,-36.0,-30.0,43.0,1645104352.96875,P11,D04,1,1,1
1041,-36.0,-31.0,43.0,1645104353.0,P11,D04,1,1,1
1042,-36.0,-30.0,43.0,1645104353.03125,P11,D04,1,1,1
1043,-37.0,-30.0,42.0,1645104353.0625,P11,D04,1,1,1
1044,-36.0,-30.0,43.0,1645104353.09375,P11,D04,1,1,1
1045,-36.0,-30.0,43.0,1645104353.125,P11,D04,1,1,1
1046,-36.0,-30.0,43.0,1645104353.15625,P11,D04,1,1,1
1047,-36.0,-30.0,43.0,1645104353.1875,P11,D04,1,1,1
1048,-36.0,-30.0,43.0,1645104353.21875,P11,D04,1,1,1
1049,-36.0,-30.0,43.0,1645104353.25,P11,D04,1,1,1
1050,-36.0,-30.0,43.0,1645104353.28125,P11,D04,1,1,1
1051,-36.0,-30.0,43.0,1645104353.3125,P11,D04,1,1,1
1052,-37.0,-30.0,43.0,1645104353.34375,P11,D04,1,1,1
1053,-37.0,-30.0,43.0,1645104353.375,P11,D04,1,1,1
1054,-37.0,-30.0,43.0,1645104353.40625,P11,D04,1,1,1
1055,-37.0,-30.0,43.0,1645104353.4375,P11,D04,1,1,1
1056,-37.0,-30.0,43.0,1645104353.46875,P11,D04,1,1,1
1057,-36.0,-30.0,43.0,1645104353.5,P11,D04,1,1,1
1058,-36.0,-30.0,43.0,1645104353.53125,P11,D04,1,1,1
1059,-37.0,-30.0,43.0,1645104353.5625,P11,D04,1,1,1
1060,-37.0,-30.0,43.0,1645104353.59375,P11,D04,1,1,1
1061,-37.0,-30.0,43.0,1645104353.625,P11,D04,1,1,1
1062,-37.0,-30.0,43.0,1645104353.65625,P11,D04,1,1,1
1063,-37.0,-30.0,43.0,1645104353.6875,P11,D04,1,1,1
1064,-37.0,-30.0,43.0,1645104353.71875,P11,D04,1,1,1
1065,-37.0,-30.0,43.0,1645104353.75,P11,D04,1,1,1
1066,-37.0,-30.0,43.0,1645104353.78125,P11,D04,1,1,1
1067,-37.0,-30.0,43.0,1645104353.8125,P11,D04,1,1,1
1068,-37.0,-30.0,43.0,1645104353.84375,P11,D04,1,1,1
1069,-37.0,-30.0,43.0,1645104353.875,P11,D04,1,1,1
1070,-37.0,-30.0,43.0,1645104353.90625,P11,D04,1,1,1
1071,-37.0,-30.0,43.0,1645104353.9375,P11,D04,1,1,1
1072,-37.0,-30.0,43.0,1645104353.96875,P11,D04,1,1,1
1073,-36.0,-30.0,43.0,1645104354.0,P11,D04,1,1,1
1074,-37.0,-30.0,43.0,1645104354.03125,P11,D04,1,1,1
1075,-37.0,-30.0,43.0,1645104354.0625,P11,D04,1,1,1
1076,-37.0,-30.0,43.0,1645104354.09375,P11,D04,1,1,1
1077,-37.0,-30.0,43.0,1645104354.125,P11,D04,1,1,1
1078,-37.0,-30.0,43.0,1645104354.15625,P11,D04,1,1,1
1079,-36.0,-30.0,43.0,1645104354.1875,P11,D04,1,1,1
1080,-36.0,-30.0,43.0,1645104354.21875,P11,D04,1,1,1
1081,-36.0,-30.0,43.0,1645104354.25,P11,D04,1,1,1
1082,-36.0,-30.0,43.0,1645104354.28125,P11,D04,1,1,1
1083,-37.0,-30.0,43.0,1645104354.3125,P11,D04,1,1,1
1084,-37.0,-30.0,43.0,1645104354.34375,P11,D04,1,1,1
1085,-36.0,-30.0,43.0,1645104354.375,P11,D04,1,1,1
1086,-37.0,-30.0,43.0,1645104354.40625,P11,D04,1,1,1
1087,-37.0,-30.0,43.0,1645104354.4375,P11,D04,1,1,1
1088,-36.0,-30.0,43.0,1645104354.46875,P11,D04,1,1,1
1089,-37.0,-30.0,43.0,1645104354.5,P11,D04,1,1,1
1090,-37.0,-30.0,43.0,1645104354.53125,P11,D04,1,1,1
1091,-37.0,-30.0,43.0,1645104354.5625,P11,D04,1,1,1
1092,-37.0,-30.0,43.0,1645104354.59375,P11,D04,1,1,1
1093,-37.0,-30.0,43.0,1645104354.625,P11,D04,1,1,1
1094,-36.0,-30.0,43.0,1645104354.65625,P11,D04,1,1,1
1095,-36.0,-30.0,43.0,1645104354.6875,P11,D04,1,1,1
1096,-37.0,-30.0,43.0,1645104354.71875,P11,D04,1,1,1
1097,-36.0,-30.0,43.0,1645104354.75,P11,D04,1,1,1
1098,-36.0,-30.0,43.0,1645104354.78125,P11,D04,1,1,1
1099,-37.0,-30.0,43.0,1645104354.8125,P11,D04,1,1,1
1100,-37.0,-30.0,43.0,1645104354.84375,P11,D04,1,1,1
1101,-37.0,-30.0,43.0,1645104354.875,P11,D04,1,1,1
1102,-37.0,-30.0,43.0,1645104354.90625,P11,D04,1,1,1
1103,-37.0,-30.0,43.0,1645104354.9375,P11,D04,1,1,1
1104,-37.0,-30.0,43.0,1645104354.96875,P11,D04,1,1,1
1105,-37.0,-30.0,43.0,1645104355.0,P11,D04,1,1,1
1106,-37.0,-30.0,43.0,1645104355.03125,P11,D04,1,1,1
1107,-37.0,-30.0,43.0,1645104355.0625,P11,D04,1,1,1
1108,-36.0,-30.0,43.0,1645104355.09375,P11,D04,1,1,1
1109,-37.0,-30.0,43.0,1645104355.125,P11,D04,1,1,1
1110,-37.0,-30.0,43.0,1645104355.15625,P11,D04,1,1,1
1111,-36.0,-30.0,43.0,1645104355.1875,P11,D04,1,1,1
1112,-37.0,-30.0,43.0,1645104355.21875,P11,D04,1,1,1
1113,-37.0,-30.0,43.0,1645104355.25,P11,D04,1,1,1
1114,-37.0,-30.0,43.0,1645104355.28125,P11,D04,1,1,1
1115,-37.0,-30.0,43.0,1645104355.3125,P11,D04,1,1,1
1116,-37.0,-30.0,43.0,1645104355.34375,P11,D04,1,1,1
1117,-37.0,-30.0,43.0,1645104355.375,P11,D04,1,1,1
1118,-37.0,-30.0,43.0,1645104355.40625,P11,D04,1,1,1
1119,-37.0,-30.0,43.0,1645104355.4375,P11,D04,1,1,1
1120,-37.0,-30.0,43.0,1645104355.46875,P11,D04,1,1,1
1121,-37.0,-30.0,43.0,1645104355.5,P11,D04,1,1,1
1122,-37.0,-30.0,43.0,1645104355.53125,P11,D04,1,1,1
1123,-37.0,-30.0,43.0,1645104355.5625,P11,D04,1,1,1
1124,-37.0,-30.0,43.0,1645104355.59375,P11,D04,1,1,1
1125,-37.0,-30.0,43.0,1645104355.625,P11,D04,1,1,1
1126,-37.0,-30.0,43.0,1645104355.65625,P11,D04,1,1,1
1127,-37.0,-30.0,43.0,1645104355.6875,P11,D04,1,1,1
1128,-37.0,-30.0,43.0,1645104355.71875,P11,D04,1,1,1
1129,-37.0,-30.0,43.0,1645104355.75,P11,D04,1,1,1
1130,-37.0,-30.0,43.0,1645104355.78125,P11,D04,1,1,1
1131,-37.0,-30.0,43.0,1645104355.8125,P11,D04,1,1,1
1132,-36.0,-30.0,43.0,1645104355.84375,P11,D04,1,1,1
1133,-37.0,-30.0,43.0,1645104355.875,P11,D04,1,1,1
1134,-37.0,-30.0,43.0,1645104355.90625,P11,D04,1,1,1
1135,-37.0,-30.0,43.0,1645104355.9375,P11,D04,1,1,1
1136,-36.0,-30.0,43.0,1645104355.96875,P11,D04,1,1,1
1137,-37.0,-30.0,43.0,1645104356.0,P11,D04,1,1,1
1138,-37.0,-30.0,43.0,1645104356.03125,P11,D04,1,1,1
1139,-37.0,-30.0,43.0,1645104356.0625,P11,D04,1,1,1
1140,-36.0,-30.0,43.0,1645104356.09375,P11,D04,1,1,1
1141,-37.0,-30.0,43.0,1645104356.125,P11,D04,1,1,1
1142,-37.0,-30.0,43.0,1645104356.15625,P11,D04,1,1,1
1143,-37.0,-30.0,43.0,1645104356.1875,P11,D04,1,1,1
1144,-37.0,-30.0,43.0,1645104356.21875,P11,D04,1,1,1
1145,-37.0,-30.0,43.0,1645104356.25,P11,D04,1,1,1
1146,-37.0,-30.0,43.0,1645104356.28125,P11,D04,1,1,1
1147,-37.0,-30.0,43.0,1645104356.3125,P11,D04,1,1,1
1148,-37.0,-30.0,43.0,1645104356.34375,P11,D04,1,1,1
1149,-37.0,-30.0,43.0,1645104356.375,P11,D04,1,1,1
1150,-37.0,-30.0,43.0,1645104356.40625,P11,D04,1,1,1
1151,-37.0,-30.0,43.0,1645104356.4375,P11,D04,1,1,1
1152,-37.0,-30.0,43.0,1645104356.46875,P11,D04,1,1,1
1153,-36.0,-30.0,43.0,1645104356.5,P11,D04,1,1,1
1154,-37.0,-30.0,43.0,1645104356.53125,P11,D04,1,1,1
1155,-37.0,-30.0,43.0,1645104356.5625,P11,D04,1,1,1
1156,-37.0,-30.0,43.0,1645104356.59375,P11,D04,1,1,1
1157,-37.0,-30.0,43.0,1645104356.625,P11,D04,1,1,1
1158,-37.0,-30.0,43.0,1645104356.65625,P11,D04,1,1,1
1159,-37.0,-30.0,43.0,1645104356.6875,P11,D04,1,1,1
1160,-37.0,-30.0,43.0,1645104356.71875,P11,D04,1,1,1
1161,-37.0,-30.0,43.0,1645104356.75,P11,D04,1,1,1
1162,-37.0,-30.0,43.0,1645104356.78125,P11,D04,1,1,1
1163,-37.0,-30.0,43.0,1645104356.8125,P11,D04,1,1,1
1164,-37.0,-30.0,43.0,1645104356.84375,P11,D04,1,1,1
1165,-37.0,-30.0,43.0,1645104356.875,P11,D04,1,1,1
1166,-37.0,-30.0,43.0,1645104356.90625,P11,D04,1,1,1
1167,-37.0,-30.0,43.0,1645104356.9375,P11,D04,1,1,1
1168,-37.0,-30.0,43.0,1645104356.96875,P11,D04,1,1,1
1169,-37.0,-30.0,43.0,1645104357.0,P11,D04,1,1,1
1170,-36.0,-30.0,43.0,1645104357.03125,P11,D04,1,1,1
1171,-37.0,-30.0,43.0,1645104357.0625,P11,D04,1,1,1
1172,-37.0,-30.0,43.0,1645104357.09375,P11,D04,1,1,1
1173,-36.0,-30.0,43.0,1645104357.125,P11,D04,1,1,1
1174,-37.0,-30.0,43.0,1645104357.15625,P11,D04,1,1,1
1175,-36.0,-30.0,43.0,1645104357.1875,P11,D04,1,1,1
1176,-37.0,-30.0,43.0,1645104357.21875,P11,D04,1,1,1
1177,-37.0,-30.0,43.0,1645104357.25,P11,D04,1,1,1
1178,-37.0,-30.0,43.0,1645104357.28125,P11,D04,1,1,1
1179,-37.0,-30.0,43.0,1645104357.3125,P11,D04,1,1,1
1180,-37.0,-30.0,43.0,1645104357.34375,P11,D04,1,1,1
1181,-37.0,-30.0,43.0,1645104357.375,P11,D04,1,1,1
1182,-37.0,-30.0,43.0,1645104357.40625,P11,D04,1,1,1
1183,-37.0,-30.0,43.0,1645104357.4375,P11,D04,1,1,1
1184,-37.0,-30.0,43.0,1645104357.46875,P11,D04,1,1,1
1185,-37.0,-30.0,43.0,1645104357.5,P11,D04,1,1,1
1186,-37.0,-30.0,43.0,1645104357.53125,P11,D04,1,1,1
1187,-36.0,-30.0,43.0,1645104357.5625,P11,D04,1,1,1
1188,-37.0,-30.0,43.0,1645104357.59375,P11,D04,1,1,1
1189,-37.0,-30.0,43.0,1645104357.625,P11,D04,1,1,1
1190,-37.0,-30.0,43.0,1645104357.65625,P11,D04,1,1,1
1191,-37.0,-30.0,43.0,1645104357.6875,P11,D04,1,1,1
1192,-37.0,-30.0,43.0,1645104357.71875,P11,D04,1,1,1
1193,-37.0,-30.0,43.0,1645104357.75,P11,D04,1,1,1
1194,-36.0,-30.0,43.0,1645104357.78125,P11,D04,1,1,1
1195,-37.0,-30.0,43.0,1645104357.8125,P11,D04,1,1,1
1196,-37.0,-30.0,43.0,1645104357.84375,P11,D04,1,1,1
1197,-36.0,-30.0,43.0,1645104357.875,P11,D04,1,1,1
1198,-36.0,-30.0,43.0,1645104357.90625,P11,D04,1,1,1
1199,-37.0,-30.0,43.0,1645104357.9375,P11,D04,1,1,1
1200,-37.0,-30.0,43.0,1645104357.96875,P11,D04,1,1,1
1201,-37.0,-30.0,43.0,1645104358.0,P11,D04,1,1,1
1202,-37.0,-30.0,43.0,1645104358.03125,P11,D04,1,1,1
1203,-37.0,-30.0,43.0,1645104358.0625,P11,D04,1,1,1
1204,-37.0,-30.0,43.0,1645104358.09375,P11,D04,1,1,1
1205,-37.0,-30.0,43.0,1645104358.125,P11,D04,1,1,1
1206,-36.0,-30.0,43.0,1645104358.15625,P11,D04,1,1,1
1207,-37.0,-30.0,43.0,1645104358.1875,P11,D04,1,1,1
1208,-37.0,-30.0,43.0,1645104358.21875,P11,D04,1,1,1
1209,-37.0,-30.0,43.0,1645104358.25,P11,D04,1,1,1
1210,-37.0,-30.0,43.0,1645104358.28125,P11,D04,1,1,1
1211,-37.0,-30.0,43.0,1645104358.3125,P11,D04,1,1,1
1212,-37.0,-30.0,43.0,1645104358.34375,P11,D04,1,1,1
1213,-36.0,-30.0,43.0,1645104358.375,P11,D04,1,1,1
1214,-37.0,-30.0,43.0,1645104358.40625,P11,D04,1,1,1
1215,-36.0,-30.0,43.0,1645104358.4375,P11,D04,1,1,1
1216,-36.0,-30.0,43.0,1645104358.46875,P11,D04,1,1,1
1217,-37.0,-30.0,43.0,1645104358.5,P11,D04,1,1,1
1218,-36.0,-30.0,43.0,1645104358.53125,P11,D04,1,1,1
1219,-36.0,-30.0,43.0,1645104358.5625,P11,D04,1,1,1
1220,-37.0,-30.0,43.0,1645104358.59375,P11,D04,1,1,1
1221,-37.0,-30.0,43.0,1645104358.625,P11,D04,1,1,1
1222,-37.0,-30.0,43.0,1645104358.65625,P11,D04,1,1,1
1223,-37.0,-30.0,43.0,1645104358.6875,P11,D04,1,1,1
1224,-37.0,-30.0,43.0,1645104358.71875,P11,D04,1,1,1
1225,-37.0,-30.0,43.0,1645104358.75,P11,D04,1,1,1
1226,-36.0,-30.0,43.0,1645104358.78125,P11,D04,1,1,1
1227,-36.0,-30.0,43.0,1645104358.8125,P11,D04,1,1,1
1228,-37.0,-30.0,43.0,1645104358.84375,P11,D04,1,1,1
1229,-37.0,-30.0,43.0,1645104358.875,P11,D04,1,1,1
1230,-37.0,-30.0,43.0,1645104358.90625,P11,D04,1,1,1
1231,-37.0,-30.0,43.0,1645104358.9375,P11,D04,1,1,1
1232,-37.0,-30.0,43.0,1645104358.96875,P11,D04,1,1,1
1233,-37.0,-30.0,43.0,1645104359.0,P11,D04,1,1,1
1234,-37.0,-30.0,43.0,1645104359.03125,P11,D04,1,1,1
1235,-37.0,-30.0,43.0,1645104359.0625,P11,D04,1,1,1
1236,-37.0,-30.0,43.0,1645104359.09375,P11,D04,1,1,1
1237,-37.0,-30.0,43.0,1645104359.125,P11,D04,1,1,1
1238,-37.0,-30.0,43.0,1645104359.15625,P11,D04,1,1,1
1239,-37.0,-30.0,43.0,1645104359.1875,P11,D04,1,1,1
1240,-37.0,-30.0,43.0,1645104359.21875,P11,D04,1,1,1
1241,-37.0,-29.0,43.0,1645104359.25,P11,D04,1,1,1
1242,-37.0,-30.0,43.0,1645104359.28125,P11,D04,1,1,1
1243,-37.0,-30.0,43.0,1645104359.3125,P11,D04,1,1,1
1244,-37.0,-30.0,43.0,1645104359.34375,P11,D04,1,1,1
1245,-37.0,-30.0,43.0,1645104359.375,P11,D04,1,1,1
1246,-37.0,-30.0,43.0,1645104359.40625,P11,D04,1,1,1
1247,-37.0,-30.0,43.0,1645104359.4375,P11,D04,1,1,1
1248,-36.0,-30.0,43.0,1645104359.46875,P11,D04,1,1,1
1249,-37.0,-30.0,43.0,1645104359.5,P11,D04,1,1,1
1250,-37.0,-30.0,43.0,1645104359.53125,P11,D04,1,1,1
1251,-37.0,-30.0,43.0,1645104359.5625,P11,D04,1,1,1
1252,-37.0,-30.0,43.0,1645104359.59375,P11,D04,1,1,1
1253,-37.0,-30.0,43.0,1645104359.625,P11,D04,1,1,1
1254,-37.0,-30.0,43.0,1645104359.65625,P11,D04,1,1,1
1255,-37.0,-30.0,43.0,1645104359.6875,P11,D04,1,1,1
1256,-37.0,-30.0,43.0,1645104359.71875,P11,D04,1,1,1
1257,-37.0,-30.0,43.0,1645104359.75,P11,D04,1,1,1
1258,-37.0,-30.0,43.0,1645104359.78125,P11,D04,1,1,1
1259,-37.0,-30.0,43.0,1645104359.8125,P11,D04,1,1,1
1260,-37.0,-30.0,43.0,1645104359.84375,P11,D04,1,1,1
1261,-37.0,-30.0,43.0,1645104359.875,P11,D04,1,1,1
1262,-36.0,-30.0,43.0,1645104359.90625,P11,D04,1,1,1
1263,-37.0,-30.0,43.0,1645104359.9375,P11,D04,1,1,1
1264,-37.0,-30.0,43.0,1645104359.96875,P11,D04,1,1,1
1265,-37.0,-30.0,43.0,1645104360.0,P11,D04,1,1,1
1266,-37.0,-30.0,43.0,1645104360.03125,P11,D04,1,1,1
1267,-37.0,-30.0,43.0,1645104360.0625,P11,D04,1,1,1
1268,-36.0,-30.0,43.0,1645104360.09375,P11,D04,1,1,1
1269,-37.0,-30.0,43.0,1645104360.125,P11,D04,1,1,1
1270,-37.0,-30.0,43.0,1645104360.15625,P11,D04,1,1,1
1271,-37.0,-30.0,43.0,1645104360.1875,P11,D04,1,1,1
1272,-37.0,-30.0,43.0,1645104360.21875,P11,D04,1,1,1
1273,-37.0,-30.0,43.0,1645104360.25,P11,D04,1,1,1
1274,-37.0,-30.0,43.0,1645104360.28125,P11,D04,1,1,1
1275,-36.0,-30.0,43.0,1645104360.3125,P11,D04,1,1,1
1276,-36.0,-30.0,43.0,1645104360.34375,P11,D04,1,1,1
1277,-37.0,-30.0,43.0,1645104360.375,P11,D04,1,1,1
1278,-37.0,-30.0,43.0,1645104360.40625,P11,D04,1,1,1
1279,-37.0,-30.0,43.0,1645104360.4375,P11,D04,1,1,1
1280,-36.0,-30.0,43.0,1645104360.46875,P11,D04,1,1,1
1281,-37.0,-30.0,43.0,1645104360.5,P11,D04,1,1,1
1282,-37.0,-30.0,43.0,1645104360.53125,P11,D04,1,1,1
1283,-37.0,-30.0,43.0,1645104360.5625,P11,D04,1,1,1
1284,-37.0,-30.0,43.0,1645104360.59375,P11,D04,1,1,1
1285,-37.0,-30.0,43.0,1645104360.625,P11,D04,1,1,1
1286,-36.0,-30.0,43.0,1645104360.65625,P11,D04,1,1,1
1287,-37.0,-30.0,43.0,1645104360.6875,P11,D04,1,1,1
1288,-37.0,-30.0,43.0,1645104360.71875,P11,D04,1,1,1
1289,-37.0,-30.0,43.0,1645104360.75,P11,D04,1,1,1
1290,-37.0,-30.0,43.0,1645104360.78125,P11,D04,1,1,1
1291,-37.0,-30.0,43.0,1645104360.8125,P11,D04,1,1,1
1292,-37.0,-30.0,43.0,1645104360.84375,P11,D04,1,1,1
1293,-36.0,-30.0,43.0,1645104360.875,P11,D04,1,1,1
1294,-37.0,-30.0,43.0,1645104360.90625,P11,D04,1,1,1
1295,-37.0,-30.0,43.0,1645104360.9375,P11,D04,1,1,1
1296,-36.0,-30.0,43.0,1645104360.96875,P11,D04,1,1,1
1297,-37.0,-30.0,43.0,1645104361.0,P11,D04,1,1,1
1298,-36.0,-30.0,43.0,1645104361.03125,P11,D04,1,1,1
1299,-37.0,-30.0,43.0,1645104361.0625,P11,D04,1,1,1
1300,-37.0,-30.0,43.0,1645104361.09375,P11,D04,1,1,1
1301,-37.0,-30.0,43.0,1645104361.125,P11,D04,1,1,1
1302,-37.0,-30.0,43.0,1645104361.15625,P11,D04,1,1,1
1303,-37.0,-30.0,43.0,1645104361.1875,P11,D04,1,1,1
1304,-37.0,-30.0,43.0,1645104361.21875,P11,D04,1,1,1
1305,-37.0,-30.0,43.0,1645104361.25,P11,D04,1,1,1
1306,-37.0,-30.0,43.0,1645104361.28125,P11,D04,1,1,1
1307,-37.0,-30.0,43.0,1645104361.3125,P11,D04,1,1,1
1308,-37.0,-30.0,43.0,1645104361.34375,P11,D04,1,1,1
1309,-37.0,-30.0,43.0,1645104361.375,P11,D04,1,1,1
1310,-37.0,-30.0,43.0,1645104361.40625,P11,D04,1,1,1
1311,-37.0,-30.0,43.0,1645104361.4375,P11,D04,1,1,1
1312,-37.0,-30.0,43.0,1645104361.46875,P11,D04,1,1,1
1313,-37.0,-30.0,43.0,1645104361.5,P11,D04,1,1,1
1314,-37.0,-30.0,43.0,1645104361.53125,P11,D04,1,1,1
1315,-36.0,-30.0,43.0,1645104361.5625,P11,D04,1,1,1
1316,-37.0,-30.0,43.0,1645104361.59375,P11,D04,1,1,1
1317,-37.0,-30.0,43.0,1645104361.625,P11,D04,1,1,1
1318,-37.0,-30.0,43.0,1645104361.65625,P11,D04,1,1,1
1319,-37.0,-30.0,43.0,1645104361.6875,P11,D04,1,1,1
1320,-36.0,-30.0,43.0,1645104361.71875,P11,D04,1,1,1
1321,-37.0,-30.0,43.0,1645104361.75,P11,D04,1,1,1
1322,-36.0,-30.0,43.0,1645104361.78125,P11,D04,1,1,1
1323,-37.0,-30.0,43.0,1645104361.8125,P11,D04,1,1,1
1324,-37.0,-30.0,43.0,1645104361.84375,P11,D04,1,1,1
1325,-37.0,-30.0,43.0,1645104361.875,P11,D04,1,1,1
1326,-37.0,-30.0,43.0,1645104361.90625,P11,D04,1,1,1
1327,-37.0,-30.0,43.0,1645104361.9375,P11,D04,1,1,1
1328,-37.0,-30.0,43.0,1645104361.96875,P11,D04,1,1,1
1329,-36.0,-30.0,43.0,1645104362.0,P11,D04,1,1,1
1330,-37.0,-30.0,43.0,1645104362.03125,P11,D04,1,1,1
1331,-37.0,-30.0,43.0,1645104362.0625,P11,D04,1,1,1
1332,-36.0,-30.0,43.0,1645104362.09375,P11,D04,1,1,1
1333,-37.0,-30.0,43.0,1645104362.125,P11,D04,1,1,1
1334,-37.0,-30.0,43.0,1645104362.15625,P11,D04,1,1,1
1335,-37.0,-30.0,43.0,1645104362.1875,P11,D04,1,1,1
1336,-36.0,-30.0,43.0,1645104362.21875,P11,D04,1,1,1
1337,-37.0,-30.0,43.0,1645104362.25,P11,D04,1,1,1
1338,-37.0,-30.0,43.0,1645104362.28125,P11,D04,1,1,1
1339,-36.0,-30.0,43.0,1645104362.3125,P11,D04,1,1,1
1340,-37.0,-30.0,43.0,1645104362.34375,P11,D04,1,1,1
1341,-37.0,-30.0,43.0,1645104362.375,P11,D04,1,1,1
1342,-37.0,-30.0,43.0,1645104362.40625,P11,D04,1,1,1
1343,-36.0,-30.0,43.0,1645104362.4375,P11,D04,1,1,1
1344,-37.0,-30.0,43.0,1645104362.46875,P11,D04,1,1,1
1345,-36.0,-30.0,43.0,1645104362.5,P11,D04,1,1,1
1346,-37.0,-30.0,43.0,1645104362.53125,P11,D04,1,1,1
1347,-37.0,-30.0,43.0,1645104362.5625,P11,D04,1,1,1
1348,-37.0,-30.0,43.0,1645104362.59375,P11,D04,1,1,1
1349,-36.0,-30.0,43.0,1645104362.625,P11,D04,1,1,1
1350,-37.0,-30.0,43.0,1645104362.65625,P11,D04,1,1,1
1351,-37.0,-30.0,43.0,1645104362.6875,P11,D04,1,1,1
1352,-37.0,-30.0,43.0,1645104362.71875,P11,D04,1,1,1
1353,-37.0,-30.0,43.0,1645104362.75,P11,D04,1,1,1
1354,-37.0,-30.0,43.0,1645104362.78125,P11,D04,1,1,1
1355,-36.0,-30.0,43.0,1645104362.8125,P11,D04,1,1,1
1356,-37.0,-30.0,43.0,1645104362.84375,P11,D04,1,1,1
1357,-36.0,-29.0,43.0,1645104362.875,P11,D04,1,1,1
1358,-37.0,-30.0,43.0,1645104362.90625,P11,D04,1,1,1
1359,-37.0,-30.0,43.0,1645104362.9375,P11,D04,1,1,1
1360,-37.0,-30.0,43.0,1645104362.96875,P11,D04,1,1,1
1361,-37.0,-30.0,43.0,1645104363.0,P11,D04,1,1,1
1362,-37.0,-30.0,43.0,1645104363.03125,P11,D04,1,1,1
1363,-37.0,-30.0,43.0,1645104363.0625,P11,D04,1,1,1
1364,-37.0,-30.0,43.0,1645104363.09375,P11,D04,1,1,1
1365,-36.0,-30.0,43.0,1645104363.125,P11,D04,1,1,1
1366,-36.0,-30.0,43.0,1645104363.15625,P11,D04,1,1,1
1367,-37.0,-30.0,43.0,1645104363.1875,P11,D04,1,1,1
1368,-37.0,-30.0,43.0,1645104363.21875,P11,D04,1,1,1
1369,-37.0,-30.0,43.0,1645104363.25,P11,D04,1,1,1
1370,-37.0,-30.0,43.0,1645104363.28125,P11,D04,1,1,1
1371,-37.0,-30.0,43.0,1645104363.3125,P11,D04,1,1,1
1372,-36.0,-30.0,43.0,1645104363.34375,P11,D04,1,1,1
1373,-36.0,-30.0,43.0,1645104363.375,P11,D04,1,1,1
1374,-37.0,-30.0,43.0,1645104363.40625,P11,D04,1,1,1
1375,-36.0,-30.0,43.0,1645104363.4375,P11,D04,1,1,1
1376,-37.0,-30.0,43.0,1645104363.46875,P11,D04,1,1,1
1377,-37.0,-30.0,43.0,1645104363.5,P11,D04,1,1,1
1378,-36.0,-30.0,43.0,1645104363.53125,P11,D04,1,1,1
1379,-36.0,-30.0,43.0,1645104363.5625,P11,D04,1,1,1
1380,-36.0,-30.0,43.0,1645104363.59375,P11,D04,1,1,1
1381,-37.0,-30.0,43.0,1645104363.625,P11,D04,1,1,1
1382,-37.0,-30.0,43.0,1645104363.65625,P11,D04,1,1,1
1383,-37.0,-30.0,43.0,1645104363.6875,P11,D04,1,1,1
1384,-36.0,-30.0,43.0,1645104363.71875,P11,D04,1,1,1
1385,-37.0,-30.0,43.0,1645104363.75,P11,D04,1,1,1
1386,-37.0,-30.0,43.0,1645104363.78125,P11,D04,1,1,1
1387,-36.0,-30.0,43.0,1645104363.8125,P11,D04,1,1,1
1388,-36.0,-30.0,43.0,1645104363.84375,P11,D04,1,1,1
1389,-37.0,-30.0,43.0,1645104363.875,P11,D04,1,1,1
1390,-37.0,-30.0,43.0,1645104363.90625,P11,D04,1,1,1
1391,-36.0,-30.0,43.0,1645104363.9375,P11,D04,1,1,1
1392,-37.0,-30.0,43.0,1645104363.96875,P11,D04,1,1,1
1393,-37.0,-30.0,43.0,1645104364.0,P11,D04,1,1,1
1394,-36.0,-30.0,43.0,1645104364.03125,P11,D04,1,1,1
1395,-37.0,-30.0,43.0,1645104364.0625,P11,D04,1,1,1
1396,-37.0,-30.0,43.0,1645104364.09375,P11,D04,1,1,1
1397,-37.0,-30.0,43.0,1645104364.125,P11,D04,1,1,1
1398,-37.0,-30.0,43.0,1645104364.15625,P11,D04,1,1,1
1399,-37.0,-30.0,43.0,1645104364.1875,P11,D04,1,1,1
1400,-37.0,-30.0,43.0,1645104364.21875,P11,D04,1,1,1
1401,-37.0,-30.0,43.0,1645104364.25,P11,D04,1,1,1
1402,-37.0,-30.0,43.0,1645104364.28125,P11,D04,1,1,1
1403,-37.0,-30.0,43.0,1645104364.3125,P11,D04,1,1,1
1404,-36.0,-30.0,43.0,1645104364.34375,P11,D04,1,1,1
1405,-37.0,-30.0,43.0,1645104364.375,P11,D04,1,1,1
1406,-37.0,-30.0,43.0,1645104364.40625,P11,D04,1,1,1
1407,-36.0,-30.0,43.0,1645104364.4375,P11,D04,1,1,1
1408,-37.0,-30.0,43.0,1645104364.46875,P11,D04,1,1,1
1409,-36.0,-30.0,43.0,1645104364.5,P11,D04,1,1,1
1410,-37.0,-30.0,43.0,1645104364.53125,P11,D04,1,1,1
1411,-37.0,-30.0,43.0,1645104364.5625,P11,D04,1,1,1
1412,-37.0,-30.0,43.0,1645104364.59375,P11,D04,1,1,1
1413,-36.0,-30.0,43.0,1645104364.625,P11,D04,1,1,1
1414,-36.0,-30.0,43.0,1645104364.65625,P11,D04,1,1,1
1415,-37.0,-30.0,43.0,1645104364.6875,P11,D04,1,1,1
1416,-37.0,-30.0,43.0,1645104364.71875,P11,D04,1,1,1
1417,-37.0,-30.0,43.0,1645104364.75,P11,D04,1,1,1
1418,-37.0,-30.0,43.0,1645104364.78125,P11,D04,1,1,1
1419,-37.0,-30.0,43.0,1645104364.8125,P11,D04,1,1,1
1420,-37.0,-30.0,43.0,1645104364.84375,P11,D04,1,1,1
1421,-37.0,-30.0,43.0,1645104364.875,P11,D04,1,1,1
1422,-37.0,-30.0,43.0,1645104364.90625,P11,D04,1,1,1
1423,-36.0,-30.0,43.0,1645104364.9375,P11,D04,1,1,1
1424,-37.0,-30.0,43.0,1645104364.96875,P11,D04,1,1,1
1425,-36.0,-30.0,43.0,1645104365.0,P11,D04,1,1,1
1426,-36.0,-29.0,43.0,1645104365.03125,P11,D04,1,1,1
1427,-37.0,-30.0,43.0,1645104365.0625,P11,D04,1,1,1
1428,-37.0,-30.0,43.0,1645104365.09375,P11,D04,1,1,1
1429,-36.0,-30.0,43.0,1645104365.125,P11,D04,1,1,1
1430,-37.0,-30.0,43.0,1645104365.15625,P11,D04,1,1,1
1431,-37.0,-30.0,43.0,1645104365.1875,P11,D04,1,1,1
1432,-37.0,-30.0,43.0,1645104365.21875,P11,D04,1,1,1
1433,-36.0,-30.0,43.0,1645104365.25,P11,D04,1,1,1
1434,-36.0,-30.0,43.0,1645104365.28125,P11,D04,1,1,1
1435,-37.0,-30.0,43.0,1645104365.3125,P11,D04,1,1,1
1436,-36.0,-30.0,43.0,1645104365.34375,P11,D04,1,1,1
1437,-36.0,-30.0,43.0,1645104365.375,P11,D04,1,1,1
1438,-37.0,-30.0,43.0,1645104365.40625,P11,D04,1,1,1
1439,-37.0,-30.0,43.0,1645104365.4375,P11,D04,1,1,1
1440,-36.0,-30.0,43.0,1645104365.46875,P11,D04,1,1,1
1441,-37.0,-30.0,43.0,1645104365.5,P11,D04,1,1,1
1442,-36.0,-30.0,43.0,1645104365.53125,P11,D04,1,1,1
1443,-37.0,-30.0,43.0,1645104365.5625,P11,D04,1,1,1
1444,-37.0,-30.0,43.0,1645104365.59375,P11,D04,1,1,1
1445,-37.0,-30.0,43.0,1645104365.625,P11,D04,1,1,1
1446,-37.0,-30.0,43.0,1645104365.65625,P11,D04,1,1,1
1447,-36.0,-30.0,43.0,1645104365.6875,P11,D04,1,1,1
1448,-37.0,-30.0,43.0,1645104365.71875,P11,D04,1,1,1
1449,-37.0,-30.0,43.0,1645104365.75,P11,D04,1,1,1
1450,-37.0,-30.0,43.0,1645104365.78125,P11,D04,1,1,1
1451,-36.0,-30.0,43.0,1645104365.8125,P11,D04,1,1,1
1452,-36.0,-30.0,43.0,1645104365.84375,P11,D04,1,1,1
1453,-37.0,-30.0,43.0,1645104365.875,P11,D04,1,1,1
1454,-36.0,-30.0,43.0,1645104365.90625,P11,D04,1,1,1
1455,-36.0,-30.0,43.0,1645104365.9375,P11,D04,1,1,1
1456,-37.0,-30.0,43.0,1645104365.96875,P11,D04,1,1,1
1457,-37.0,-30.0,43.0,1645104366.0,P11,D04,1,1,1
1458,-37.0,-30.0,43.0,1645104366.03125,P11,D04,1,1,1
1459,-37.0,-30.0,43.0,1645104366.0625,P11,D04,1,1,1
1460,-37.0,-30.0,43.0,1645104366.09375,P11,D04,1,1,1
1461,-36.0,-30.0,43.0,1645104366.125,P11,D04,1,1,1
1462,-36.0,-30.0,43.0,1645104366.15625,P11,D04,1,1,1
1463,-36.0,-30.0,43.0,1645104366.1875,P11,D04,1,1,1
1464,-36.0,-30.0,43.0,1645104366.21875,P11,D04,1,1,1
1465,-36.0,-30.0,43.0,1645104366.25,P11,D04,1,1,1
1466,-37.0,-30.0,43.0,1645104366.28125,P11,D04,1,1,1
1467,-37.0,-30.0,43.0,1645104366.3125,P11,D04,1,1,1
1468,-37.0,-30.0,43.0,1645104366.34375,P11,D04,1,1,1
1469,-37.0,-30.0,43.0,1645104366.375,P11,D04,1,1,1
1470,-36.0,-29.0,43.0,1645104366.40625,P11,D04,1,1,1
1471,-36.0,-30.0,43.0,1645104366.4375,P11,D04,1,1,1
1472,-36.0,-30.0,43.0,1645104366.46875,P11,D04,1,1,1
1473,-37.0,-29.0,43.0,1645104366.5,P11,D04,1,1,1
1474,-36.0,-29.0,43.0,1645104366.53125,P11,D04,1,1,1
1475,-36.0,-30.0,43.0,1645104366.5625,P11,D04,1,1,1
1476,-37.0,-30.0,43.0,1645104366.59375,P11,D04,1,1,1
1477,-37.0,-30.0,43.0,1645104366.625,P11,D04,1,1,1
1478,-36.0,-30.0,43.0,1645104366.65625,P11,D04,1,1,1
1479,-37.0,-30.0,43.0,1645104366.6875,P11,D04,1,1,1
1480,-37.0,-30.0,43.0,1645104366.71875,P11,D04,1,1,1
1481,-37.0,-31.0,42.0,1645104366.75,P11,D04,1,1,1
1482,-37.0,-30.0,42.0,1645104366.78125,P11,D04,1,1,1
1483,-37.0,-31.0,42.0,1645104366.8125,P11,D04,1,1,1
1484,-37.0,-31.0,42.0,1645104366.84375,P11,D04,1,1,1
1485,-37.0,-31.0,42.0,1645104366.875,P11,D04,1,1,1
1486,-37.0,-31.0,42.0,1645104366.90625,P11,D04,1,1,1
1487,-37.0,-30.0,42.0,1645104366.9375,P11,D04,1,1,1
1488,-37.0,-30.0,42.0,1645104366.96875,P11,D04,1,1,1
1489,-38.0,-30.0,42.0,1645104367.0,P11,D04,1,1,1
1490,-36.0,-29.0,43.0,1645104367.03125,P11,D04,1,1,1
1491,-37.0,-30.0,43.0,1645104367.0625,P11,D04,1,1,1
1492,-38.0,-29.0,42.0,1645104367.09375,P11,D04,1,1,1
1493,-37.0,-30.0,44.0,1645104367.125,P11,D04,1,1,1
1494,-36.0,-29.0,43.0,1645104367.15625,P11,D04,1,1,1
1495,-36.0,-29.0,43.0,1645104367.1875,P11,D04,1,1,1
1496,-38.0,-30.0,43.0,1645104367.21875,P11,D04,1,1,1
1497,-38.0,-30.0,43.0,1645104367.25,P11,D04,1,1,1
1498,-35.0,-29.0,43.0,1645104367.28125,P11,D04,1,1,1
1499,-37.0,-29.0,43.0,1645104367.3125,P11,D04,1,1,1
1500,-37.0,-29.0,42.0,1645104367.34375,P11,D04,1,1,1
1501,-37.0,-29.0,43.0,1645104367.375,P11,D04,1,1,1
1502,-37.0,-29.0,43.0,1645104367.40625,P11,D04,1,1,1
1503,-37.0,-29.0,43.0,1645104367.4375,P11,D04,1,1,1
1504,-37.0,-29.0,43.0,1645104367.46875,P11,D04,1,1,1
1505,-37.0,-29.0,43.0,1645104367.5,P11,D04,1,1,1
1506,-37.0,-29.0,43.0,1645104367.53125,P11,D04,1,1,1
1507,-37.0,-30.0,43.0,1645104367.5625,P11,D04,1,1,1
1508,-37.0,-29.0,43.0,1645104367.59375,P11,D04,1,1,1
1509,-37.0,-29.0,43.0,1645104367.625,P11,D04,1,1,1
1510,-37.0,-29.0,43.0,1645104367.65625,P11,D04,1,1,1
1511,-37.0,-29.0,43.0,1645104367.6875,P11,D04,1,1,1
1512,-37.0,-29.0,43.0,1645104367.71875,P11,D04,1,1,1
1513,-37.0,-29.0,43.0,1645104367.75,P11,D04,1,1,1
1514,-38.0,-29.0,42.0,1645104367.78125,P11,D04,1,1,1
1515,-37.0,-29.0,43.0,1645104367.8125,P11,D04,1,1,1
1516,-37.0,-28.0,43.0,1645104367.84375,P11,D04,1,1,1
1517,-37.0,-29.0,43.0,1645104367.875,P11,D04,1,1,1
1518,-37.0,-29.0,43.0,1645104367.90625,P11,D04,1,1,1
1519,-37.0,-29.0,43.0,1645104367.9375,P11,D04,1,1,1
1520,-37.0,-29.0,43.0,1645104367.96875,P11,D04,1,1,1
1521,-37.0,-28.0,43.0,1645104368.0,P11,D04,1,1,1
1522,-37.0,-29.0,43.0,1645104368.03125,P11,D04,1,1,1
1523,-37.0,-29.0,43.0,1645104368.0625,P11,D04,1,1,1
1524,-37.0,-28.0,43.0,1645104368.09375,P11,D04,1,1,1
1525,-37.0,-28.0,43.0,1645104368.125,P11,D04,1,1,1
1526,-37.0,-28.0,43.0,1645104368.15625,P11,D04,1,1,1
1527,-37.0,-29.0,43.0,1645104368.1875,P11,D04,1,1,1
1528,-37.0,-29.0,43.0,1645104368.21875,P11,D04,1,1,1
1529,-37.0,-28.0,43.0,1645104368.25,P11,D04,1,1,1
1530,-37.0,-29.0,43.0,1645104368.28125,P11,D04,1,1,1
1531,-37.0,-29.0,43.0,1645104368.3125,P11,D04,1,1,1
1532,-37.0,-29.0,43.0,1645104368.34375,P11,D04,1,1,1
1533,-37.0,-29.0,43.0,1645104368.375,P11,D04,1,1,1
1534,-37.0,-29.0,43.0,1645104368.40625,P11,D04,1,1,1
1535,-37.0,-29.0,43.0,1645104368.4375,P11,D04,1,1,1
1536,-37.0,-29.0,43.0,1645104368.46875,P11,D04,1,1,1
1537,-37.0,-29.0,43.0,1645104368.5,P11,D04,1,1,1
1538,-37.0,-29.0,43.0,1645104368.53125,P11,D04,1,1,1
1539,-37.0,-29.0,43.0,1645104368.5625,P11,D04,1,1,1
1540,-37.0,-29.0,43.0,1645104368.59375,P11,D04,1,1,1
1541,-37.0,-29.0,43.0,1645104368.625,P11,D04,1,1,1
1542,-37.0,-29.0,43.0,1645104368.65625,P11,D04,1,1,1
1543,-37.0,-29.0,43.0,1645104368.6875,P11,D04,1,1,1
1544,-37.0,-29.0,43.0,1645104368.71875,P11,D04,1,1,1
1545,-37.0,-29.0,43.0,1645104368.75,P11,D04,1,1,1
1546,-37.0,-29.0,43.0,1645104368.78125,P11,D04,1,1,1
1547,-37.0,-29.0,43.0,1645104368.8125,P11,D04,1,1,1
1548,-37.0,-29.0,43.0,1645104368.84375,P11,D04,1,1,1
1549,-37.0,-29.0,43.0,1645104368.875,P11,D04,1,1,1
1550,-37.0,-29.0,43.0,1645104368.90625,P11,D04,1,1,1
1551,-37.0,-29.0,43.0,1645104368.9375,P11,D04,1,1,1
1552,-37.0,-29.0,43.0,1645104368.96875,P11,D04,1,1,1
1553,-37.0,-29.0,43.0,1645104369.0,P11,D04,1,1,1
1554,-37.0,-30.0,43.0,1645104369.03125,P11,D04,1,1,1
1555,-37.0,-29.0,43.0,1645104369.0625,P11,D04,1,1,1
1556,-37.0,-30.0,43.0,1645104369.09375,P11,D04,1,1,1
1557,-37.0,-30.0,43.0,1645104369.125,P11,D04,1,1,1
1558,-37.0,-30.0,43.0,1645104369.15625,P11,D04,1,1,1
1559,-37.0,-30.0,43.0,1645104369.1875,P11,D04,1,1,1
1560,-37.0,-30.0,43.0,1645104369.21875,P11,D04,1,1,1
1561,-37.0,-30.0,43.0,1645104369.25,P11,D04,1,1,1
1562,-37.0,-30.0,43.0,1645104369.28125,P11,D04,1,1,1
1563,-37.0,-30.0,43.0,1645104369.3125,P11,D04,1,1,1
1564,-37.0,-29.0,43.0,1645104369.34375,P11,D04,1,1,1
1565,-37.0,-30.0,43.0,1645104369.375,P11,D04,1,1,1
1566,-37.0,-29.0,43.0,1645104369.40625,P11,D04,1,1,1
1567,-37.0,-29.0,43.0,1645104369.4375,P11,D04,1,1,1
1568,-37.0,-30.0,43.0,1645104369.46875,P11,D04,1,1,1
1569,-37.0,-30.0,43.0,1645104369.5,P11,D04,1,1,1
1570,-37.0,-30.0,43.0,1645104369.53125,P11,D04,1,1,1
1571,-37.0,-29.0,43.0,1645104369.5625,P11,D04,1,1,1
1572,-37.0,-30.0,43.0,1645104369.59375,P11,D04,1,1,1
1573,-37.0,-30.0,43.0,1645104369.625,P11,D04,1,1,1
1574,-37.0,-30.0,43.0,1645104369.65625,P11,D04,1,1,1
1575,-37.0,-30.0,42.0,1645104369.6875,P11,D04,1,1,1
1576,-37.0,-30.0,43.0,1645104369.71875,P11,D04,1,1,1
1577,-37.0,-30.0,43.0,1645104369.75,P11,D04,1,1,1
1578,-37.0,-30.0,43.0,1645104369.78125,P11,D04,1,1,1
1579,-37.0,-30.0,43.0,1645104369.8125,P11,D04,1,1,1
1580,-37.0,-30.0,43.0,1645104369.84375,P11,D04,1,1,1
1581,-37.0,-30.0,43.0,1645104369.875,P11,D04,1,1,1
1582,-37.0,-30.0,43.0,1645104369.90625,P11,D04,1,1,1
1583,-37.0,-30.0,43.0,1645104369.9375,P11,D04,1,1,1
1584,-37.0,-30.0,43.0,1645104369.96875,P11,D04,1,1,1
1585,-37.0,-30.0,43.0,1645104370.0,P11,D04,1,1,1
1586,-37.0,-30.0,43.0,1645104370.03125,P11,D04,1,1,1
1587,-37.0,-30.0,43.0,1645104370.0625,P11,D04,1,1,1
1588,-37.0,-30.0,43.0,1645104370.09375,P11,D04,1,1,1
1589,-37.0,-30.0,43.0,1645104370.125,P11,D04,1,1,1
1590,-37.0,-30.0,43.0,1645104370.15625,P11,D04,1,1,1
1591,-37.0,-30.0,43.0,1645104370.1875,P11,D04,1,1,1
1592,-37.0,-30.0,43.0,1645104370.21875,P11,D04,1,1,1
1593,-37.0,-30.0,43.0,1645104370.25,P11,D04,1,1,1
1594,-37.0,-30.0,43.0,1645104370.28125,P11,D04,1,1,1
1595,-37.0,-30.0,43.0,1645104370.3125,P11,D04,1,1,1
1596,-37.0,-30.0,43.0,1645104370.34375,P11,D04,1,1,1
1597,-37.0,-30.0,43.0,1645104370.375,P11,D04,1,1,1
1598,-37.0,-30.0,43.0,1645104370.40625,P11,D04,1,1,1
1599,-37.0,-30.0,43.0,1645104370.4375,P11,D04,1,1,1
1600,-37.0,-30.0,43.0,1645104370.46875,P11,D04,1,1,1
1601,-37.0,-30.0,43.0,1645104370.5,P11,D04,1,1,1
1602,-37.0,-30.0,43.0,1645104370.53125,P11,D04,1,1,1
1603,-37.0,-30.0,42.0,1645104370.5625,P11,D04,1,1,1
1604,-37.0,-30.0,43.0,1645104370.59375,P11,D04,1,1,1
1605,-37.0,-30.0,43.0,1645104370.625,P11,D04,1,1,1
1606,-37.0,-30.0,43.0,1645104370.65625,P11,D04,1,1,1
1607,-37.0,-30.0,43.0,1645104370.6875,P11,D04,1,1,1
1608,-37.0,-30.0,43.0,1645104370.71875,P11,D04,1,1,1
1609,-37.0,-30.0,43.0,1645104370.75,P11,D04,1,1,1
1610,-37.0,-30.0,43.0,1645104370.78125,P11,D04,1,1,1
1611,-37.0,-30.0,43.0,1645104370.8125,P11,D04,1,1,1
1612,-37.0,-30.0,43.0,1645104370.84375,P11,D04,1,1,1
1613,-37.0,-30.0,43.0,1645104370.875,P11,D04,1,1,1
1614,-37.0,-30.0,42.0,1645104370.90625,P11,D04,1,1,1
1615,-37.0,-30.0,43.0,1645104370.9375,P11,D04,1,1,1
1616,-37.0,-30.0,43.0,1645104370.96875,P11,D04,1,1,1
1617,-37.0,-30.0,42.0,1645104371.0,P11,D04,1,1,1
1618,-37.0,-30.0,43.0,1645104371.03125,P11,D04,1,1,1
1619,-37.0,-30.0,43.0,1645104371.0625,P11,D04,1,1,1
1620,-37.0,-30.0,43.0,1645104371.09375,P11,D04,1,1,1
1621,-37.0,-30.0,43.0,1645104371.125,P11,D04,1,1,1
1622,-37.0,-30.0,43.0,1645104371.15625,P11,D04,1,1,1
1623,-37.0,-30.0,43.0,1645104371.1875,P11,D04,1,1,1
1624,-37.0,-30.0,43.0,1645104371.21875,P11,D04,1,1,1
1625,-37.0,-30.0,43.0,1645104371.25,P11,D04,1,1,1
1626,-37.0,-30.0,43.0,1645104371.28125,P11,D04,1,1,1
1627,-37.0,-30.0,43.0,1645104371.3125,P11,D04,1,1,1
1628,-37.0,-30.0,43.0,1645104371.34375,P11,D04,1,1,1
1629,-37.0,-30.0,42.0,1645104371.375,P11,D04,1,1,1
1630,-37.0,-30.0,42.0,1645104371.40625,P11,D04,1,1,1
1631,-37.0,-30.0,43.0,1645104371.4375,P11,D04,1,1,1
1632,-37.0,-30.0,43.0,1645104371.46875,P11,D04,1,1,1
1633,-37.0,-30.0,43.0,1645104371.5,P11,D04,1,1,1
1634,-37.0,-30.0,43.0,1645104371.53125,P11,D04,1,1,1
1635,-37.0,-30.0,43.0,1645104371.5625,P11,D04,1,1,1
1636,-37.0,-30.0,43.0,1645104371.59375,P11,D04,1,1,1
1637,-37.0,-30.0,43.0,1645104371.625,P11,D04,1,1,1
1638,-37.0,-30.0,43.0,1645104371.65625,P11,D04,1,1,1
1639,-37.0,-30.0,42.0,1645104371.6875,P11,D04,1,1,1
1640,-37.0,-30.0,42.0,1645104371.71875,P11,D04,1,1,1
1641,-37.0,-30.0,43.0,1645104371.75,P11,D04,1,1,1
1642,-37.0,-30.0,42.0,1645104371.78125,P11,D04,1,1,1
1643,-37.0,-30.0,43.0,1645104371.8125,P11,D04,1,1,1
1644,-37.0,-30.0,43.0,1645104371.84375,P11,D04,1,1,1
1645,-37.0,-30.0,42.0,1645104371.875,P11,D04,1,1,1
1646,-37.0,-30.0,43.0,1645104371.90625,P11,D04,1,1,1
1647,-37.0,-30.0,43.0,1645104371.9375,P11,D04,1,1,1
1648,-37.0,-30.0,43.0,1645104371.96875,P11,D04,1,1,1
1649,-37.0,-30.0,43.0,1645104372.0,P11,D04,1,1,1
1650,-37.0,-30.0,43.0,1645104372.03125,P11,D04,1,1,1
1651,-37.0,-30.0,43.0,1645104372.0625,P11,D04,1,1,1
1652,-37.0,-30.0,43.0,1645104372.09375,P11,D04,1,1,1
1653,-37.0,-30.0,42.0,1645104372.125,P11,D04,1,1,1
1654,-37.0,-30.0,42.0,1645104372.15625,P11,D04,1,1,1
1655,-37.0,-30.0,42.0,1645104372.1875,P11,D04,1,1,1
1656,-37.0,-30.0,42.0,1645104372.21875,P11,D04,1,1,1
1657,-37.0,-30.0,43.0,1645104372.25,P11,D04,1,1,1
1658,-37.0,-30.0,43.0,1645104372.28125,P11,D04,1,1,1
1659,-37.0,-30.0,43.0,1645104372.3125,P11,D04,1,1,1
1660,-37.0,-30.0,43.0,1645104372.34375,P11,D04,1,1,1
1661,-37.0,-30.0,43.0,1645104372.375,P11,D04,1,1,1
1662,-37.0,-30.0,42.0,1645104372.40625,P11,D04,1,1,1
1663,-37.0,-30.0,43.0,1645104372.4375,P11,D04,1,1,1
1664,-37.0,-30.0,43.0,1645104372.46875,P11,D04,1,1,1
1665,-37.0,-30.0,43.0,1645104372.5,P11,D04,1,1,1
1666,-37.0,-30.0,43.0,1645104372.53125,P11,D04,1,1,1
1667,-37.0,-30.0,42.0,1645104372.5625,P11,D04,1,1,1
1668,-37.0,-30.0,43.0,1645104372.59375,P11,D04,1,1,1
1669,-37.0,-30.0,43.0,1645104372.625,P11,D04,1,1,1
1670,-37.0,-30.0,43.0,1645104372.65625,P11,D04,1,1,1
1671,-37.0,-30.0,42.0,1645104372.6875,P11,D04,1,1,1
1672,-37.0,-30.0,43.0,1645104372.71875,P11,D04,1,1,1
1673,-37.0,-30.0,43.0,1645104372.75,P11,D04,1,1,1
1674,-37.0,-30.0,43.0,1645104372.78125,P11,D04,1,1,1
1675,-37.0,-30.0,43.0,1645104372.8125,P11,D04,1,1,1
1676,-37.0,-30.0,43.0,1645104372.84375,P11,D04,1,1,1
1677,-37.0,-30.0,43.0,1645104372.875,P11,D04,1,1,1
1678,-37.0,-30.0,42.0,1645104372.90625,P11,D04,1,1,1
1679,-37.0,-30.0,43.0,1645104372.9375,P11,D04,1,1,1
1680,-37.0,-30.0,43.0,1645104372.96875,P11,D04,1,1,1
1681,-37.0,-30.0,43.0,1645104373.0,P11,D04,1,1,1
1682,-37.0,-30.0,43.0,1645104373.03125,P11,D04,1,1,1
1683,-37.0,-30.0,43.0,1645104373.0625,P11,D04,1,1,1
1684,-37.0,-30.0,43.0,1645104373.09375,P11,D04,1,1,1
1685,-37.0,-30.0,43.0,1645104373.125,P11,D04,1,1,1
1686,-37.0,-30.0,43.0,1645104373.15625,P11,D04,1,1,1
1687,-37.0,-30.0,43.0,1645104373.1875,P11,D04,1,1,1
1688,-37.0,-30.0,43.0,1645104373.21875,P11,D04,1,1,1
1689,-37.0,-30.0,43.0,1645104373.25,P11,D04,1,1,1
1690,-37.0,-30.0,43.0,1645104373.28125,P11,D04,1,1,1
1691,-37.0,-30.0,43.0,1645104373.3125,P11,D04,1,1,1
1692,-37.0,-30.0,42.0,1645104373.34375,P11,D04,1,1,1
1693,-37.0,-30.0,43.0,1645104373.375,P11,D04,1,1,1
1694,-37.0,-30.0,43.0,1645104373.40625,P11,D04,1,1,1
1695,-37.0,-30.0,43.0,1645104373.4375,P11,D04,1,1,1
1696,-37.0,-30.0,43.0,1645104373.46875,P11,D04,1,1,1
1697,-37.0,-30.0,43.0,1645104373.5,P11,D04,1,1,1
1698,-37.0,-30.0,43.0,1645104373.53125,P11,D04,1,1,1
1699,-37.0,-30.0,42.0,1645104373.5625,P11,D04,1,1,1
1700,-37.0,-30.0,42.0,1645104373.59375,P11,D04,1,1,1
1701,-37.0,-30.0,43.0,1645104373.625,P11,D04,1,1,1
1702,-37.0,-30.0,42.0,1645104373.65625,P11,D04,1,1,1
1703,-37.0,-30.0,43.0,1645104373.6875,P11,D04,1,1,1
1704,-37.0,-30.0,43.0,1645104373.71875,P11,D04,1,1,1
1705,-37.0,-30.0,43.0,1645104373.75,P11,D04,1,1,1
1706,-37.0,-30.0,42.0,1645104373.78125,P11,D04,1,1,1
1707,-37.0,-30.0,42.0,1645104373.8125,P11,D04,1,1,1
1708,-37.0,-30.0,43.0,1645104373.84375,P11,D04,1,1,1
1709,-37.0,-30.0,42.0,1645104373.875,P11,D04,1,1,1
1710,-37.0,-30.0,43.0,1645104373.90625,P11,D04,1,1,1
1711,-37.0,-30.0,43.0,1645104373.9375,P11,D04,1,1,1
1712,-37.0,-30.0,43.0,1645104373.96875,P11,D04,1,1,1
1713,-37.0,-30.0,43.0,1645104374.0,P11,D04,1,1,1
1714,-37.0,-30.0,42.0,1645104374.03125,P11,D04,1,1,1
1715,-37.0,-30.0,43.0,1645104374.0625,P11,D04,1,1,1
1716,-37.0,-30.0,42.0,1645104374.09375,P11,D04,1,1,1
1717,-37.0,-30.0,43.0,1645104374.125,P11,D04,1,1,1
1718,-37.0,-30.0,43.0,1645104374.15625,P11,D04,1,1,1
1719,-37.0,-30.0,43.0,1645104374.1875,P11,D04,1,1,1
1720,-37.0,-30.0,42.0,1645104374.21875,P11,D04,1,1,1
1721,-37.0,-30.0,42.0,1645104374.25,P11,D04,1,1,1
1722,-37.0,-30.0,43.0,1645104374.28125,P11,D04,1,1,1
1723,-37.0,-30.0,43.0,1645104374.3125,P11,D04,1,1,1
1724,-37.0,-30.0,43.0,1645104374.34375,P11,D04,1,1,1
1725,-37.0,-30.0,42.0,1645104374.375,P11,D04,1,1,1
1726,-37.0,-30.0,42.0,1645104374.40625,P11,D04,1,1,1
1727,-37.0,-30.0,43.0,1645104374.4375,P11,D04,1,1,1
1728,-37.0,-30.0,42.0,1645104374.46875,P11,D04,1,1,1
1729,-37.0,-30.0,43.0,1645104374.5,P11,D04,1,1,1
1730,-37.0,-30.0,43.0,1645104374.53125,P11,D04,1,1,1
1731,-37.0,-30.0,43.0,1645104374.5625,P11,D04,1,1,1
1732,-37.0,-30.0,43.0,1645104374.59375,P11,D04,1,1,1
1733,-37.0,-30.0,42.0,1645104374.625,P11,D04,1,1,1
1734,-37.0,-30.0,43.0,1645104374.65625,P11,D04,1,1,1
1735,-37.0,-30.0,43.0,1645104374.6875,P11,D04,1,1,1
1736,-37.0,-30.0,43.0,1645104374.71875,P11,D04,1,1,1
1737,-37.0,-30.0,43.0,1645104374.75,P11,D04,1,1,1
1738,-37.0,-30.0,42.0,1645104374.78125,P11,D04,1,1,1
1739,-37.0,-30.0,42.0,1645104374.8125,P11,D04,1,1,1
1740,-37.0,-30.0,42.0,1645104374.84375,P11,D04,1,1,1
1741,-37.0,-30.0,42.0,1645104374.875,P11,D04,1,1,1
1742,-37.0,-30.0,43.0,1645104374.90625,P11,D04,1,1,1
1743,-37.0,-30.0,43.0,1645104374.9375,P11,D04,1,1,1
1744,-37.0,-31.0,42.0,1645104374.96875,P11,D04,1,1,1
1745,-37.0,-30.0,42.0,1645104375.0,P11,D04,1,1,1
1746,-37.0,-30.0,43.0,1645104375.03125,P11,D04,1,1,1
1747,-37.0,-30.0,42.0,1645104375.0625,P11,D04,1,1,1
1748,-37.0,-30.0,43.0,1645104375.09375,P11,D04,1,1,1
1749,-37.0,-30.0,43.0,1645104375.125,P11,D04,1,1,1
1750,-37.0,-30.0,43.0,1645104375.15625,P11,D04,1,1,1
1751,-37.0,-30.0,42.0,1645104375.1875,P11,D04,1,1,1
1752,-37.0,-30.0,43.0,1645104375.21875,P11,D04,1,1,1
1753,-37.0,-30.0,42.0,1645104375.25,P11,D04,1,1,1
1754,-37.0,-30.0,42.0,1645104375.28125,P11,D04,1,1,1
1755,-37.0,-30.0,43.0,1645104375.3125,P11,D04,1,1,1
1756,-37.0,-30.0,43.0,1645104375.34375,P11,D04,1,1,1
1757,-37.0,-30.0,42.0,1645104375.375,P11,D04,1,1,1
1758,-37.0,-30.0,43.0,1645104375.40625,P11,D04,1,1,1
1759,-37.0,-30.0,43.0,1645104375.4375,P11,D04,1,1,1
1760,-37.0,-30.0,42.0,1645104375.46875,P11,D04,1,1,1
1761,-37.0,-30.0,42.0,1645104375.5,P11,D04,1,1,1
1762,-37.0,-30.0,42.0,1645104375.53125,P11,D04,1,1,1
1763,-37.0,-30.0,43.0,1645104375.5625,P11,D04,1,1,1
1764,-37.0,-30.0,42.0,1645104375.59375,P11,D04,1,1,1
1765,-37.0,-30.0,43.0,1645104375.625,P11,D04,1,1,1
1766,-37.0,-30.0,43.0,1645104375.65625,P11,D04,1,1,1
1767,-37.0,-30.0,42.0,1645104375.6875,P11,D04,1,1,1
1768,-37.0,-30.0,42.0,1645104375.71875,P11,D04,1,1,1
1769,-37.0,-30.0,43.0,1645104375.75,P11,D04,1,1,1
1770,-37.0,-30.0,42.0,1645104375.78125,P11,D04,1,1,1
1771,-37.0,-30.0,42.0,1645104375.8125,P11,D04,1,1,1
1772,-37.0,-30.0,43.0,1645104375.84375,P11,D04,1,1,1
1773,-37.0,-30.0,43.0,1645104375.875,P11,D04,1,1,1
1774,-37.0,-30.0,43.0,1645104375.90625,P11,D04,1,1,1
1775,-37.0,-30.0,42.0,1645104375.9375,P11,D04,1,1,1
1776,-37.0,-30.0,43.0,1645104375.96875,P11,D04,1,1,1
1777,-37.0,-30.0,43.0,1645104376.0,P11,D04,1,1,1
1778,-37.0,-30.0,43.0,1645104376.03125,P11,D04,1,1,1
1779,-37.0,-30.0,42.0,1645104376.0625,P11,D04,1,1,1
1780,-37.0,-30.0,42.0,1645104376.09375,P11,D04,1,1,1
1781,-37.0,-30.0,43.0,1645104376.125,P11,D04,1,1,1
1782,-37.0,-30.0,42.0,1645104376.15625,P11,D04,1,1,1
1783,-37.0,-30.0,42.0,1645104376.1875,P11,D04,1,1,1
1784,-37.0,-30.0,43.0,1645104376.21875,P11,D04,1,1,1
1785,-37.0,-30.0,42.0,1645104376.25,P11,D04,1,1,1
1786,-37.0,-30.0,43.0,1645104376.28125,P11,D04,1,1,1
1787,-37.0,-30.0,43.0,1645104376.3125,P11,D04,1,1,1
1788,-37.0,-30.0,43.0,1645104376.34375,P11,D04,1,1,1
1789,-37.0,-30.0,43.0,1645104376.375,P11,D04,1,1,1
1790,-37.0,-30.0,43.0,1645104376.40625,P11,D04,1,1,1
1791,-37.0,-30.0,42.0,1645104376.4375,P11,D04,1,1,1
1792,-37.0,-30.0,43.0,1645104376.46875,P11,D04,1,1,1
1793,-37.0,-30.0,43.0,1645104376.5,P11,D04,1,1,1
1794,-37.0,-30.0,43.0,1645104376.53125,P11,D04,1,1,1
1795,-37.0,-30.0,43.0,1645104376.5625,P11,D04,1,1,1
1796,-36.0,-30.0,43.0,1645104376.59375,P11,D04,1,1,1
1797,-37.0,-30.0,43.0,1645104376.625,P11,D04,1,1,1
1798,-37.0,-30.0,43.0,1645104376.65625,P11,D04,1,1,1
1799,-37.0,-30.0,43.0,1645104376.6875,P11,D04,1,1,1
1800,-37.0,-30.0,43.0,1645104376.71875,P11,D04,1,1,1
1801,-37.0,-30.0,42.0,1645104376.75,P11,D04,1,1,1
1802,-37.0,-30.0,43.0,1645104376.78125,P11,D04,1,1,1
1803,-37.0,-30.0,42.0,1645104376.8125,P11,D04,1,1,1
1804,-37.0,-30.0,42.0,1645104376.84375,P11,D04,1,1,1
1805,-37.0,-30.0,42.0,1645104376.875,P11,D04,1,1,1
1806,-37.0,-30.0,43.0,1645104376.90625,P11,D04,1,1,1
1807,-37.0,-30.0,42.0,1645104376.9375,P11,D04,1,1,1
1808,-37.0,-30.0,43.0,1645104376.96875,P11,D04,1,1,1
1809,-36.0,-30.0,43.0,1645104377.0,P11,D04,1,1,1
1810,-37.0,-30.0,42.0,1645104377.03125,P11,D04,1,1,1
1811,-37.0,-30.0,42.0,1645104377.0625,P11,D04,1,1,1
1812,-37.0,-30.0,43.0,1645104377.09375,P11,D04,1,1,1
1813,-37.0,-30.0,42.0,1645104377.125,P11,D04,1,1,1
1814,-37.0,-30.0,42.0,1645104377.15625,P11,D04,1,1,1
1815,-37.0,-30.0,43.0,1645104377.1875,P11,D04,1,1,1
1816,-37.0,-30.0,43.0,1645104377.21875,P11,D04,1,1,1
1817,-37.0,-30.0,43.0,1645104377.25,P11,D04,1,1,1
1818,-37.0,-30.0,43.0,1645104377.28125,P11,D04,1,1,1
1819,-37.0,-30.0,43.0,1645104377.3125,P11,D04,1,1,1
1820,-37.0,-30.0,42.0,1645104377.34375,P11,D04,1,1,1
1821,-37.0,-30.0,42.0,1645104377.375,P11,D04,1,1,1
1822,-37.0,-30.0,42.0,1645104377.40625,P11,D04,1,1,1
1823,-37.0,-30.0,43.0,1645104377.4375,P11,D04,1,1,1
1824,-37.0,-30.0,42.0,1645104377.46875,P11,D04,1,1,1
1825,-37.0,-30.0,42.0,1645104377.5,P11,D04,1,1,1
1826,-37.0,-30.0,43.0,1645104377.53125,P11,D04,1,1,1
1827,-37.0,-30.0,43.0,1645104377.5625,P11,D04,1,1,1
1828,-37.0,-30.0,42.0,1645104377.59375,P11,D04,1,1,1
1829,-37.0,-30.0,42.0,1645104377.625,P11,D04,1,1,1
1830,-37.0,-30.0,43.0,1645104377.65625,P11,D04,1,1,1
1831,-36.0,-30.0,43.0,1645104377.6875,P11,D04,1,1,1
1832,-37.0,-30.0,42.0,1645104377.71875,P11,D04,1,1,1
1833,-37.0,-30.0,43.0,1645104377.75,P11,D04,1,1,1
1834,-37.0,-30.0,43.0,1645104377.78125,P11,D04,1,1,1
1835,-37.0,-30.0,42.0,1645104377.8125,P11,D04,1,1,1
1836,-37.0,-30.0,43.0,1645104377.84375,P11,D04,1,1,1
1837,-37.0,-30.0,43.0,1645104377.875,P11,D04,1,1,1
1838,-37.0,-30.0,43.0,1645104377.90625,P11,D04,1,1,1
1839,-37.0,-30.0,43.0,1645104377.9375,P11,D04,1,1,1
1840,-37.0,-30.0,43.0,1645104377.96875,P11,D04,1,1,1
1841,-37.0,-30.0,43.0,1645104378.0,P11,D04,1,1,1
1842,-37.0,-30.0,43.0,1645104378.03125,P11,D04,1,1,1
1843,-37.0,-30.0,42.0,1645104378.0625,P11,D04,1,1,1
1844,-37.0,-30.0,42.0,1645104378.09375,P11,D04,1,1,1
1845,-37.0,-30.0,43.0,1645104378.125,P11,D04,1,1,1
1846,-37.0,-30.0,42.0,1645104378.15625,P11,D04,1,1,1
1847,-37.0,-30.0,43.0,1645104378.1875,P11,D04,1,1,1
1848,-37.0,-30.0,43.0,1645104378.21875,P11,D04,1,1,1
1849,-37.0,-30.0,42.0,1645104378.25,P11,D04,1,1,1
1850,-37.0,-30.0,42.0,1645104378.28125,P11,D04,1,1,1
1851,-37.0,-30.0,42.0,1645104378.3125,P11,D04,1,1,1
1852,-37.0,-30.0,43.0,1645104378.34375,P11,D04,1,1,1
1853,-37.0,-30.0,43.0,1645104378.375,P11,D04,1,1,1
1854,-37.0,-30.0,42.0,1645104378.40625,P11,D04,1,1,1
1855,-37.0,-30.0,43.0,1645104378.4375,P11,D04,1,1,1
1856,-37.0,-30.0,43.0,1645104378.46875,P11,D04,1,1,1
1857,-37.0,-30.0,42.0,1645104378.5,P11,D04,1,1,1
1858,-37.0,-30.0,42.0,1645104378.53125,P11,D04,1,1,1
1859,-37.0,-30.0,43.0,1645104378.5625,P11,D04,1,1,1
1860,-37.0,-30.0,42.0,1645104378.59375,P11,D04,1,1,1
1861,-37.0,-31.0,42.0,1645104378.625,P11,D04,1,1,1
1862,-37.0,-30.0,43.0,1645104378.65625,P11,D04,1,1,1
1863,-37.0,-30.0,42.0,1645104378.6875,P11,D04,1,1,1
1864,-37.0,-30.0,42.0,1645104378.71875,P11,D04,1,1,1
1865,-37.0,-30.0,43.0,1645104378.75,P11,D04,1,1,1
1866,-37.0,-30.0,43.0,1645104378.78125,P11,D04,1,1,1
1867,-37.0,-30.0,43.0,1645104378.8125,P11,D04,1,1,1
1868,-37.0,-30.0,43.0,1645104378.84375,P11,D04,1,1,1
1869,-37.0,-30.0,42.0,1645104378.875,P11,D04,1,1,1
1870,-37.0,-30.0,42.0,1645104378.90625,P11,D04,1,1,1
1871,-37.0,-30.0,43.0,1645104378.9375,P11,D04,1,1,1
1872,-37.0,-30.0,42.0,1645104378.96875,P11,D04,1,1,1
1873,-37.0,-30.0,43.0,1645104379.0,P11,D04,1,1,1
1874,-37.0,-30.0,43.0,1645104379.03125,P11,D04,1,1,1
1875,-37.0,-30.0,43.0,1645104379.0625,P11,D04,1,1,1
1876,-37.0,-30.0,42.0,1645104379.09375,P11,D04,1,1,1
1877,-37.0,-30.0,42.0,1645104379.125,P11,D04,1,1,1
1878,-37.0,-30.0,43.0,1645104379.15625,P11,D04,1,1,1
1879,-37.0,-30.0,42.0,1645104379.1875,P11,D04,1,1,1
1880,-37.0,-30.0,42.0,1645104379.21875,P11,D04,1,1,1
1881,-37.0,-30.0,42.0,1645104379.25,P11,D04,1,1,1
1882,-37.0,-30.0,43.0,1645104379.28125,P11,D04,1,1,1
1883,-37.0,-30.0,42.0,1645104379.3125,P11,D04,1,1,1
1884,-37.0,-30.0,42.0,1645104379.34375,P11,D04,1,1,1
1885,-37.0,-30.0,43.0,1645104379.375,P11,D04,1,1,1
1886,-37.0,-30.0,43.0,1645104379.40625,P11,D04,1,1,1
1887,-37.0,-30.0,42.0,1645104379.4375,P11,D04,1,1,1
1888,-37.0,-30.0,42.0,1645104379.46875,P11,D04,1,1,1
1889,-37.0,-30.0,42.0,1645104379.5,P11,D04,1,1,1
1890,-37.0,-30.0,43.0,1645104379.53125,P11,D04,1,1,1
1891,-37.0,-30.0,42.0,1645104379.5625,P11,D04,1,1,1
1892,-37.0,-30.0,43.0,1645104379.59375,P11,D04,1,1,1
1893,-37.0,-30.0,43.0,1645104379.625,P11,D04,1,1,1
1894,-37.0,-30.0,43.0,1645104379.65625,P11,D04,1,1,1
1895,-36.0,-30.0,43.0,1645104379.6875,P11,D04,1,1,1
1896,-37.0,-30.0,43.0,1645104379.71875,P11,D04,1,1,1
1897,-37.0,-30.0,42.0,1645104379.75,P11,D04,1,1,1
1898,-37.0,-30.0,43.0,1645104379.78125,P11,D04,1,1,1
1899,-37.0,-30.0,43.0,1645104379.8125,P11,D04,1,1,1
1900,-37.0,-30.0,43.0,1645104379.84375,P11,D04,1,1,1
1901,-37.0,-30.0,43.0,1645104379.875,P11,D04,1,1,1
1902,-36.0,-30.0,42.0,1645104379.90625,P11,D04,1,1,1
1903,-37.0,-30.0,42.0,1645104379.9375,P11,D04,1,1,1
1904,-37.0,-30.0,42.0,1645104379.96875,P11,D04,1,1,1
1905,-37.0,-30.0,43.0,1645104380.0,P11,D04,1,1,1
1906,-37.0,-30.0,43.0,1645104380.03125,P11,D04,1,1,1
1907,-37.0,-30.0,43.0,1645104380.0625,P11,D04,1,1,1
1908,-37.0,-30.0,43.0,1645104380.09375,P11,D04,1,1,1
1909,-37.0,-30.0,42.0,1645104380.125,P11,D04,1,1,1
1910,-37.0,-30.0,43.0,1645104380.15625,P11,D04,1,1,1
1911,-37.0,-30.0,42.0,1645104380.1875,P11,D04,1,1,1
1912,-37.0,-30.0,42.0,1645104380.21875,P11,D04,1,1,1
1913,-37.0,-30.0,42.0,1645104380.25,P11,D04,1,1,1
1914,-37.0,-30.0,42.0,1645104380.28125,P11,D04,1,1,1
1915,-37.0,-30.0,43.0,1645104380.3125,P11,D04,1,1,1
1916,-37.0,-30.0,42.0,1645104380.34375,P11,D04,1,1,1
1917,-37.0,-30.0,43.0,1645104380.375,P11,D04,1,1,1
1918,-37.0,-30.0,42.0,1645104380.40625,P11,D04,1,1,1
1919,-37.0,-30.0,43.0,1645104380.4375,P11,D04,1,1,1
1920,-37.0,-30.0,43.0,1645104380.46875,P11,D04,1,1,1
1921,-37.0,-30.0,42.0,1645104380.5,P11,D04,1,1,1
1922,-37.0,-30.0,42.0,1645104380.53125,P11,D04,1,1,1
1923,-37.0,-31.0,43.0,1645104380.5625,P11,D04,1,1,1
1924,-37.0,-30.0,43.0,1645104380.59375,P11,D04,1,1,1
1925,-37.0,-30.0,43.0,1645104380.625,P11,D04,1,1,1
1926,-37.0,-30.0,42.0,1645104380.65625,P11,D04,1,1,1
1927,-37.0,-30.0,43.0,1645104380.6875,P11,D04,1,1,1
1928,-37.0,-30.0,43.0,1645104380.71875,P11,D04,1,1,1
1929,-37.0,-30.0,43.0,1645104380.75,P11,D04,1,1,1
1930,-37.0,-30.0,43.0,1645104380.78125,P11,D04,1,1,1
1931,-37.0,-30.0,43.0,1645104380.8125,P11,D04,1,1,1
1932,-37.0,-30.0,42.0,1645104380.84375,P11,D04,1,1,1
1933,-37.0,-30.0,43.0,1645104380.875,P11,D04,1,1,1
1934,-37.0,-30.0,43.0,1645104380.90625,P11,D04,1,1,1
1935,-37.0,-30.0,42.0,1645104380.9375,P11,D04,1,1,1
1936,-37.0,-30.0,42.0,1645104380.96875,P11,D04,1,1,1
1937,-37.0,-30.0,42.0,1645104381.0,P11,D04,1,1,1
1938,-37.0,-30.0,42.0,1645104381.03125,P11,D04,1,1,1
1939,-37.0,-30.0,42.0,1645104381.0625,P11,D04,1,1,1
1940,-37.0,-30.0,42.0,1645104381.09375,P11,D04,1,1,1
1941,-37.0,-30.0,42.0,1645104381.125,P11,D04,1,1,1
1942,-37.0,-30.0,42.0,1645104381.15625,P11,D04,1,1,1
1943,-37.0,-30.0,42.0,1645104381.1875,P11,D04,1,1,1
1944,-37.0,-30.0,42.0,1645104381.21875,P11,D04,1,1,1
1945,-37.0,-30.0,43.0,1645104381.25,P11,D04,1,1,1
1946,-37.0,-30.0,42.0,1645104381.28125,P11,D04,1,1,1
1947,-37.0,-31.0,42.0,1645104381.3125,P11,D04,1,1,1
1948,-37.0,-30.0,43.0,1645104381.34375,P11,D04,1,1,1
1949,-37.0,-30.0,42.0,1645104381.375,P11,D04,1,1,1
1950,-37.0,-31.0,43.0,1645104381.40625,P11,D04,1,1,1
1951,-37.0,-30.0,42.0,1645104381.4375,P11,D04,1,1,1
1952,-37.0,-30.0,42.0,1645104381.46875,P11,D04,1,1,1
1953,-37.0,-30.0,42.0,1645104381.5,P11,D04,1,1,1
1954,-37.0,-30.0,42.0,1645104381.53125,P11,D04,1,1,1
1955,-37.0,-30.0,43.0,1645104381.5625,P11,D04,1,1,1
1956,-37.0,-30.0,43.0,1645104381.59375,P11,D04,1,1,1
1957,-37.0,-30.0,42.0,1645104381.625,P11,D04,1,1,1
1958,-37.0,-30.0,42.0,1645104381.65625,P11,D04,1,1,1
1959,-37.0,-30.0,42.0,1645104381.6875,P11,D04,1,1,1
1960,-37.0,-30.0,43.0,1645104381.71875,P11,D04,1,1,1
1961,-37.0,-30.0,43.0,1645104381.75,P11,D04,1,1,1
1962,-37.0,-30.0,43.0,1645104381.78125,P11,D04,1,1,1
1963,-37.0,-30.0,42.0,1645104381.8125,P11,D04,1,1,1
1964,-37.0,-30.0,43.0,1645104381.84375,P11,D04,1,1,1
1965,-37.0,-30.0,42.0,1645104381.875,P11,D04,1,1,1
1966,-37.0,-30.0,42.0,1645104381.90625,P11,D04,1,1,1
1967,-37.0,-30.0,43.0,1645104381.9375,P11,D04,1,1,1
1968,-37.0,-30.0,43.0,1645104381.96875,P11,D04,1,1,1
1969,-37.0,-30.0,42.0,1645104382.0,P11,D04,1,1,1
1970,-37.0,-30.0,43.0,1645104382.03125,P11,D04,1,1,1
1971,-37.0,-30.0,42.0,1645104382.0625,P11,D04,1,1,1
1972,-37.0,-30.0,42.0,1645104382.09375,P11,D04,1,1,1
1973,-37.0,-30.0,42.0,1645104382.125,P11,D04,1,1,1
1974,-37.0,-30.0,43.0,1645104382.15625,P11,D04,1,1,1
1975,-37.0,-30.0,42.0,1645104382.1875,P11,D04,1,1,1
1976,-37.0,-31.0,42.0,1645104382.21875,P11,D04,1,1,1
1977,-37.0,-30.0,42.0,1645104382.25,P11,D04,1,1,1
1978,-37.0,-30.0,42.0,1645104382.28125,P11,D04,1,1,1
1979,-37.0,-30.0,42.0,1645104382.3125,P11,D04,1,1,1
1980,-37.0,-30.0,43.0,1645104382.34375,P11,D04,1,1,1
1981,-37.0,-30.0,43.0,1645104382.375,P11,D04,1,1,1
1982,-37.0,-30.0,42.0,1645104382.40625,P11,D04,1,1,1
1983,-37.0,-30.0,43.0,1645104382.4375,P11,D04,1,1,1
1984,-37.0,-30.0,43.0,1645104382.46875,P11,D04,1,1,1
1985,-37.0,-30.0,42.0,1645104382.5,P11,D04,1,1,1
1986,-37.0,-30.0,42.0,1645104382.53125,P11,D04,1,1,1
1987,-37.0,-30.0,42.0,1645104382.5625,P11,D04,1,1,1
1988,-37.0,-30.0,43.0,1645104382.59375,P11,D04,1,1,1
1989,-37.0,-30.0,43.0,1645104382.625,P11,D04,1,1,1
1990,-37.0,-30.0,43.0,1645104382.65625,P11,D04,1,1,1
1991,-37.0,-30.0,43.0,1645104382.6875,P11,D04,1,1,1
1992,-37.0,-30.0,42.0,1645104382.71875,P11,D04,1,1,1
1993,-37.0,-30.0,43.0,1645104382.75,P11,D04,1,1,1
1994,-37.0,-30.0,43.0,1645104382.78125,P11,D04,1,1,1
1995,-37.0,-30.0,43.0,1645104382.8125,P11,D04,1,1,1
1996,-37.0,-30.0,43.0,1645104382.84375,P11,D04,1,1,1
1997,-37.0,-30.0,42.0,1645104382.875,P11,D04,1,1,1
1998,-37.0,-30.0,43.0,1645104382.90625,P11,D04,1,1,1
1999,-37.0,-30.0,43.0,1645104382.9375,P11,D04,1,1,1
2000,-37.0,-30.0,42.0,1645104382.96875,P11,D04,1,1,1
2001,-37.0,-30.0,42.0,1645104383.0,P11,D04,1,1,1
2002,-37.0,-30.0,42.0,1645104383.03125,P11,D04,1,1,1
2003,-37.0,-30.0,42.0,1645104383.0625,P11,D04,1,1,1
2004,-37.0,-30.0,42.0,1645104383.09375,P11,D04,1,1,1
2005,-37.0,-30.0,43.0,1645104383.125,P11,D04,1,1,1
2006,-37.0,-30.0,43.0,1645104383.15625,P11,D04,1,1,1
2007,-37.0,-30.0,42.0,1645104383.1875,P11,D04,1,1,1
2008,-37.0,-30.0,42.0,1645104383.21875,P11,D04,1,1,1
2009,-37.0,-30.0,42.0,1645104383.25,P11,D04,1,1,1
2010,-37.0,-30.0,43.0,1645104383.28125,P11,D04,1,1,1
2011,-37.0,-30.0,42.0,1645104383.3125,P11,D04,1,1,1
2012,-37.0,-30.0,42.0,1645104383.34375,P11,D04,1,1,1
2013,-37.0,-30.0,42.0,1645104383.375,P11,D04,1,1,1
2014,-37.0,-30.0,42.0,1645104383.40625,P11,D04,1,1,1
2015,-37.0,-30.0,42.0,1645104383.4375,P11,D04,1,1,1
2016,-37.0,-30.0,43.0,1645104383.46875,P11,D04,1,1,1
2017,-37.0,-30.0,42.0,1645104383.5,P11,D04,1,1,1
2018,-37.0,-30.0,42.0,1645104383.53125,P11,D04,1,1,1
2019,-37.0,-30.0,43.0,1645104383.5625,P11,D04,1,1,1
2020,-37.0,-30.0,42.0,1645104383.59375,P11,D04,1,1,1
2021,-37.0,-31.0,42.0,1645104383.625,P11,D04,1,1,1
2022,-37.0,-30.0,43.0,1645104383.65625,P11,D04,1,1,1
2023,-37.0,-30.0,42.0,1645104383.6875,P11,D04,1,1,1
2024,-37.0,-31.0,42.0,1645104383.71875,P11,D04,1,1,1
2025,-37.0,-30.0,43.0,1645104383.75,P11,D04,1,1,1
2026,-37.0,-30.0,42.0,1645104383.78125,P11,D04,1,1,1
2027,-37.0,-30.0,42.0,1645104383.8125,P11,D04,1,1,1
2028,-37.0,-30.0,42.0,1645104383.84375,P11,D04,1,1,1
2029,-37.0,-30.0,43.0,1645104383.875,P11,D04,1,1,1
2030,-37.0,-30.0,42.0,1645104383.90625,P11,D04,1,1,1
2031,-37.0,-30.0,42.0,1645104383.9375,P11,D04,1,1,1
2032,-37.0,-30.0,43.0,1645104383.96875,P11,D04,1,1,1
2033,-37.0,-30.0,42.0,1645104384.0,P11,D04,1,1,1
2034,-37.0,-30.0,42.0,1645104384.03125,P11,D04,1,1,1
2035,-37.0,-30.0,42.0,1645104384.0625,P11,D04,1,1,1
2036,-37.0,-30.0,43.0,1645104384.09375,P11,D04,1,1,1
2037,-37.0,-30.0,43.0,1645104384.125,P11,D04,1,1,1
2038,-37.0,-30.0,42.0,1645104384.15625,P11,D04,1,1,1
2039,-37.0,-31.0,42.0,1645104384.1875,P11,D04,1,1,1
2040,-37.0,-30.0,43.0,1645104384.21875,P11,D04,1,1,1
2041,-37.0,-30.0,43.0,1645104384.25,P11,D04,1,1,1
2042,-37.0,-30.0,42.0,1645104384.28125,P11,D04,1,1,1
2043,-37.0,-30.0,42.0,1645104384.3125,P11,D04,1,1,1
2044,-37.0,-30.0,42.0,1645104384.34375,P11,D04,1,1,1
2045,-37.0,-31.0,42.0,1645104384.375,P11,D04,1,1,1
2046,-37.0,-30.0,43.0,1645104384.40625,P11,D04,1,1,1
2047,-37.0,-30.0,42.0,1645104384.4375,P11,D04,1,1,1
2048,-37.0,-30.0,42.0,1645104384.46875,P11,D04,1,1,1
2049,-37.0,-30.0,42.0,1645104384.5,P11,D04,1,1,1
2050,-37.0,-30.0,42.0,1645104384.53125,P11,D04,1,1,1
2051,-37.0,-30.0,42.0,1645104384.5625,P11,D04,1,1,1
2052,-37.0,-30.0,42.0,1645104384.59375,P11,D04,1,1,1
2053,-37.0,-30.0,43.0,1645104384.625,P11,D04,1,1,1
2054,-37.0,-30.0,42.0,1645104384.65625,P11,D04,1,1,1
2055,-37.0,-30.0,42.0,1645104384.6875,P11,D04,1,1,1
2056,-37.0,-31.0,42.0,1645104384.71875,P11,D04,1,1,1
2057,-37.0,-30.0,42.0,1645104384.75,P11,D04,1,1,1
2058,-37.0,-30.0,43.0,1645104384.78125,P11,D04,1,1,1
2059,-37.0,-30.0,42.0,1645104384.8125,P11,D04,1,1,1
2060,-37.0,-30.0,42.0,1645104384.84375,P11,D04,1,1,1
2061,-37.0,-30.0,42.0,1645104384.875,P11,D04,1,1,1
2062,-37.0,-30.0,43.0,1645104384.90625,P11,D04,1,1,1
2063,-37.0,-30.0,42.0,1645104384.9375,P11,D04,1,1,1
2064,-37.0,-30.0,42.0,1645104384.96875,P11,D04,1,1,1
2065,-37.0,-30.0,42.0,1645104385.0,P11,D04,1,1,1
2066,-37.0,-30.0,43.0,1645104385.03125,P11,D04,1,1,1
2067,-37.0,-30.0,43.0,1645104385.0625,P11,D04,1,1,1
2068,-37.0,-31.0,42.0,1645104385.09375,P11,D04,1,1,1
2069,-37.0,-30.0,43.0,1645104385.125,P11,D04,1,1,1
2070,-37.0,-30.0,42.0,1645104385.15625,P11,D04,1,1,1
2071,-37.0,-30.0,43.0,1645104385.1875,P11,D04,1,1,1
2072,-37.0,-30.0,42.0,1645104385.21875,P11,D04,1,1,1
2073,-37.0,-30.0,43.0,1645104385.25,P11,D04,1,1,1
2074,-37.0,-30.0,43.0,1645104385.28125,P11,D04,1,1,1
2075,-37.0,-30.0,43.0,1645104385.3125,P11,D04,1,1,1
2076,-37.0,-30.0,43.0,1645104385.34375,P11,D04,1,1,1
2077,-37.0,-30.0,43.0,1645104385.375,P11,D04,1,1,1
2078,-37.0,-30.0,43.0,1645104385.40625,P11,D04,1,1,1
2079,-37.0,-30.0,42.0,1645104385.4375,P11,D04,1,1,1
2080,-37.0,-30.0,42.0,1645104385.46875,P11,D04,1,1,1
2081,-37.0,-30.0,42.0,1645104385.5,P11,D04,1,1,1
2082,-37.0,-30.0,42.0,1645104385.53125,P11,D04,1,1,1
2083,-37.0,-30.0,42.0,1645104385.5625,P11,D04,1,1,1
2084,-37.0,-30.0,43.0,1645104385.59375,P11,D04,1,1,1
2085,-37.0,-30.0,42.0,1645104385.625,P11,D04,1,1,1
2086,-37.0,-30.0,43.0,1645104385.65625,P11,D04,1,1,1
2087,-37.0,-30.0,42.0,1645104385.6875,P11,D04,1,1,1
2088,-37.0,-30.0,42.0,1645104385.71875,P11,D04,1,1,1
2089,-37.0,-30.0,42.0,1645104385.75,P11,D04,1,1,1
2090,-37.0,-30.0,42.0,1645104385.78125,P11,D04,1,1,1
2091,-37.0,-31.0,42.0,1645104385.8125,P11,D04,1,1,1
2092,-37.0,-30.0,43.0,1645104385.84375,P11,D04,1,1,1
2093,-37.0,-30.0,42.0,1645104385.875,P11,D04,1,1,1
2094,-37.0,-30.0,42.0,1645104385.90625,P11,D04,1,1,1
2095,-37.0,-30.0,43.0,1645104385.9375,P11,D04,1,1,1
2096,-37.0,-30.0,43.0,1645104385.96875,P11,D04,1,1,1
2097,-37.0,-30.0,42.0,1645104386.0,P11,D04,1,1,1
2098,-37.0,-30.0,42.0,1645104386.03125,P11,D04,1,1,1
2099,-37.0,-30.0,42.0,1645104386.0625,P11,D04,1,1,1
2100,-37.0,-30.0,43.0,1645104386.09375,P11,D04,1,1,1
2101,-37.0,-30.0,42.0,1645104386.125,P11,D04,1,1,1
2102,-37.0,-30.0,43.0,1645104386.15625,P11,D04,1,1,1
2103,-37.0,-30.0,42.0,1645104386.1875,P11,D04,1,1,1
2104,-37.0,-30.0,42.0,1645104386.21875,P11,D04,1,1,1
2105,-37.0,-30.0,42.0,1645104386.25,P11,D04,1,1,1
2106,-37.0,-30.0,43.0,1645104386.28125,P11,D04,1,1,1
2107,-37.0,-30.0,42.0,1645104386.3125,P11,D04,1,1,1
2108,-37.0,-30.0,42.0,1645104386.34375,P11,D04,1,1,1
2109,-37.0,-30.0,42.0,1645104386.375,P11,D04,1,1,1
2110,-37.0,-30.0,43.0,1645104386.40625,P11,D04,1,1,1
2111,-37.0,-30.0,42.0,1645104386.4375,P11,D04,1,1,1
2112,-37.0,-30.0,42.0,1645104386.46875,P11,D04,1,1,1
2113,-37.0,-31.0,42.0,1645104386.5,P11,D04,1,1,1
2114,-37.0,-30.0,43.0,1645104386.53125,P11,D04,1,1,1
2115,-37.0,-30.0,43.0,1645104386.5625,P11,D04,1,1,1
2116,-37.0,-30.0,42.0,1645104386.59375,P11,D04,1,1,1
2117,-37.0,-30.0,42.0,1645104386.625,P11,D04,1,1,1
2118,-37.0,-30.0,42.0,1645104386.65625,P11,D04,1,1,1
2119,-37.0,-30.0,42.0,1645104386.6875,P11,D04,1,1,1
2120,-37.0,-30.0,42.0,1645104386.71875,P11,D04,1,1,1
2121,-37.0,-30.0,43.0,1645104386.75,P11,D04,1,1,1
2122,-37.0,-30.0,43.0,1645104386.78125,P11,D04,1,1,1
2123,-37.0,-30.0,42.0,1645104386.8125,P11,D04,1,1,1
2124,-37.0,-30.0,43.0,1645104386.84375,P11,D04,1,1,1
2125,-37.0,-30.0,42.0,1645104386.875,P11,D04,1,1,1
2126,-37.0,-30.0,42.0,1645104386.90625,P11,D04,1,1,1
2127,-37.0,-30.0,42.0,1645104386.9375,P11,D04,1,1,1
2128,-37.0,-30.0,42.0,1645104386.96875,P11,D04,1,1,1
2129,-37.0,-30.0,43.0,1645104387.0,P11,D04,1,1,1
2130,-37.0,-30.0,42.0,1645104387.03125,P11,D04,1,1,1
2131,-37.0,-30.0,42.0,1645104387.0625,P11,D04,1,1,1
2132,-37.0,-30.0,42.0,1645104387.09375,P11,D04,1,1,1
2133,-37.0,-31.0,42.0,1645104387.125,P11,D04,1,1,1
2134,-37.0,-30.0,43.0,1645104387.15625,P11,D04,1,1,1
2135,-37.0,-30.0,43.0,1645104387.1875,P11,D04,1,1,1
2136,-37.0,-31.0,43.0,1645104387.21875,P11,D04,1,1,1
2137,-37.0,-30.0,43.0,1645104387.25,P11,D04,1,1,1
2138,-37.0,-30.0,42.0,1645104387.28125,P11,D04,1,1,1
2139,-37.0,-31.0,42.0,1645104387.3125,P11,D04,1,1,1
2140,-37.0,-30.0,42.0,1645104387.34375,P11,D04,1,1,1
2141,-37.0,-30.0,43.0,1645104387.375,P11,D04,1,1,1
2142,-37.0,-30.0,42.0,1645104387.40625,P11,D04,1,1,1
2143,-37.0,-30.0,42.0,1645104387.4375,P11,D04,1,1,1
2144,-37.0,-30.0,42.0,1645104387.46875,P11,D04,1,1,1
2145,-37.0,-30.0,42.0,1645104387.5,P11,D04,1,1,1
2146,-37.0,-30.0,42.0,1645104387.53125,P11,D04,1,1,1
2147,-37.0,-30.0,42.0,1645104387.5625,P11,D04,1,1,1
2148,-37.0,-30.0,42.0,1645104387.59375,P11,D04,1,1,1
2149,-37.0,-30.0,42.0,1645104387.625,P11,D04,1,1,1
2150,-37.0,-30.0,42.0,1645104387.65625,P11,D04,1,1,1
2151,-37.0,-30.0,42.0,1645104387.6875,P11,D04,1,1,1
2152,-37.0,-30.0,42.0,1645104387.71875,P11,D04,1,1,1
2153,-37.0,-30.0,42.0,1645104387.75,P11,D04,1,1,1
2154,-37.0,-30.0,42.0,1645104387.78125,P11,D04,1,1,1
2155,-37.0,-30.0,43.0,1645104387.8125,P11,D04,1,1,1
2156,-37.0,-30.0,43.0,1645104387.84375,P11,D04,1,1,1
2157,-37.0,-30.0,42.0,1645104387.875,P11,D04,1,1,1
2158,-37.0,-30.0,43.0,1645104387.90625,P11,D04,1,1,1
2159,-37.0,-30.0,43.0,1645104387.9375,P11,D04,1,1,1
2160,-37.0,-31.0,42.0,1645104387.96875,P11,D04,1,1,1
2161,-37.0,-30.0,43.0,1645104388.0,P11,D04,1,1,1
2162,-37.0,-30.0,43.0,1645104388.03125,P11,D04,1,1,1
2163,-37.0,-31.0,42.0,1645104388.0625,P11,D04,1,1,1
2164,-37.0,-30.0,42.0,1645104388.09375,P11,D04,1,1,1
2165,-37.0,-30.0,43.0,1645104388.125,P11,D04,1,1,1
2166,-37.0,-30.0,43.0,1645104388.15625,P11,D04,1,1,1
2167,-37.0,-30.0,42.0,1645104388.1875,P11,D04,1,1,1
2168,-37.0,-30.0,43.0,1645104388.21875,P11,D04,1,1,1
2169,-37.0,-30.0,42.0,1645104388.25,P11,D04,1,1,1
2170,-37.0,-30.0,43.0,1645104388.28125,P11,D04,1,1,1
2171,-37.0,-30.0,43.0,1645104388.3125,P11,D04,1,1,1
2172,-37.0,-30.0,43.0,1645104388.34375,P11,D04,1,1,1
2173,-37.0,-30.0,43.0,1645104388.375,P11,D04,1,1,1
2174,-37.0,-30.0,42.0,1645104388.40625,P11,D04,1,1,1
2175,-37.0,-30.0,42.0,1645104388.4375,P11,D04,1,1,1
2176,-37.0,-30.0,43.0,1645104388.46875,P11,D04,1,1,1
2177,-37.0,-30.0,43.0,1645104388.5,P11,D04,1,1,1
2178,-37.0,-30.0,43.0,1645104388.53125,P11,D04,1,1,1
2179,-37.0,-30.0,43.0,1645104388.5625,P11,D04,1,1,1
2180,-37.0,-30.0,42.0,1645104388.59375,P11,D04,1,1,1
2181,-37.0,-30.0,43.0,1645104388.625,P11,D04,1,1,1
2182,-37.0,-30.0,43.0,1645104388.65625,P11,D04,1,1,1
2183,-37.0,-30.0,43.0,1645104388.6875,P11,D04,1,1,1
2184,-37.0,-30.0,42.0,1645104388.71875,P11,D04,1,1,1
2185,-37.0,-30.0,42.0,1645104388.75,P11,D04,1,1,1
2186,-37.0,-30.0,43.0,1645104388.78125,P11,D04,1,1,1
2187,-37.0,-30.0,42.0,1645104388.8125,P11,D04,1,1,1
2188,-37.0,-31.0,42.0,1645104388.84375,P11,D04,1,1,1
2189,-37.0,-30.0,43.0,1645104388.875,P11,D04,1,1,1
2190,-37.0,-30.0,42.0,1645104388.90625,P11,D04,1,1,1
2191,-37.0,-30.0,42.0,1645104388.9375,P11,D04,1,1,1
2192,-37.0,-30.0,42.0,1645104388.96875,P11,D04,1,1,1
2193,-36.0,-30.0,43.0,1645104389.0,P11,D04,1,1,1
2194,-37.0,-30.0,43.0,1645104389.03125,P11,D04,1,1,1
2195,-37.0,-30.0,42.0,1645104389.0625,P11,D04,1,1,1
2196,-37.0,-30.0,43.0,1645104389.09375,P11,D04,1,1,1
2197,-37.0,-30.0,43.0,1645104389.125,P11,D04,1,1,1
2198,-37.0,-30.0,42.0,1645104389.15625,P11,D04,1,1,1
2199,-37.0,-30.0,42.0,1645104389.1875,P11,D04,1,1,1
2200,-37.0,-30.0,43.0,1645104389.21875,P11,D04,1,1,1
2201,-37.0,-30.0,42.0,1645104389.25,P11,D04,1,1,1
2202,-37.0,-30.0,42.0,1645104389.28125,P11,D04,1,1,1
2203,-37.0,-30.0,43.0,1645104389.3125,P11,D04,1,1,1
2204,-37.0,-30.0,43.0,1645104389.34375,P11,D04,1,1,1
2205,-37.0,-30.0,43.0,1645104389.375,P11,D04,1,1,1
2206,-37.0,-30.0,42.0,1645104389.40625,P11,D04,1,1,1
2207,-37.0,-30.0,42.0,1645104389.4375,P11,D04,1,1,1
2208,-37.0,-30.0,42.0,1645104389.46875,P11,D04,1,1,1
2209,-37.0,-30.0,43.0,1645104389.5,P11,D04,1,1,1
2210,-37.0,-30.0,42.0,1645104389.53125,P11,D04,1,1,1
2211,-37.0,-30.0,43.0,1645104389.5625,P11,D04,1,1,1
2212,-37.0,-30.0,43.0,1645104389.59375,P11,D04,1,1,1
2213,-37.0,-31.0,42.0,1645104389.625,P11,D04,1,1,1
2214,-37.0,-30.0,42.0,1645104389.65625,P11,D04,1,1,1
2215,-37.0,-30.0,42.0,1645104389.6875,P11,D04,1,1,1
2216,-37.0,-30.0,43.0,1645104389.71875,P11,D04,1,1,1
2217,-37.0,-30.0,42.0,1645104389.75,P11,D04,1,1,1
2218,-37.0,-31.0,43.0,1645104389.78125,P11,D04,1,1,1
2219,-37.0,-30.0,42.0,1645104389.8125,P11,D04,1,1,1
2220,-37.0,-30.0,42.0,1645104389.84375,P11,D04,1,1,1
2221,-37.0,-30.0,43.0,1645104389.875,P11,D04,1,1,1
2222,-37.0,-30.0,42.0,1645104389.90625,P11,D04,1,1,1
2223,-37.0,-30.0,42.0,1645104389.9375,P11,D04,1,1,1
2224,-37.0,-30.0,42.0,1645104389.96875,P11,D04,1,1,1
2225,-37.0,-30.0,43.0,1645104390.0,P11,D04,1,1,1
2226,-37.0,-30.0,43.0,1645104390.03125,P11,D04,1,1,1
2227,-37.0,-30.0,42.0,1645104390.0625,P11,D04,1,1,1
2228,-37.0,-30.0,42.0,1645104390.09375,P11,D04,1,1,1
2229,-37.0,-31.0,42.0,1645104390.125,P11,D04,1,1,1
2230,-37.0,-30.0,43.0,1645104390.15625,P11,D04,1,1,1
2231,-37.0,-30.0,42.0,1645104390.1875,P11,D04,1,1,1
2232,-37.0,-30.0,43.0,1645104390.21875,P11,D04,1,1,1
2233,-37.0,-30.0,42.0,1645104390.25,P11,D04,1,1,1
2234,-37.0,-30.0,42.0,1645104390.28125,P11,D04,1,1,1
2235,-37.0,-31.0,42.0,1645104390.3125,P11,D04,1,1,1
2236,-37.0,-31.0,42.0,1645104390.34375,P11,D04,1,1,1
2237,-37.0,-30.0,43.0,1645104390.375,P11,D04,1,1,1
2238,-37.0,-30.0,42.0,1645104390.40625,P11,D04,1,1,1
2239,-37.0,-31.0,42.0,1645104390.4375,P11,D04,1,1,1
2240,-36.0,-30.0,43.0,1645104390.46875,P11,D04,1,1,1
2241,-37.0,-30.0,42.0,1645104390.5,P11,D04,1,1,1
2242,-37.0,-31.0,42.0,1645104390.53125,P11,D04,1,1,1
2243,-37.0,-30.0,43.0,1645104390.5625,P11,D04,1,1,1
2244,-37.0,-30.0,43.0,1645104390.59375,P11,D04,1,1,1
2245,-37.0,-30.0,42.0,1645104390.625,P11,D04,1,1,1
2246,-37.0,-30.0,43.0,1645104390.65625,P11,D04,1,1,1
2247,-37.0,-30.0,43.0,1645104390.6875,P11,D04,1,1,1
2248,-37.0,-30.0,42.0,1645104390.71875,P11,D04,1,1,1
2249,-37.0,-30.0,42.0,1645104390.75,P11,D04,1,1,1
2250,-37.0,-30.0,42.0,1645104390.78125,P11,D04,1,1,1
2251,-37.0,-30.0,43.0,1645104390.8125,P11,D04,1,1,1
2252,-37.0,-30.0,42.0,1645104390.84375,P11,D04,1,1,1
2253,-37.0,-30.0,43.0,1645104390.875,P11,D04,1,1,1
2254,-37.0,-30.0,42.0,1645104390.90625,P11,D04,1,1,1
2255,-37.0,-30.0,42.0,1645104390.9375,P11,D04,1,1,1
2256,-37.0,-30.0,42.0,1645104390.96875,P11,D04,1,1,1
2257,-37.0,-30.0,43.0,1645104391.0,P11,D04,1,1,1
2258,-37.0,-30.0,43.0,1645104391.03125,P11,D04,1,1,1
2259,-37.0,-30.0,43.0,1645104391.0625,P11,D04,1,1,1
2260,-37.0,-30.0,43.0,1645104391.09375,P11,D04,1,1,1
2261,-37.0,-31.0,42.0,1645104391.125,P11,D04,1,1,1
2262,-37.0,-30.0,43.0,1645104391.15625,P11,D04,1,1,1
2263,-37.0,-30.0,43.0,1645104391.1875,P11,D04,1,1,1
2264,-37.0,-30.0,42.0,1645104391.21875,P11,D04,1,1,1
2265,-37.0,-30.0,42.0,1645104391.25,P11,D04,1,1,1
2266,-37.0,-30.0,42.0,1645104391.28125,P11,D04,1,1,1
2267,-37.0,-30.0,42.0,1645104391.3125,P11,D04,1,1,1
2268,-37.0,-30.0,42.0,1645104391.34375,P11,D04,1,1,1
2269,-37.0,-30.0,43.0,1645104391.375,P11,D04,1,1,1
2270,-37.0,-30.0,42.0,1645104391.40625,P11,D04,1,1,1
2271,-37.0,-30.0,42.0,1645104391.4375,P11,D04,1,1,1
2272,-37.0,-30.0,43.0,1645104391.46875,P11,D04,1,1,1
2273,-37.0,-30.0,43.0,1645104391.5,P11,D04,1,1,1
2274,-37.0,-30.0,42.0,1645104391.53125,P11,D04,1,1,1
2275,-37.0,-30.0,43.0,1645104391.5625,P11,D04,1,1,1
2276,-37.0,-30.0,42.0,1645104391.59375,P11,D04,1,1,1
2277,-37.0,-30.0,43.0,1645104391.625,P11,D04,1,1,1
2278,-37.0,-30.0,42.0,1645104391.65625,P11,D04,1,1,1
2279,-37.0,-30.0,42.0,1645104391.6875,P11,D04,1,1,1
2280,-37.0,-30.0,42.0,1645104391.71875,P11,D04,1,1,1
2281,-37.0,-30.0,42.0,1645104391.75,P11,D04,1,1,1
2282,-37.0,-30.0,42.0,1645104391.78125,P11,D04,1,1,1
2283,-37.0,-30.0,42.0,1645104391.8125,P11,D04,1,1,1
2284,-37.0,-30.0,42.0,1645104391.84375,P11,D04,1,1,1
2285,-37.0,-30.0,42.0,1645104391.875,P11,D04,1,1,1
2286,-37.0,-31.0,42.0,1645104391.90625,P11,D04,1,1,1
2287,-37.0,-30.0,43.0,1645104391.9375,P11,D04,1,1,1
2288,-37.0,-30.0,42.0,1645104391.96875,P11,D04,1,1,1
2289,-37.0,-31.0,42.0,1645104392.0,P11,D04,1,1,1
2290,-37.0,-30.0,42.0,1645104392.03125,P11,D04,1,1,1
2291,-36.0,-30.0,43.0,1645104392.0625,P11,D04,1,1,1
2292,-37.0,-30.0,42.0,1645104392.09375,P11,D04,1,1,1
2293,-37.0,-30.0,42.0,1645104392.125,P11,D04,1,1,1
2294,-37.0,-31.0,42.0,1645104392.15625,P11,D04,1,1,1
2295,-37.0,-30.0,42.0,1645104392.1875,P11,D04,1,1,1
2296,-37.0,-30.0,43.0,1645104392.21875,P11,D04,1,1,1
2297,-37.0,-31.0,42.0,1645104392.25,P11,D04,1,1,1
2298,-37.0,-30.0,42.0,1645104392.28125,P11,D04,1,1,1
2299,-37.0,-30.0,42.0,1645104392.3125,P11,D04,1,1,1
2300,-37.0,-30.0,42.0,1645104392.34375,P11,D04,1,1,1
2301,-37.0,-30.0,42.0,1645104392.375,P11,D04,1,1,1
2302,-37.0,-30.0,42.0,1645104392.40625,P11,D04,1,1,1
2303,-37.0,-30.0,42.0,1645104392.4375,P11,D04,1,1,1
2304,-37.0,-30.0,42.0,1645104392.46875,P11,D04,1,1,1
2305,-37.0,-30.0,42.0,1645104392.5,P11,D04,1,1,1
2306,-37.0,-30.0,42.0,1645104392.53125,P11,D04,1,1,1
2307,-37.0,-30.0,42.0,1645104392.5625,P11,D04,1,1,1
2308,-37.0,-30.0,42.0,1645104392.59375,P11,D04,1,1,1
2309,-37.0,-30.0,42.0,1645104392.625,P11,D04,1,1,1
2310,-37.0,-30.0,42.0,1645104392.65625,P11,D04,1,1,1
2311,-37.0,-30.0,42.0,1645104392.6875,P11,D04,1,1,1
2312,-37.0,-30.0,43.0,1645104392.71875,P11,D04,1,1,1
2313,-37.0,-31.0,42.0,1645104392.75,P11,D04,1,1,1
2314,-37.0,-31.0,42.0,1645104392.78125,P11,D04,1,1,1
2315,-37.0,-30.0,42.0,1645104392.8125,P11,D04,1,1,1
2316,-37.0,-30.0,42.0,1645104392.84375,P11,D04,1,1,1
2317,-37.0,-30.0,42.0,1645104392.875,P11,D04,1,1,1
2318,-37.0,-30.0,43.0,1645104392.90625,P11,D04,1,1,1
2319,-37.0,-31.0,42.0,1645104392.9375,P11,D04,1,1,1
2320,-37.0,-30.0,42.0,1645104392.96875,P11,D04,1,1,1
2321,-37.0,-30.0,42.0,1645104393.0,P11,D04,1,1,1
2322,-37.0,-30.0,43.0,1645104393.03125,P11,D04,1,1,1
2323,-37.0,-30.0,42.0,1645104393.0625,P11,D04,1,1,1
2324,-37.0,-30.0,42.0,1645104393.09375,P11,D04,1,1,1
