,acc_x,acc_y,acc_z,timestamp,participant,document,val,arou,eng
0,27.0,-51.0,26.0,1645105962.25,P11,D09,0,1,0
1,25.0,-51.0,28.0,1645105962.28125,P11,D09,0,1,0
2,23.0,-51.0,32.0,1645105962.3125,P11,D09,0,1,0
3,23.0,-50.0,33.0,1645105962.34375,P11,D09,0,1,0
4,23.0,-49.0,32.0,1645105962.375,P11,D09,0,1,0
5,25.0,-50.0,31.0,1645105962.40625,P11,D09,0,1,0
6,28.0,-50.0,29.0,1645105962.4375,P11,D09,0,1,0
7,28.0,-50.0,26.0,1645105962.46875,P11,D09,0,1,0
8,29.0,-50.0,25.0,1645105962.5,P11,D09,0,1,0
9,30.0,-49.0,25.0,1645105962.53125,P11,D09,0,1,0
10,30.0,-49.0,24.0,1645105962.5625,P11,D09,0,1,0
11,31.0,-50.0,23.0,1645105962.59375,P11,D09,0,1,0
12,32.0,-50.0,22.0,1645105962.625,P11,D09,0,1,0
13,31.0,-50.0,22.0,1645105962.65625,P11,D09,0,1,0
14,30.0,-50.0,23.0,1645105962.6875,P11,D09,0,1,0
15,26.0,-50.0,27.0,1645105962.71875,P11,D09,0,1,0
16,26.0,-50.0,29.0,1645105962.75,P11,D09,0,1,0
17,25.0,-49.0,30.0,1645105962.78125,P11,D09,0,1,0
18,26.0,-50.0,28.0,1645105962.8125,P11,D09,0,1,0
19,26.0,-50.0,28.0,1645105962.84375,P11,D09,0,1,0
20,27.0,-49.0,27.0,1645105962.875,P11,D09,0,1,0
21,27.0,-49.0,28.0,1645105962.90625,P11,D09,0,1,0
22,27.0,-50.0,28.0,1645105962.9375,P11,D09,0,1,0
23,28.0,-50.0,27.0,1645105962.96875,P11,D09,0,1,0
24,29.0,-51.0,25.0,1645105963.0,P11,D09,0,1,0
25,29.0,-51.0,24.0,1645105963.03125,P11,D09,0,1,0
26,28.0,-51.0,24.0,1645105963.0625,P11,D09,0,1,0
27,29.0,-50.0,25.0,1645105963.09375,P11,D09,0,1,0
28,28.0,-50.0,25.0,1645105963.125,P11,D09,0,1,0
29,27.0,-50.0,25.0,1645105963.15625,P11,D09,0,1,0
30,27.0,-50.0,26.0,1645105963.1875,P11,D09,0,1,0
31,27.0,-50.0,26.0,1645105963.21875,P11,D09,0,1,0
32,27.0,-50.0,27.0,1645105963.25,P11,D09,0,1,0
33,27.0,-50.0,27.0,1645105963.28125,P11,D09,0,1,0
34,27.0,-50.0,27.0,1645105963.3125,P11,D09,0,1,0
35,27.0,-50.0,27.0,1645105963.34375,P11,D09,0,1,0
36,27.0,-51.0,26.0,1645105963.375,P11,D09,0,1,0
37,27.0,-51.0,26.0,1645105963.40625,P11,D09,0,1,0
38,27.0,-51.0,26.0,1645105963.4375,P11,D09,0,1,0
39,27.0,-51.0,26.0,1645105963.46875,P11,D09,0,1,0
40,27.0,-51.0,26.0,1645105963.5,P11,D09,0,1,0
41,27.0,-51.0,26.0,1645105963.53125,P11,D09,0,1,0
42,26.0,-51.0,26.0,1645105963.5625,P11,D09,0,1,0
43,27.0,-50.0,26.0,1645105963.59375,P11,D09,0,1,0
44,27.0,-50.0,26.0,1645105963.625,P11,D09,0,1,0
45,28.0,-50.0,26.0,1645105963.65625,P11,D09,0,1,0
46,27.0,-50.0,26.0,1645105963.6875,P11,D09,0,1,0
47,28.0,-51.0,26.0,1645105963.71875,P11,D09,0,1,0
48,27.0,-50.0,25.0,1645105963.75,P11,D09,0,1,0
49,27.0,-51.0,26.0,1645105963.78125,P11,D09,0,1,0
50,27.0,-51.0,27.0,1645105963.8125,P11,D09,0,1,0
51,26.0,-51.0,26.0,1645105963.84375,P11,D09,0,1,0
52,27.0,-50.0,27.0,1645105963.875,P11,D09,0,1,0
53,28.0,-50.0,26.0,1645105963.90625,P11,D09,0,1,0
54,27.0,-51.0,26.0,1645105963.9375,P11,D09,0,1,0
55,27.0,-50.0,27.0,1645105963.96875,P11,D09,0,1,0
56,27.0,-50.0,26.0,1645105964.0,P11,D09,0,1,0
57,28.0,-50.0,27.0,1645105964.03125,P11,D09,0,1,0
58,27.0,-50.0,26.0,1645105964.0625,P11,D09,0,1,0
59,27.0,-50.0,26.0,1645105964.09375,P11,D09,0,1,0
60,27.0,-50.0,26.0,1645105964.125,P11,D09,0,1,0
61,28.0,-50.0,26.0,1645105964.15625,P11,D09,0,1,0
62,27.0,-50.0,26.0,1645105964.1875,P11,D09,0,1,0
63,27.0,-50.0,26.0,1645105964.21875,P11,D09,0,1,0
64,28.0,-50.0,26.0,1645105964.25,P11,D09,0,1,0
65,27.0,-50.0,26.0,1645105964.28125,P11,D09,0,1,0
66,28.0,-50.0,26.0,1645105964.3125,P11,D09,0,1,0
67,28.0,-50.0,26.0,1645105964.34375,P11,D09,0,1,0
68,28.0,-50.0,26.0,1645105964.375,P11,D09,0,1,0
69,28.0,-50.0,26.0,1645105964.40625,P11,D09,0,1,0
70,28.0,-50.0,26.0,1645105964.4375,P11,D09,0,1,0
71,27.0,-50.0,26.0,1645105964.46875,P11,D09,0,1,0
72,28.0,-50.0,26.0,1645105964.5,P11,D09,0,1,0
73,28.0,-50.0,27.0,1645105964.53125,P11,D09,0,1,0
74,28.0,-50.0,26.0,1645105964.5625,P11,D09,0,1,0
75,28.0,-50.0,26.0,1645105964.59375,P11,D09,0,1,0
76,28.0,-50.0,26.0,1645105964.625,P11,D09,0,1,0
77,28.0,-50.0,26.0,1645105964.65625,P11,D09,0,1,0
78,28.0,-50.0,26.0,1645105964.6875,P11,D09,0,1,0
79,28.0,-50.0,26.0,1645105964.71875,P11,D09,0,1,0
80,28.0,-50.0,26.0,1645105964.75,P11,D09,0,1,0
81,28.0,-50.0,26.0,1645105964.78125,P11,D09,0,1,0
82,27.0,-51.0,26.0,1645105964.8125,P11,D09,0,1,0
83,28.0,-50.0,26.0,1645105964.84375,P11,D09,0,1,0
84,28.0,-50.0,26.0,1645105964.875,P11,D09,0,1,0
85,28.0,-50.0,26.0,1645105964.90625,P11,D09,0,1,0
86,28.0,-51.0,26.0,1645105964.9375,P11,D09,0,1,0
87,28.0,-50.0,26.0,1645105964.96875,P11,D09,0,1,0
88,27.0,-50.0,26.0,1645105965.0,P11,D09,0,1,0
89,27.0,-50.0,26.0,1645105965.03125,P11,D09,0,1,0
90,28.0,-50.0,26.0,1645105965.0625,P11,D09,0,1,0
91,27.0,-50.0,26.0,1645105965.09375,P11,D09,0,1,0
92,28.0,-50.0,26.0,1645105965.125,P11,D09,0,1,0
93,28.0,-50.0,26.0,1645105965.15625,P11,D09,0,1,0
94,27.0,-50.0,25.0,1645105965.1875,P11,D09,0,1,0
95,28.0,-50.0,26.0,1645105965.21875,P11,D09,0,1,0
96,27.0,-50.0,26.0,1645105965.25,P11,D09,0,1,0
97,27.0,-51.0,26.0,1645105965.28125,P11,D09,0,1,0
98,27.0,-50.0,26.0,1645105965.3125,P11,D09,0,1,0
99,28.0,-50.0,26.0,1645105965.34375,P11,D09,0,1,0
100,28.0,-50.0,26.0,1645105965.375,P11,D09,0,1,0
101,28.0,-50.0,26.0,1645105965.40625,P11,D09,0,1,0
102,28.0,-50.0,26.0,1645105965.4375,P11,D09,0,1,0
103,27.0,-50.0,26.0,1645105965.46875,P11,D09,0,1,0
104,28.0,-50.0,26.0,1645105965.5,P11,D09,0,1,0
105,27.0,-51.0,26.0,1645105965.53125,P11,D09,0,1,0
106,27.0,-51.0,26.0,1645105965.5625,P11,D09,0,1,0
107,27.0,-51.0,26.0,1645105965.59375,P11,D09,0,1,0
108,27.0,-51.0,26.0,1645105965.625,P11,D09,0,1,0
109,28.0,-50.0,26.0,1645105965.65625,P11,D09,0,1,0
110,28.0,-51.0,25.0,1645105965.6875,P11,D09,0,1,0
111,28.0,-51.0,26.0,1645105965.71875,P11,D09,0,1,0
112,27.0,-50.0,26.0,1645105965.75,P11,D09,0,1,0
113,27.0,-50.0,26.0,1645105965.78125,P11,D09,0,1,0
114,27.0,-51.0,26.0,1645105965.8125,P11,D09,0,1,0
115,27.0,-51.0,26.0,1645105965.84375,P11,D09,0,1,0
116,28.0,-50.0,27.0,1645105965.875,P11,D09,0,1,0
117,28.0,-50.0,26.0,1645105965.90625,P11,D09,0,1,0
118,27.0,-50.0,26.0,1645105965.9375,P11,D09,0,1,0
119,28.0,-50.0,27.0,1645105965.96875,P11,D09,0,1,0
120,27.0,-51.0,26.0,1645105966.0,P11,D09,0,1,0
121,27.0,-51.0,26.0,1645105966.03125,P11,D09,0,1,0
122,27.0,-51.0,26.0,1645105966.0625,P11,D09,0,1,0
123,27.0,-50.0,26.0,1645105966.09375,P11,D09,0,1,0
124,27.0,-51.0,26.0,1645105966.125,P11,D09,0,1,0
125,27.0,-51.0,26.0,1645105966.15625,P11,D09,0,1,0
126,27.0,-50.0,26.0,1645105966.1875,P11,D09,0,1,0
127,27.0,-51.0,26.0,1645105966.21875,P11,D09,0,1,0
128,27.0,-51.0,26.0,1645105966.25,P11,D09,0,1,0
129,27.0,-51.0,26.0,1645105966.28125,P11,D09,0,1,0
130,27.0,-51.0,26.0,1645105966.3125,P11,D09,0,1,0
131,27.0,-50.0,26.0,1645105966.34375,P11,D09,0,1,0
132,27.0,-51.0,26.0,1645105966.375,P11,D09,0,1,0
133,27.0,-50.0,26.0,1645105966.40625,P11,D09,0,1,0
134,27.0,-50.0,26.0,1645105966.4375,P11,D09,0,1,0
135,27.0,-50.0,26.0,1645105966.46875,P11,D09,0,1,0
136,27.0,-51.0,26.0,1645105966.5,P11,D09,0,1,0
137,27.0,-51.0,26.0,1645105966.53125,P11,D09,0,1,0
138,27.0,-50.0,26.0,1645105966.5625,P11,D09,0,1,0
139,27.0,-51.0,26.0,1645105966.59375,P11,D09,0,1,0
140,27.0,-50.0,26.0,1645105966.625,P11,D09,0,1,0
141,28.0,-50.0,27.0,1645105966.65625,P11,D09,0,1,0
142,27.0,-50.0,26.0,1645105966.6875,P11,D09,0,1,0
143,27.0,-50.0,25.0,1645105966.71875,P11,D09,0,1,0
144,27.0,-51.0,27.0,1645105966.75,P11,D09,0,1,0
145,27.0,-50.0,26.0,1645105966.78125,P11,D09,0,1,0
146,27.0,-50.0,26.0,1645105966.8125,P11,D09,0,1,0
147,28.0,-50.0,26.0,1645105966.84375,P11,D09,0,1,0
148,28.0,-50.0,26.0,1645105966.875,P11,D09,0,1,0
149,28.0,-50.0,27.0,1645105966.90625,P11,D09,0,1,0
150,28.0,-50.0,26.0,1645105966.9375,P11,D09,0,1,0
151,28.0,-50.0,26.0,1645105966.96875,P11,D09,0,1,0
152,28.0,-50.0,27.0,1645105967.0,P11,D09,0,1,0
153,28.0,-50.0,26.0,1645105967.03125,P11,D09,0,1,0
154,28.0,-50.0,26.0,1645105967.0625,P11,D09,0,1,0
155,28.0,-50.0,26.0,1645105967.09375,P11,D09,0,1,0
156,28.0,-50.0,26.0,1645105967.125,P11,D09,0,1,0
157,28.0,-50.0,26.0,1645105967.15625,P11,D09,0,1,0
158,28.0,-50.0,26.0,1645105967.1875,P11,D09,0,1,0
159,28.0,-50.0,26.0,1645105967.21875,P11,D09,0,1,0
160,27.0,-50.0,26.0,1645105967.25,P11,D09,0,1,0
161,27.0,-50.0,26.0,1645105967.28125,P11,D09,0,1,0
162,28.0,-50.0,26.0,1645105967.3125,P11,D09,0,1,0
163,28.0,-50.0,26.0,1645105967.34375,P11,D09,0,1,0
164,28.0,-50.0,26.0,1645105967.375,P11,D09,0,1,0
165,29.0,-50.0,26.0,1645105967.40625,P11,D09,0,1,0
166,27.0,-50.0,25.0,1645105967.4375,P11,D09,0,1,0
167,28.0,-50.0,27.0,1645105967.46875,P11,D09,0,1,0
168,27.0,-50.0,27.0,1645105967.5,P11,D09,0,1,0
169,28.0,-50.0,26.0,1645105967.53125,P11,D09,0,1,0
170,27.0,-50.0,26.0,1645105967.5625,P11,D09,0,1,0
171,28.0,-50.0,26.0,1645105967.59375,P11,D09,0,1,0
172,28.0,-50.0,26.0,1645105967.625,P11,D09,0,1,0
173,28.0,-51.0,26.0,1645105967.65625,P11,D09,0,1,0
174,28.0,-50.0,26.0,1645105967.6875,P11,D09,0,1,0
175,28.0,-50.0,26.0,1645105967.71875,P11,D09,0,1,0
176,28.0,-50.0,26.0,1645105967.75,P11,D09,0,1,0
177,28.0,-51.0,26.0,1645105967.78125,P11,D09,0,1,0
178,27.0,-50.0,27.0,1645105967.8125,P11,D09,0,1,0
179,28.0,-50.0,26.0,1645105967.84375,P11,D09,0,1,0
180,27.0,-50.0,26.0,1645105967.875,P11,D09,0,1,0
181,27.0,-50.0,26.0,1645105967.90625,P11,D09,0,1,0
182,27.0,-51.0,26.0,1645105967.9375,P11,D09,0,1,0
183,28.0,-50.0,26.0,1645105967.96875,P11,D09,0,1,0
184,28.0,-50.0,26.0,1645105968.0,P11,D09,0,1,0
185,27.0,-50.0,26.0,1645105968.03125,P11,D09,0,1,0
186,28.0,-51.0,26.0,1645105968.0625,P11,D09,0,1,0
187,27.0,-51.0,26.0,1645105968.09375,P11,D09,0,1,0
188,28.0,-50.0,27.0,1645105968.125,P11,D09,0,1,0
189,28.0,-50.0,26.0,1645105968.15625,P11,D09,0,1,0
190,27.0,-50.0,25.0,1645105968.1875,P11,D09,0,1,0
191,28.0,-50.0,27.0,1645105968.21875,P11,D09,0,1,0
192,27.0,-51.0,26.0,1645105968.25,P11,D09,0,1,0
193,27.0,-50.0,26.0,1645105968.28125,P11,D09,0,1,0
194,27.0,-50.0,26.0,1645105968.3125,P11,D09,0,1,0
195,27.0,-50.0,26.0,1645105968.34375,P11,D09,0,1,0
196,27.0,-51.0,26.0,1645105968.375,P11,D09,0,1,0
197,28.0,-51.0,26.0,1645105968.40625,P11,D09,0,1,0
198,27.0,-51.0,26.0,1645105968.4375,P11,D09,0,1,0
199,27.0,-50.0,26.0,1645105968.46875,P11,D09,0,1,0
200,27.0,-50.0,26.0,1645105968.5,P11,D09,0,1,0
201,27.0,-50.0,26.0,1645105968.53125,P11,D09,0,1,0
202,27.0,-51.0,26.0,1645105968.5625,P11,D09,0,1,0
203,27.0,-51.0,26.0,1645105968.59375,P11,D09,0,1,0
204,27.0,-51.0,26.0,1645105968.625,P11,D09,0,1,0
205,27.0,-50.0,26.0,1645105968.65625,P11,D09,0,1,0
206,27.0,-51.0,26.0,1645105968.6875,P11,D09,0,1,0
207,27.0,-51.0,26.0,1645105968.71875,P11,D09,0,1,0
208,27.0,-51.0,26.0,1645105968.75,P11,D09,0,1,0
209,27.0,-50.0,26.0,1645105968.78125,P11,D09,0,1,0
210,27.0,-51.0,26.0,1645105968.8125,P11,D09,0,1,0
211,27.0,-51.0,26.0,1645105968.84375,P11,D09,0,1,0
212,27.0,-50.0,26.0,1645105968.875,P11,D09,0,1,0
213,28.0,-51.0,26.0,1645105968.90625,P11,D09,0,1,0
214,28.0,-51.0,26.0,1645105968.9375,P11,D09,0,1,0
215,26.0,-50.0,26.0,1645105968.96875,P11,D09,0,1,0
216,28.0,-50.0,27.0,1645105969.0,P11,D09,0,1,0
217,27.0,-51.0,26.0,1645105969.03125,P11,D09,0,1,0
218,27.0,-51.0,26.0,1645105969.0625,P11,D09,0,1,0
219,27.0,-51.0,27.0,1645105969.09375,P11,D09,0,1,0
220,27.0,-51.0,26.0,1645105969.125,P11,D09,0,1,0
221,27.0,-51.0,26.0,1645105969.15625,P11,D09,0,1,0
222,27.0,-50.0,26.0,1645105969.1875,P11,D09,0,1,0
223,28.0,-51.0,26.0,1645105969.21875,P11,D09,0,1,0
224,28.0,-50.0,26.0,1645105969.25,P11,D09,0,1,0
225,27.0,-50.0,26.0,1645105969.28125,P11,D09,0,1,0
226,27.0,-51.0,26.0,1645105969.3125,P11,D09,0,1,0
227,27.0,-51.0,26.0,1645105969.34375,P11,D09,0,1,0
228,27.0,-50.0,26.0,1645105969.375,P11,D09,0,1,0
229,27.0,-50.0,26.0,1645105969.40625,P11,D09,0,1,0
230,27.0,-50.0,26.0,1645105969.4375,P11,D09,0,1,0
231,27.0,-50.0,26.0,1645105969.46875,P11,D09,0,1,0
232,28.0,-50.0,26.0,1645105969.5,P11,D09,0,1,0
233,27.0,-50.0,26.0,1645105969.53125,P11,D09,0,1,0
234,28.0,-50.0,26.0,1645105969.5625,P11,D09,0,1,0
235,27.0,-50.0,26.0,1645105969.59375,P11,D09,0,1,0
236,28.0,-50.0,26.0,1645105969.625,P11,D09,0,1,0
237,28.0,-50.0,26.0,1645105969.65625,P11,D09,0,1,0
238,28.0,-50.0,26.0,1645105969.6875,P11,D09,0,1,0
239,28.0,-50.0,27.0,1645105969.71875,P11,D09,0,1,0
240,28.0,-50.0,26.0,1645105969.75,P11,D09,0,1,0
241,27.0,-50.0,26.0,1645105969.78125,P11,D09,0,1,0
242,28.0,-50.0,26.0,1645105969.8125,P11,D09,0,1,0
243,27.0,-50.0,26.0,1645105969.84375,P11,D09,0,1,0
244,28.0,-50.0,26.0,1645105969.875,P11,D09,0,1,0
245,28.0,-50.0,26.0,1645105969.90625,P11,D09,0,1,0
246,28.0,-50.0,26.0,1645105969.9375,P11,D09,0,1,0
247,28.0,-50.0,26.0,1645105969.96875,P11,D09,0,1,0
248,28.0,-50.0,26.0,1645105970.0,P11,D09,0,1,0
249,28.0,-50.0,26.0,1645105970.03125,P11,D09,0,1,0
250,28.0,-50.0,26.0,1645105970.0625,P11,D09,0,1,0
251,28.0,-50.0,26.0,1645105970.09375,P11,D09,0,1,0
252,28.0,-50.0,26.0,1645105970.125,P11,D09,0,1,0
253,27.0,-50.0,26.0,1645105970.15625,P11,D09,0,1,0
254,28.0,-50.0,26.0,1645105970.1875,P11,D09,0,1,0
255,28.0,-50.0,26.0,1645105970.21875,P11,D09,0,1,0
256,28.0,-50.0,26.0,1645105970.25,P11,D09,0,1,0
257,28.0,-50.0,26.0,1645105970.28125,P11,D09,0,1,0
258,28.0,-50.0,26.0,1645105970.3125,P11,D09,0,1,0
259,28.0,-50.0,26.0,1645105970.34375,P11,D09,0,1,0
260,28.0,-50.0,26.0,1645105970.375,P11,D09,0,1,0
261,28.0,-50.0,26.0,1645105970.40625,P11,D09,0,1,0
262,28.0,-50.0,26.0,1645105970.4375,P11,D09,0,1,0
263,28.0,-50.0,26.0,1645105970.46875,P11,D09,0,1,0
264,28.0,-50.0,27.0,1645105970.5,P11,D09,0,1,0
265,27.0,-50.0,26.0,1645105970.53125,P11,D09,0,1,0
266,28.0,-50.0,26.0,1645105970.5625,P11,D09,0,1,0
267,28.0,-51.0,26.0,1645105970.59375,P11,D09,0,1,0
268,27.0,-51.0,26.0,1645105970.625,P11,D09,0,1,0
269,27.0,-50.0,26.0,1645105970.65625,P11,D09,0,1,0
270,28.0,-50.0,26.0,1645105970.6875,P11,D09,0,1,0
271,28.0,-50.0,26.0,1645105970.71875,P11,D09,0,1,0
272,28.0,-51.0,26.0,1645105970.75,P11,D09,0,1,0
273,28.0,-50.0,26.0,1645105970.78125,P11,D09,0,1,0
274,27.0,-50.0,26.0,1645105970.8125,P11,D09,0,1,0
275,28.0,-50.0,26.0,1645105970.84375,P11,D09,0,1,0
276,28.0,-50.0,26.0,1645105970.875,P11,D09,0,1,0
277,28.0,-51.0,26.0,1645105970.90625,P11,D09,0,1,0
278,27.0,-51.0,26.0,1645105970.9375,P11,D09,0,1,0
279,27.0,-50.0,26.0,1645105970.96875,P11,D09,0,1,0
280,28.0,-50.0,26.0,1645105971.0,P11,D09,0,1,0
281,27.0,-50.0,26.0,1645105971.03125,P11,D09,0,1,0
282,28.0,-50.0,26.0,1645105971.0625,P11,D09,0,1,0
283,28.0,-51.0,26.0,1645105971.09375,P11,D09,0,1,0
284,28.0,-50.0,26.0,1645105971.125,P11,D09,0,1,0
285,28.0,-50.0,26.0,1645105971.15625,P11,D09,0,1,0
286,28.0,-51.0,26.0,1645105971.1875,P11,D09,0,1,0
287,27.0,-51.0,26.0,1645105971.21875,P11,D09,0,1,0
288,27.0,-50.0,26.0,1645105971.25,P11,D09,0,1,0
289,28.0,-50.0,27.0,1645105971.28125,P11,D09,0,1,0
290,27.0,-50.0,26.0,1645105971.3125,P11,D09,0,1,0
291,28.0,-50.0,26.0,1645105971.34375,P11,D09,0,1,0
292,27.0,-50.0,26.0,1645105971.375,P11,D09,0,1,0
293,27.0,-50.0,26.0,1645105971.40625,P11,D09,0,1,0
294,27.0,-50.0,26.0,1645105971.4375,P11,D09,0,1,0
295,27.0,-50.0,26.0,1645105971.46875,P11,D09,0,1,0
296,27.0,-50.0,26.0,1645105971.5,P11,D09,0,1,0
297,28.0,-51.0,26.0,1645105971.53125,P11,D09,0,1,0
298,27.0,-51.0,26.0,1645105971.5625,P11,D09,0,1,0
299,27.0,-51.0,25.0,1645105971.59375,P11,D09,0,1,0
300,28.0,-50.0,26.0,1645105971.625,P11,D09,0,1,0
301,27.0,-51.0,26.0,1645105971.65625,P11,D09,0,1,0
302,27.0,-51.0,26.0,1645105971.6875,P11,D09,0,1,0
303,27.0,-50.0,26.0,1645105971.71875,P11,D09,0,1,0
304,27.0,-51.0,26.0,1645105971.75,P11,D09,0,1,0
305,27.0,-50.0,26.0,1645105971.78125,P11,D09,0,1,0
306,27.0,-51.0,26.0,1645105971.8125,P11,D09,0,1,0
307,27.0,-51.0,26.0,1645105971.84375,P11,D09,0,1,0
308,27.0,-50.0,26.0,1645105971.875,P11,D09,0,1,0
309,27.0,-51.0,26.0,1645105971.90625,P11,D09,0,1,0
310,27.0,-51.0,26.0,1645105971.9375,P11,D09,0,1,0
311,27.0,-51.0,26.0,1645105971.96875,P11,D09,0,1,0
312,27.0,-50.0,26.0,1645105972.0,P11,D09,0,1,0
313,27.0,-50.0,26.0,1645105972.03125,P11,D09,0,1,0
314,27.0,-51.0,26.0,1645105972.0625,P11,D09,0,1,0
315,28.0,-51.0,26.0,1645105972.09375,P11,D09,0,1,0
316,27.0,-50.0,26.0,1645105972.125,P11,D09,0,1,0
317,27.0,-50.0,26.0,1645105972.15625,P11,D09,0,1,0
318,28.0,-51.0,26.0,1645105972.1875,P11,D09,0,1,0
319,27.0,-51.0,25.0,1645105972.21875,P11,D09,0,1,0
320,27.0,-50.0,26.0,1645105972.25,P11,D09,0,1,0
321,28.0,-50.0,26.0,1645105972.28125,P11,D09,0,1,0
322,27.0,-51.0,26.0,1645105972.3125,P11,D09,0,1,0
323,28.0,-51.0,26.0,1645105972.34375,P11,D09,0,1,0
324,27.0,-50.0,26.0,1645105972.375,P11,D09,0,1,0
325,27.0,-50.0,26.0,1645105972.40625,P11,D09,0,1,0
326,27.0,-50.0,26.0,1645105972.4375,P11,D09,0,1,0
327,28.0,-50.0,26.0,1645105972.46875,P11,D09,0,1,0
328,28.0,-51.0,26.0,1645105972.5,P11,D09,0,1,0
329,28.0,-51.0,26.0,1645105972.53125,P11,D09,0,1,0
330,28.0,-50.0,26.0,1645105972.5625,P11,D09,0,1,0
331,28.0,-50.0,26.0,1645105972.59375,P11,D09,0,1,0
332,28.0,-50.0,26.0,1645105972.625,P11,D09,0,1,0
333,27.0,-50.0,26.0,1645105972.65625,P11,D09,0,1,0
334,28.0,-50.0,26.0,1645105972.6875,P11,D09,0,1,0
335,27.0,-50.0,26.0,1645105972.71875,P11,D09,0,1,0
336,28.0,-51.0,26.0,1645105972.75,P11,D09,0,1,0
337,27.0,-50.0,26.0,1645105972.78125,P11,D09,0,1,0
338,28.0,-50.0,26.0,1645105972.8125,P11,D09,0,1,0
339,28.0,-50.0,26.0,1645105972.84375,P11,D09,0,1,0
340,28.0,-50.0,26.0,1645105972.875,P11,D09,0,1,0
341,28.0,-50.0,27.0,1645105972.90625,P11,D09,0,1,0
342,28.0,-50.0,26.0,1645105972.9375,P11,D09,0,1,0
343,27.0,-50.0,26.0,1645105972.96875,P11,D09,0,1,0
344,28.0,-51.0,26.0,1645105973.0,P11,D09,0,1,0
345,28.0,-50.0,26.0,1645105973.03125,P11,D09,0,1,0
346,28.0,-50.0,26.0,1645105973.0625,P11,D09,0,1,0
347,28.0,-50.0,26.0,1645105973.09375,P11,D09,0,1,0
348,28.0,-50.0,26.0,1645105973.125,P11,D09,0,1,0
349,28.0,-50.0,26.0,1645105973.15625,P11,D09,0,1,0
350,28.0,-50.0,26.0,1645105973.1875,P11,D09,0,1,0
351,28.0,-50.0,26.0,1645105973.21875,P11,D09,0,1,0
352,28.0,-50.0,26.0,1645105973.25,P11,D09,0,1,0
353,28.0,-50.0,26.0,1645105973.28125,P11,D09,0,1,0
354,28.0,-50.0,26.0,1645105973.3125,P11,D09,0,1,0
355,28.0,-50.0,26.0,1645105973.34375,P11,D09,0,1,0
356,28.0,-50.0,26.0,1645105973.375,P11,D09,0,1,0
357,28.0,-50.0,26.0,1645105973.40625,P11,D09,0,1,0
358,28.0,-50.0,26.0,1645105973.4375,P11,D09,0,1,0
359,28.0,-50.0,26.0,1645105973.46875,P11,D09,0,1,0
360,28.0,-50.0,26.0,1645105973.5,P11,D09,0,1,0
361,28.0,-50.0,26.0,1645105973.53125,P11,D09,0,1,0
362,28.0,-50.0,26.0,1645105973.5625,P11,D09,0,1,0
363,28.0,-50.0,26.0,1645105973.59375,P11,D09,0,1,0
364,28.0,-50.0,26.0,1645105973.625,P11,D09,0,1,0
365,28.0,-50.0,26.0,1645105973.65625,P11,D09,0,1,0
366,28.0,-50.0,26.0,1645105973.6875,P11,D09,0,1,0
367,27.0,-50.0,25.0,1645105973.71875,P11,D09,0,1,0
368,28.0,-50.0,26.0,1645105973.75,P11,D09,0,1,0
369,27.0,-51.0,26.0,1645105973.78125,P11,D09,0,1,0
370,28.0,-50.0,26.0,1645105973.8125,P11,D09,0,1,0
371,28.0,-50.0,26.0,1645105973.84375,P11,D09,0,1,0
372,28.0,-50.0,26.0,1645105973.875,P11,D09,0,1,0
373,28.0,-50.0,26.0,1645105973.90625,P11,D09,0,1,0
374,28.0,-50.0,26.0,1645105973.9375,P11,D09,0,1,0
375,28.0,-50.0,26.0,1645105973.96875,P11,D09,0,1,0
376,28.0,-50.0,26.0,1645105974.0,P11,D09,0,1,0
377,28.0,-50.0,26.0,1645105974.03125,P11,D09,0,1,0
378,28.0,-50.0,26.0,1645105974.0625,P11,D09,0,1,0
379,27.0,-50.0,26.0,1645105974.09375,P11,D09,0,1,0
380,28.0,-50.0,26.0,1645105974.125,P11,D09,0,1,0
381,28.0,-50.0,26.0,1645105974.15625,P11,D09,0,1,0
382,28.0,-51.0,26.0,1645105974.1875,P11,D09,0,1,0
383,27.0,-50.0,26.0,1645105974.21875,P11,D09,0,1,0
384,28.0,-50.0,26.0,1645105974.25,P11,D09,0,1,0
385,28.0,-50.0,26.0,1645105974.28125,P11,D09,0,1,0
386,28.0,-50.0,26.0,1645105974.3125,P11,D09,0,1,0
387,27.0,-50.0,26.0,1645105974.34375,P11,D09,0,1,0
388,28.0,-50.0,26.0,1645105974.375,P11,D09,0,1,0
389,27.0,-50.0,26.0,1645105974.40625,P11,D09,0,1,0
390,28.0,-50.0,26.0,1645105974.4375,P11,D09,0,1,0
391,28.0,-51.0,26.0,1645105974.46875,P11,D09,0,1,0
392,27.0,-50.0,25.0,1645105974.5,P11,D09,0,1,0
393,28.0,-50.0,26.0,1645105974.53125,P11,D09,0,1,0
394,27.0,-50.0,26.0,1645105974.5625,P11,D09,0,1,0
395,27.0,-50.0,26.0,1645105974.59375,P11,D09,0,1,0
396,28.0,-50.0,26.0,1645105974.625,P11,D09,0,1,0
397,28.0,-50.0,25.0,1645105974.65625,P11,D09,0,1,0
398,27.0,-51.0,26.0,1645105974.6875,P11,D09,0,1,0
399,27.0,-51.0,26.0,1645105974.71875,P11,D09,0,1,0
400,28.0,-51.0,26.0,1645105974.75,P11,D09,0,1,0
401,28.0,-50.0,26.0,1645105974.78125,P11,D09,0,1,0
402,27.0,-50.0,26.0,1645105974.8125,P11,D09,0,1,0
403,27.0,-51.0,26.0,1645105974.84375,P11,D09,0,1,0
404,27.0,-51.0,26.0,1645105974.875,P11,D09,0,1,0
405,27.0,-51.0,26.0,1645105974.90625,P11,D09,0,1,0
406,27.0,-51.0,26.0,1645105974.9375,P11,D09,0,1,0
407,27.0,-51.0,26.0,1645105974.96875,P11,D09,0,1,0
408,27.0,-50.0,26.0,1645105975.0,P11,D09,0,1,0
409,27.0,-51.0,26.0,1645105975.03125,P11,D09,0,1,0
410,27.0,-51.0,26.0,1645105975.0625,P11,D09,0,1,0
411,27.0,-51.0,26.0,1645105975.09375,P11,D09,0,1,0
412,27.0,-51.0,26.0,1645105975.125,P11,D09,0,1,0
413,27.0,-51.0,25.0,1645105975.15625,P11,D09,0,1,0
414,28.0,-51.0,26.0,1645105975.1875,P11,D09,0,1,0
415,28.0,-50.0,26.0,1645105975.21875,P11,D09,0,1,0
416,27.0,-50.0,25.0,1645105975.25,P11,D09,0,1,0
417,28.0,-50.0,26.0,1645105975.28125,P11,D09,0,1,0
418,27.0,-50.0,26.0,1645105975.3125,P11,D09,0,1,0
419,27.0,-51.0,26.0,1645105975.34375,P11,D09,0,1,0
420,27.0,-50.0,26.0,1645105975.375,P11,D09,0,1,0
421,28.0,-50.0,26.0,1645105975.40625,P11,D09,0,1,0
422,28.0,-51.0,26.0,1645105975.4375,P11,D09,0,1,0
423,28.0,-51.0,26.0,1645105975.46875,P11,D09,0,1,0
424,28.0,-50.0,26.0,1645105975.5,P11,D09,0,1,0
425,28.0,-50.0,26.0,1645105975.53125,P11,D09,0,1,0
426,28.0,-50.0,26.0,1645105975.5625,P11,D09,0,1,0
427,28.0,-51.0,26.0,1645105975.59375,P11,D09,0,1,0
428,28.0,-51.0,26.0,1645105975.625,P11,D09,0,1,0
429,28.0,-50.0,26.0,1645105975.65625,P11,D09,0,1,0
430,28.0,-50.0,26.0,1645105975.6875,P11,D09,0,1,0
431,28.0,-50.0,26.0,1645105975.71875,P11,D09,0,1,0
432,28.0,-50.0,26.0,1645105975.75,P11,D09,0,1,0
433,28.0,-50.0,26.0,1645105975.78125,P11,D09,0,1,0
434,28.0,-50.0,26.0,1645105975.8125,P11,D09,0,1,0
435,28.0,-50.0,26.0,1645105975.84375,P11,D09,0,1,0
436,28.0,-50.0,26.0,1645105975.875,P11,D09,0,1,0
437,28.0,-50.0,26.0,1645105975.90625,P11,D09,0,1,0
438,28.0,-50.0,26.0,1645105975.9375,P11,D09,0,1,0
439,28.0,-50.0,27.0,1645105975.96875,P11,D09,0,1,0
440,28.0,-50.0,26.0,1645105976.0,P11,D09,0,1,0
441,28.0,-50.0,26.0,1645105976.03125,P11,D09,0,1,0
442,28.0,-50.0,26.0,1645105976.0625,P11,D09,0,1,0
443,28.0,-50.0,26.0,1645105976.09375,P11,D09,0,1,0
444,28.0,-50.0,26.0,1645105976.125,P11,D09,0,1,0
445,28.0,-50.0,26.0,1645105976.15625,P11,D09,0,1,0
446,28.0,-50.0,26.0,1645105976.1875,P11,D09,0,1,0
447,28.0,-50.0,26.0,1645105976.21875,P11,D09,0,1,0
448,28.0,-50.0,26.0,1645105976.25,P11,D09,0,1,0
449,28.0,-50.0,26.0,1645105976.28125,P11,D09,0,1,0
450,28.0,-50.0,26.0,1645105976.3125,P11,D09,0,1,0
451,28.0,-50.0,26.0,1645105976.34375,P11,D09,0,1,0
452,28.0,-50.0,26.0,1645105976.375,P11,D09,0,1,0
453,28.0,-50.0,26.0,1645105976.40625,P11,D09,0,1,0
454,28.0,-50.0,26.0,1645105976.4375,P11,D09,0,1,0
455,27.0,-50.0,26.0,1645105976.46875,P11,D09,0,1,0
456,28.0,-50.0,26.0,1645105976.5,P11,D09,0,1,0
457,28.0,-50.0,26.0,1645105976.53125,P11,D09,0,1,0
458,28.0,-50.0,26.0,1645105976.5625,P11,D09,0,1,0
459,28.0,-50.0,26.0,1645105976.59375,P11,D09,0,1,0
460,28.0,-50.0,26.0,1645105976.625,P11,D09,0,1,0
461,28.0,-50.0,26.0,1645105976.65625,P11,D09,0,1,0
462,27.0,-50.0,26.0,1645105976.6875,P11,D09,0,1,0
463,28.0,-50.0,26.0,1645105976.71875,P11,D09,0,1,0
464,28.0,-50.0,26.0,1645105976.75,P11,D09,0,1,0
465,28.0,-50.0,25.0,1645105976.78125,P11,D09,0,1,0
466,28.0,-50.0,26.0,1645105976.8125,P11,D09,0,1,0
467,27.0,-51.0,26.0,1645105976.84375,P11,D09,0,1,0
468,27.0,-50.0,26.0,1645105976.875,P11,D09,0,1,0
469,28.0,-50.0,26.0,1645105976.90625,P11,D09,0,1,0
470,28.0,-50.0,26.0,1645105976.9375,P11,D09,0,1,0
471,28.0,-50.0,26.0,1645105976.96875,P11,D09,0,1,0
472,28.0,-51.0,26.0,1645105977.0,P11,D09,0,1,0
473,28.0,-50.0,26.0,1645105977.03125,P11,D09,0,1,0
474,28.0,-50.0,26.0,1645105977.0625,P11,D09,0,1,0
475,28.0,-50.0,26.0,1645105977.09375,P11,D09,0,1,0
476,27.0,-51.0,26.0,1645105977.125,P11,D09,0,1,0
477,27.0,-51.0,26.0,1645105977.15625,P11,D09,0,1,0
478,27.0,-50.0,26.0,1645105977.1875,P11,D09,0,1,0
479,27.0,-50.0,26.0,1645105977.21875,P11,D09,0,1,0
480,28.0,-51.0,26.0,1645105977.25,P11,D09,0,1,0
481,28.0,-50.0,26.0,1645105977.28125,P11,D09,0,1,0
482,28.0,-50.0,26.0,1645105977.3125,P11,D09,0,1,0
483,27.0,-51.0,26.0,1645105977.34375,P11,D09,0,1,0
484,27.0,-51.0,26.0,1645105977.375,P11,D09,0,1,0
485,27.0,-50.0,26.0,1645105977.40625,P11,D09,0,1,0
486,27.0,-51.0,26.0,1645105977.4375,P11,D09,0,1,0
487,27.0,-51.0,26.0,1645105977.46875,P11,D09,0,1,0
488,27.0,-51.0,26.0,1645105977.5,P11,D09,0,1,0
489,28.0,-50.0,26.0,1645105977.53125,P11,D09,0,1,0
490,28.0,-50.0,26.0,1645105977.5625,P11,D09,0,1,0
491,27.0,-50.0,26.0,1645105977.59375,P11,D09,0,1,0
492,28.0,-51.0,26.0,1645105977.625,P11,D09,0,1,0
493,27.0,-51.0,26.0,1645105977.65625,P11,D09,0,1,0
494,27.0,-51.0,26.0,1645105977.6875,P11,D09,0,1,0
495,27.0,-51.0,26.0,1645105977.71875,P11,D09,0,1,0
496,28.0,-51.0,26.0,1645105977.75,P11,D09,0,1,0
497,27.0,-51.0,26.0,1645105977.78125,P11,D09,0,1,0
498,28.0,-51.0,26.0,1645105977.8125,P11,D09,0,1,0
499,28.0,-51.0,26.0,1645105977.84375,P11,D09,0,1,0
500,28.0,-50.0,26.0,1645105977.875,P11,D09,0,1,0
501,28.0,-51.0,26.0,1645105977.90625,P11,D09,0,1,0
502,27.0,-51.0,26.0,1645105977.9375,P11,D09,0,1,0
503,27.0,-50.0,26.0,1645105977.96875,P11,D09,0,1,0
504,27.0,-50.0,26.0,1645105978.0,P11,D09,0,1,0
505,27.0,-51.0,26.0,1645105978.03125,P11,D09,0,1,0
506,27.0,-50.0,26.0,1645105978.0625,P11,D09,0,1,0
507,27.0,-50.0,26.0,1645105978.09375,P11,D09,0,1,0
508,28.0,-50.0,26.0,1645105978.125,P11,D09,0,1,0
509,28.0,-50.0,26.0,1645105978.15625,P11,D09,0,1,0
510,28.0,-50.0,26.0,1645105978.1875,P11,D09,0,1,0
511,28.0,-50.0,26.0,1645105978.21875,P11,D09,0,1,0
512,28.0,-50.0,26.0,1645105978.25,P11,D09,0,1,0
513,28.0,-50.0,26.0,1645105978.28125,P11,D09,0,1,0
514,28.0,-50.0,26.0,1645105978.3125,P11,D09,0,1,0
515,28.0,-50.0,26.0,1645105978.34375,P11,D09,0,1,0
516,28.0,-50.0,26.0,1645105978.375,P11,D09,0,1,0
517,28.0,-50.0,26.0,1645105978.40625,P11,D09,0,1,0
518,28.0,-50.0,26.0,1645105978.4375,P11,D09,0,1,0
519,28.0,-50.0,26.0,1645105978.46875,P11,D09,0,1,0
520,28.0,-50.0,25.0,1645105978.5,P11,D09,0,1,0
521,28.0,-50.0,26.0,1645105978.53125,P11,D09,0,1,0
522,27.0,-50.0,26.0,1645105978.5625,P11,D09,0,1,0
523,28.0,-50.0,26.0,1645105978.59375,P11,D09,0,1,0
524,28.0,-50.0,26.0,1645105978.625,P11,D09,0,1,0
525,28.0,-50.0,26.0,1645105978.65625,P11,D09,0,1,0
526,28.0,-50.0,26.0,1645105978.6875,P11,D09,0,1,0
527,28.0,-50.0,26.0,1645105978.71875,P11,D09,0,1,0
528,28.0,-50.0,26.0,1645105978.75,P11,D09,0,1,0
529,28.0,-50.0,26.0,1645105978.78125,P11,D09,0,1,0
530,28.0,-50.0,26.0,1645105978.8125,P11,D09,0,1,0
531,28.0,-50.0,26.0,1645105978.84375,P11,D09,0,1,0
532,28.0,-50.0,26.0,1645105978.875,P11,D09,0,1,0
533,28.0,-50.0,26.0,1645105978.90625,P11,D09,0,1,0
534,28.0,-50.0,26.0,1645105978.9375,P11,D09,0,1,0
535,28.0,-50.0,26.0,1645105978.96875,P11,D09,0,1,0
536,28.0,-50.0,26.0,1645105979.0,P11,D09,0,1,0
537,28.0,-50.0,26.0,1645105979.03125,P11,D09,0,1,0
538,28.0,-50.0,26.0,1645105979.0625,P11,D09,0,1,0
539,28.0,-50.0,26.0,1645105979.09375,P11,D09,0,1,0
540,28.0,-50.0,26.0,1645105979.125,P11,D09,0,1,0
541,28.0,-50.0,26.0,1645105979.15625,P11,D09,0,1,0
542,28.0,-50.0,26.0,1645105979.1875,P11,D09,0,1,0
543,28.0,-50.0,26.0,1645105979.21875,P11,D09,0,1,0
544,28.0,-51.0,26.0,1645105979.25,P11,D09,0,1,0
545,28.0,-50.0,26.0,1645105979.28125,P11,D09,0,1,0
546,28.0,-50.0,26.0,1645105979.3125,P11,D09,0,1,0
547,27.0,-50.0,25.0,1645105979.34375,P11,D09,0,1,0
548,28.0,-50.0,26.0,1645105979.375,P11,D09,0,1,0
549,28.0,-50.0,26.0,1645105979.40625,P11,D09,0,1,0
550,27.0,-50.0,26.0,1645105979.4375,P11,D09,0,1,0
551,27.0,-50.0,26.0,1645105979.46875,P11,D09,0,1,0
552,28.0,-50.0,25.0,1645105979.5,P11,D09,0,1,0
553,28.0,-50.0,26.0,1645105979.53125,P11,D09,0,1,0
554,28.0,-51.0,26.0,1645105979.5625,P11,D09,0,1,0
555,28.0,-50.0,26.0,1645105979.59375,P11,D09,0,1,0
556,28.0,-50.0,26.0,1645105979.625,P11,D09,0,1,0
557,28.0,-50.0,26.0,1645105979.65625,P11,D09,0,1,0
558,28.0,-51.0,26.0,1645105979.6875,P11,D09,0,1,0
559,28.0,-51.0,26.0,1645105979.71875,P11,D09,0,1,0
560,28.0,-50.0,26.0,1645105979.75,P11,D09,0,1,0
561,27.0,-50.0,26.0,1645105979.78125,P11,D09,0,1,0
562,28.0,-51.0,26.0,1645105979.8125,P11,D09,0,1,0
563,28.0,-50.0,26.0,1645105979.84375,P11,D09,0,1,0
564,27.0,-50.0,26.0,1645105979.875,P11,D09,0,1,0
565,27.0,-51.0,26.0,1645105979.90625,P11,D09,0,1,0
566,27.0,-50.0,26.0,1645105979.9375,P11,D09,0,1,0
567,28.0,-51.0,26.0,1645105979.96875,P11,D09,0,1,0
568,27.0,-50.0,26.0,1645105980.0,P11,D09,0,1,0
569,27.0,-50.0,26.0,1645105980.03125,P11,D09,0,1,0
570,28.0,-51.0,26.0,1645105980.0625,P11,D09,0,1,0
571,28.0,-50.0,26.0,1645105980.09375,P11,D09,0,1,0
572,27.0,-50.0,26.0,1645105980.125,P11,D09,0,1,0
573,27.0,-50.0,26.0,1645105980.15625,P11,D09,0,1,0
574,28.0,-51.0,26.0,1645105980.1875,P11,D09,0,1,0
575,27.0,-50.0,25.0,1645105980.21875,P11,D09,0,1,0
576,28.0,-50.0,26.0,1645105980.25,P11,D09,0,1,0
577,27.0,-51.0,26.0,1645105980.28125,P11,D09,0,1,0
578,27.0,-50.0,25.0,1645105980.3125,P11,D09,0,1,0
579,27.0,-50.0,26.0,1645105980.34375,P11,D09,0,1,0
580,28.0,-50.0,26.0,1645105980.375,P11,D09,0,1,0
581,27.0,-51.0,26.0,1645105980.40625,P11,D09,0,1,0
582,27.0,-51.0,26.0,1645105980.4375,P11,D09,0,1,0
583,28.0,-50.0,26.0,1645105980.46875,P11,D09,0,1,0
584,28.0,-50.0,26.0,1645105980.5,P11,D09,0,1,0
585,28.0,-51.0,26.0,1645105980.53125,P11,D09,0,1,0
586,28.0,-50.0,26.0,1645105980.5625,P11,D09,0,1,0
587,28.0,-51.0,26.0,1645105980.59375,P11,D09,0,1,0
588,27.0,-51.0,26.0,1645105980.625,P11,D09,0,1,0
589,27.0,-50.0,26.0,1645105980.65625,P11,D09,0,1,0
590,27.0,-51.0,26.0,1645105980.6875,P11,D09,0,1,0
591,27.0,-50.0,26.0,1645105980.71875,P11,D09,0,1,0
592,28.0,-50.0,26.0,1645105980.75,P11,D09,0,1,0
593,28.0,-50.0,26.0,1645105980.78125,P11,D09,0,1,0
594,28.0,-50.0,26.0,1645105980.8125,P11,D09,0,1,0
595,28.0,-50.0,26.0,1645105980.84375,P11,D09,0,1,0
596,28.0,-50.0,26.0,1645105980.875,P11,D09,0,1,0
597,28.0,-50.0,26.0,1645105980.90625,P11,D09,0,1,0
598,28.0,-50.0,26.0,1645105980.9375,P11,D09,0,1,0
599,28.0,-50.0,26.0,1645105980.96875,P11,D09,0,1,0
600,28.0,-50.0,26.0,1645105981.0,P11,D09,0,1,0
601,28.0,-50.0,26.0,1645105981.03125,P11,D09,0,1,0
602,28.0,-50.0,26.0,1645105981.0625,P11,D09,0,1,0
603,27.0,-50.0,25.0,1645105981.09375,P11,D09,0,1,0
604,28.0,-50.0,26.0,1645105981.125,P11,D09,0,1,0
605,27.0,-50.0,26.0,1645105981.15625,P11,D09,0,1,0
606,28.0,-50.0,26.0,1645105981.1875,P11,D09,0,1,0
607,28.0,-50.0,26.0,1645105981.21875,P11,D09,0,1,0
608,28.0,-50.0,26.0,1645105981.25,P11,D09,0,1,0
609,28.0,-50.0,26.0,1645105981.28125,P11,D09,0,1,0
610,28.0,-50.0,26.0,1645105981.3125,P11,D09,0,1,0
611,28.0,-50.0,26.0,1645105981.34375,P11,D09,0,1,0
612,28.0,-50.0,26.0,1645105981.375,P11,D09,0,1,0
613,28.0,-50.0,26.0,1645105981.40625,P11,D09,0,1,0
614,28.0,-50.0,25.0,1645105981.4375,P11,D09,0,1,0
615,28.0,-50.0,26.0,1645105981.46875,P11,D09,0,1,0
616,28.0,-50.0,26.0,1645105981.5,P11,D09,0,1,0
617,28.0,-50.0,26.0,1645105981.53125,P11,D09,0,1,0
618,28.0,-50.0,26.0,1645105981.5625,P11,D09,0,1,0
619,28.0,-50.0,26.0,1645105981.59375,P11,D09,0,1,0
620,28.0,-50.0,26.0,1645105981.625,P11,D09,0,1,0
621,28.0,-50.0,26.0,1645105981.65625,P11,D09,0,1,0
622,28.0,-50.0,26.0,1645105981.6875,P11,D09,0,1,0
623,28.0,-50.0,26.0,1645105981.71875,P11,D09,0,1,0
624,28.0,-50.0,26.0,1645105981.75,P11,D09,0,1,0
625,28.0,-50.0,26.0,1645105981.78125,P11,D09,0,1,0
626,28.0,-50.0,26.0,1645105981.8125,P11,D09,0,1,0
627,28.0,-50.0,26.0,1645105981.84375,P11,D09,0,1,0
628,28.0,-50.0,26.0,1645105981.875,P11,D09,0,1,0
629,28.0,-50.0,26.0,1645105981.90625,P11,D09,0,1,0
630,27.0,-50.0,25.0,1645105981.9375,P11,D09,0,1,0
631,28.0,-51.0,26.0,1645105981.96875,P11,D09,0,1,0
632,27.0,-51.0,26.0,1645105982.0,P11,D09,0,1,0
633,28.0,-50.0,26.0,1645105982.03125,P11,D09,0,1,0
634,27.0,-50.0,26.0,1645105982.0625,P11,D09,0,1,0
635,28.0,-50.0,25.0,1645105982.09375,P11,D09,0,1,0
636,28.0,-51.0,26.0,1645105982.125,P11,D09,0,1,0
637,27.0,-51.0,26.0,1645105982.15625,P11,D09,0,1,0
638,28.0,-50.0,26.0,1645105982.1875,P11,D09,0,1,0
639,28.0,-50.0,26.0,1645105982.21875,P11,D09,0,1,0
640,28.0,-50.0,26.0,1645105982.25,P11,D09,0,1,0
641,28.0,-50.0,26.0,1645105982.28125,P11,D09,0,1,0
642,27.0,-51.0,26.0,1645105982.3125,P11,D09,0,1,0
643,27.0,-51.0,26.0,1645105982.34375,P11,D09,0,1,0
644,27.0,-51.0,26.0,1645105982.375,P11,D09,0,1,0
645,28.0,-51.0,26.0,1645105982.40625,P11,D09,0,1,0
646,28.0,-50.0,26.0,1645105982.4375,P11,D09,0,1,0
647,27.0,-50.0,26.0,1645105982.46875,P11,D09,0,1,0
648,28.0,-51.0,26.0,1645105982.5,P11,D09,0,1,0
649,28.0,-50.0,26.0,1645105982.53125,P11,D09,0,1,0
650,28.0,-51.0,25.0,1645105982.5625,P11,D09,0,1,0
651,28.0,-50.0,26.0,1645105982.59375,P11,D09,0,1,0
652,28.0,-50.0,25.0,1645105982.625,P11,D09,0,1,0
653,28.0,-50.0,25.0,1645105982.65625,P11,D09,0,1,0
654,28.0,-50.0,26.0,1645105982.6875,P11,D09,0,1,0
655,27.0,-50.0,25.0,1645105982.71875,P11,D09,0,1,0
656,27.0,-50.0,25.0,1645105982.75,P11,D09,0,1,0
657,28.0,-51.0,26.0,1645105982.78125,P11,D09,0,1,0
658,27.0,-51.0,26.0,1645105982.8125,P11,D09,0,1,0
659,28.0,-51.0,25.0,1645105982.84375,P11,D09,0,1,0
660,27.0,-50.0,26.0,1645105982.875,P11,D09,0,1,0
661,27.0,-51.0,26.0,1645105982.90625,P11,D09,0,1,0
662,28.0,-51.0,26.0,1645105982.9375,P11,D09,0,1,0
663,28.0,-51.0,26.0,1645105982.96875,P11,D09,0,1,0
664,28.0,-51.0,25.0,1645105983.0,P11,D09,0,1,0
665,28.0,-50.0,25.0,1645105983.03125,P11,D09,0,1,0
666,28.0,-51.0,25.0,1645105983.0625,P11,D09,0,1,0
667,28.0,-51.0,25.0,1645105983.09375,P11,D09,0,1,0
668,28.0,-51.0,26.0,1645105983.125,P11,D09,0,1,0
669,27.0,-51.0,26.0,1645105983.15625,P11,D09,0,1,0
670,27.0,-51.0,26.0,1645105983.1875,P11,D09,0,1,0
671,27.0,-51.0,25.0,1645105983.21875,P11,D09,0,1,0
672,27.0,-50.0,25.0,1645105983.25,P11,D09,0,1,0
673,28.0,-51.0,25.0,1645105983.28125,P11,D09,0,1,0
674,28.0,-51.0,25.0,1645105983.3125,P11,D09,0,1,0
675,28.0,-50.0,25.0,1645105983.34375,P11,D09,0,1,0
676,29.0,-50.0,25.0,1645105983.375,P11,D09,0,1,0
677,28.0,-51.0,25.0,1645105983.40625,P11,D09,0,1,0
678,28.0,-51.0,24.0,1645105983.4375,P11,D09,0,1,0
679,30.0,-50.0,25.0,1645105983.46875,P11,D09,0,1,0
680,29.0,-50.0,25.0,1645105983.5,P11,D09,0,1,0
681,29.0,-50.0,24.0,1645105983.53125,P11,D09,0,1,0
682,29.0,-51.0,24.0,1645105983.5625,P11,D09,0,1,0
683,29.0,-50.0,24.0,1645105983.59375,P11,D09,0,1,0
684,29.0,-50.0,24.0,1645105983.625,P11,D09,0,1,0
685,30.0,-50.0,24.0,1645105983.65625,P11,D09,0,1,0
686,29.0,-51.0,23.0,1645105983.6875,P11,D09,0,1,0
687,29.0,-51.0,24.0,1645105983.71875,P11,D09,0,1,0
688,30.0,-51.0,24.0,1645105983.75,P11,D09,0,1,0
689,30.0,-51.0,23.0,1645105983.78125,P11,D09,0,1,0
690,30.0,-50.0,24.0,1645105983.8125,P11,D09,0,1,0
691,30.0,-50.0,24.0,1645105983.84375,P11,D09,0,1,0
692,28.0,-49.0,24.0,1645105983.875,P11,D09,0,1,0
693,33.0,-50.0,21.0,1645105983.90625,P11,D09,0,1,0
694,37.0,-51.0,18.0,1645105983.9375,P11,D09,0,1,0
695,35.0,-51.0,14.0,1645105983.96875,P11,D09,0,1,0
696,37.0,-52.0,13.0,1645105984.0,P11,D09,0,1,0
697,37.0,-53.0,15.0,1645105984.03125,P11,D09,0,1,0
698,36.0,-53.0,16.0,1645105984.0625,P11,D09,0,1,0
699,48.0,-52.0,20.0,1645105984.09375,P11,D09,0,1,0
700,32.0,-54.0,16.0,1645105984.125,P11,D09,0,1,0
701,26.0,-55.0,26.0,1645105984.15625,P11,D09,0,1,0
702,27.0,-55.0,25.0,1645105984.1875,P11,D09,0,1,0
703,15.0,-56.0,26.0,1645105984.21875,P11,D09,0,1,0
704,15.0,-57.0,25.0,1645105984.25,P11,D09,0,1,0
705,8.0,-58.0,15.0,1645105984.28125,P11,D09,0,1,0
706,6.0,-58.0,15.0,1645105984.3125,P11,D09,0,1,0
707,2.0,-58.0,17.0,1645105984.34375,P11,D09,0,1,0
708,2.0,-55.0,33.0,1645105984.375,P11,D09,0,1,0
709,4.0,-53.0,37.0,1645105984.40625,P11,D09,0,1,0
710,-2.0,-54.0,33.0,1645105984.4375,P11,D09,0,1,0
711,-3.0,-55.0,30.0,1645105984.46875,P11,D09,0,1,0
712,-9.0,-56.0,23.0,1645105984.5,P11,D09,0,1,0
713,-7.0,-57.0,24.0,1645105984.53125,P11,D09,0,1,0
714,-7.0,-56.0,31.0,1645105984.5625,P11,D09,0,1,0
715,-12.0,-57.0,28.0,1645105984.59375,P11,D09,0,1,0
716,-11.0,-58.0,25.0,1645105984.625,P11,D09,0,1,0
717,-8.0,-58.0,23.0,1645105984.65625,P11,D09,0,1,0
718,-9.0,-57.0,25.0,1645105984.6875,P11,D09,0,1,0
719,-7.0,-57.0,28.0,1645105984.71875,P11,D09,0,1,0
720,-7.0,-58.0,28.0,1645105984.75,P11,D09,0,1,0
721,-8.0,-56.0,27.0,1645105984.78125,P11,D09,0,1,0
722,-10.0,-55.0,30.0,1645105984.8125,P11,D09,0,1,0
723,-8.0,-56.0,31.0,1645105984.84375,P11,D09,0,1,0
724,-8.0,-57.0,27.0,1645105984.875,P11,D09,0,1,0
725,-11.0,-56.0,28.0,1645105984.90625,P11,D09,0,1,0
726,-12.0,-56.0,30.0,1645105984.9375,P11,D09,0,1,0
727,-8.0,-56.0,31.0,1645105984.96875,P11,D09,0,1,0
728,-5.0,-57.0,27.0,1645105985.0,P11,D09,0,1,0
729,-2.0,-57.0,28.0,1645105985.03125,P11,D09,0,1,0
730,-4.0,-56.0,26.0,1645105985.0625,P11,D09,0,1,0
731,-10.0,-58.0,22.0,1645105985.09375,P11,D09,0,1,0
732,-2.0,-57.0,28.0,1645105985.125,P11,D09,0,1,0
733,-4.0,-58.0,28.0,1645105985.15625,P11,D09,0,1,0
734,-6.0,-57.0,30.0,1645105985.1875,P11,D09,0,1,0
735,-1.0,-56.0,33.0,1645105985.21875,P11,D09,0,1,0
736,-11.0,-55.0,30.0,1645105985.25,P11,D09,0,1,0
737,-9.0,-55.0,30.0,1645105985.28125,P11,D09,0,1,0
738,-8.0,-58.0,26.0,1645105985.3125,P11,D09,0,1,0
739,-17.0,-58.0,21.0,1645105985.34375,P11,D09,0,1,0
740,-17.0,-57.0,24.0,1645105985.375,P11,D09,0,1,0
741,-19.0,-55.0,29.0,1645105985.40625,P11,D09,0,1,0
742,-15.0,-55.0,30.0,1645105985.4375,P11,D09,0,1,0
743,-15.0,-56.0,22.0,1645105985.46875,P11,D09,0,1,0
744,-16.0,-57.0,20.0,1645105985.5,P11,D09,0,1,0
745,-21.0,-57.0,19.0,1645105985.53125,P11,D09,0,1,0
746,-25.0,-56.0,21.0,1645105985.5625,P11,D09,0,1,0
747,-20.0,-57.0,21.0,1645105985.59375,P11,D09,0,1,0
748,-23.0,-55.0,23.0,1645105985.625,P11,D09,0,1,0
749,-29.0,-53.0,30.0,1645105985.65625,P11,D09,0,1,0
750,-31.0,-52.0,28.0,1645105985.6875,P11,D09,0,1,0
751,-26.0,-55.0,20.0,1645105985.71875,P11,D09,0,1,0
752,-27.0,-57.0,11.0,1645105985.75,P11,D09,0,1,0
753,-32.0,-56.0,13.0,1645105985.78125,P11,D09,0,1,0
754,-34.0,-53.0,22.0,1645105985.8125,P11,D09,0,1,0
755,-32.0,-52.0,24.0,1645105985.84375,P11,D09,0,1,0
756,-31.0,-53.0,20.0,1645105985.875,P11,D09,0,1,0
757,-31.0,-54.0,18.0,1645105985.90625,P11,D09,0,1,0
758,-32.0,-56.0,13.0,1645105985.9375,P11,D09,0,1,0
759,-30.0,-56.0,12.0,1645105985.96875,P11,D09,0,1,0
760,-34.0,-59.0,4.0,1645105986.0,P11,D09,0,1,0
761,-36.0,-59.0,4.0,1645105986.03125,P11,D09,0,1,0
762,-18.0,-60.0,16.0,1645105986.0625,P11,D09,0,1,0
763,-18.0,-57.0,17.0,1645105986.09375,P11,D09,0,1,0
764,-23.0,-56.0,18.0,1645105986.125,P11,D09,0,1,0
765,-36.0,-54.0,19.0,1645105986.15625,P11,D09,0,1,0
766,-31.0,-55.0,17.0,1645105986.1875,P11,D09,0,1,0
767,-14.0,-55.0,18.0,1645105986.21875,P11,D09,0,1,0
768,-14.0,-55.0,20.0,1645105986.25,P11,D09,0,1,0
769,-24.0,-59.0,20.0,1645105986.28125,P11,D09,0,1,0
770,-26.0,-59.0,20.0,1645105986.3125,P11,D09,0,1,0
771,-28.0,-58.0,19.0,1645105986.34375,P11,D09,0,1,0
772,-25.0,-59.0,16.0,1645105986.375,P11,D09,0,1,0
773,-15.0,-58.0,17.0,1645105986.40625,P11,D09,0,1,0
774,-21.0,-56.0,17.0,1645105986.4375,P11,D09,0,1,0
775,-25.0,-57.0,18.0,1645105986.46875,P11,D09,0,1,0
776,-27.0,-59.0,16.0,1645105986.5,P11,D09,0,1,0
777,-27.0,-59.0,14.0,1645105986.53125,P11,D09,0,1,0
778,-24.0,-58.0,15.0,1645105986.5625,P11,D09,0,1,0
779,-23.0,-57.0,16.0,1645105986.59375,P11,D09,0,1,0
780,-23.0,-57.0,14.0,1645105986.625,P11,D09,0,1,0
781,-25.0,-59.0,13.0,1645105986.65625,P11,D09,0,1,0
782,-25.0,-60.0,14.0,1645105986.6875,P11,D09,0,1,0
783,-24.0,-59.0,15.0,1645105986.71875,P11,D09,0,1,0
784,-23.0,-58.0,16.0,1645105986.75,P11,D09,0,1,0
785,-25.0,-58.0,18.0,1645105986.78125,P11,D09,0,1,0
786,-26.0,-57.0,17.0,1645105986.8125,P11,D09,0,1,0
787,-25.0,-57.0,16.0,1645105986.84375,P11,D09,0,1,0
788,-23.0,-57.0,16.0,1645105986.875,P11,D09,0,1,0
789,-23.0,-58.0,17.0,1645105986.90625,P11,D09,0,1,0
790,-23.0,-58.0,17.0,1645105986.9375,P11,D09,0,1,0
791,-23.0,-57.0,17.0,1645105986.96875,P11,D09,0,1,0
792,-22.0,-57.0,17.0,1645105987.0,P11,D09,0,1,0
793,-24.0,-57.0,18.0,1645105987.03125,P11,D09,0,1,0
794,-24.0,-58.0,18.0,1645105987.0625,P11,D09,0,1,0
795,-24.0,-57.0,16.0,1645105987.09375,P11,D09,0,1,0
796,-23.0,-58.0,17.0,1645105987.125,P11,D09,0,1,0
797,-23.0,-57.0,17.0,1645105987.15625,P11,D09,0,1,0
798,-24.0,-58.0,17.0,1645105987.1875,P11,D09,0,1,0
799,-23.0,-58.0,17.0,1645105987.21875,P11,D09,0,1,0
800,-24.0,-57.0,16.0,1645105987.25,P11,D09,0,1,0
801,-23.0,-57.0,16.0,1645105987.28125,P11,D09,0,1,0
802,-23.0,-58.0,17.0,1645105987.3125,P11,D09,0,1,0
803,-24.0,-58.0,17.0,1645105987.34375,P11,D09,0,1,0
804,-24.0,-58.0,17.0,1645105987.375,P11,D09,0,1,0
805,-24.0,-57.0,17.0,1645105987.40625,P11,D09,0,1,0
806,-24.0,-58.0,17.0,1645105987.4375,P11,D09,0,1,0
807,-24.0,-58.0,16.0,1645105987.46875,P11,D09,0,1,0
808,-23.0,-57.0,17.0,1645105987.5,P11,D09,0,1,0
809,-23.0,-58.0,17.0,1645105987.53125,P11,D09,0,1,0
810,-24.0,-58.0,17.0,1645105987.5625,P11,D09,0,1,0
811,-24.0,-57.0,17.0,1645105987.59375,P11,D09,0,1,0
812,-24.0,-57.0,16.0,1645105987.625,P11,D09,0,1,0
813,-23.0,-58.0,16.0,1645105987.65625,P11,D09,0,1,0
814,-24.0,-58.0,16.0,1645105987.6875,P11,D09,0,1,0
815,-23.0,-58.0,17.0,1645105987.71875,P11,D09,0,1,0
816,-23.0,-58.0,17.0,1645105987.75,P11,D09,0,1,0
817,-23.0,-58.0,17.0,1645105987.78125,P11,D09,0,1,0
818,-24.0,-58.0,16.0,1645105987.8125,P11,D09,0,1,0
819,-24.0,-58.0,17.0,1645105987.84375,P11,D09,0,1,0
820,-23.0,-57.0,16.0,1645105987.875,P11,D09,0,1,0
821,-23.0,-58.0,16.0,1645105987.90625,P11,D09,0,1,0
822,-23.0,-58.0,17.0,1645105987.9375,P11,D09,0,1,0
823,-24.0,-58.0,17.0,1645105987.96875,P11,D09,0,1,0
824,-23.0,-57.0,17.0,1645105988.0,P11,D09,0,1,0
825,-23.0,-58.0,17.0,1645105988.03125,P11,D09,0,1,0
826,-23.0,-58.0,16.0,1645105988.0625,P11,D09,0,1,0
827,-23.0,-58.0,17.0,1645105988.09375,P11,D09,0,1,0
828,-24.0,-58.0,17.0,1645105988.125,P11,D09,0,1,0
829,-24.0,-58.0,17.0,1645105988.15625,P11,D09,0,1,0
830,-23.0,-58.0,17.0,1645105988.1875,P11,D09,0,1,0
831,-23.0,-58.0,16.0,1645105988.21875,P11,D09,0,1,0
832,-23.0,-58.0,17.0,1645105988.25,P11,D09,0,1,0
833,-23.0,-58.0,17.0,1645105988.28125,P11,D09,0,1,0
834,-23.0,-57.0,17.0,1645105988.3125,P11,D09,0,1,0
835,-23.0,-58.0,16.0,1645105988.34375,P11,D09,0,1,0
836,-23.0,-58.0,16.0,1645105988.375,P11,D09,0,1,0
837,-23.0,-58.0,17.0,1645105988.40625,P11,D09,0,1,0
838,-23.0,-58.0,17.0,1645105988.4375,P11,D09,0,1,0
839,-23.0,-58.0,17.0,1645105988.46875,P11,D09,0,1,0
840,-23.0,-58.0,16.0,1645105988.5,P11,D09,0,1,0
841,-23.0,-58.0,17.0,1645105988.53125,P11,D09,0,1,0
842,-23.0,-58.0,17.0,1645105988.5625,P11,D09,0,1,0
843,-23.0,-58.0,17.0,1645105988.59375,P11,D09,0,1,0
844,-23.0,-57.0,17.0,1645105988.625,P11,D09,0,1,0
845,-23.0,-58.0,16.0,1645105988.65625,P11,D09,0,1,0
846,-23.0,-58.0,17.0,1645105988.6875,P11,D09,0,1,0
847,-23.0,-58.0,17.0,1645105988.71875,P11,D09,0,1,0
848,-22.0,-58.0,17.0,1645105988.75,P11,D09,0,1,0
849,-23.0,-58.0,17.0,1645105988.78125,P11,D09,0,1,0
850,-23.0,-58.0,17.0,1645105988.8125,P11,D09,0,1,0
851,-23.0,-58.0,17.0,1645105988.84375,P11,D09,0,1,0
852,-23.0,-58.0,17.0,1645105988.875,P11,D09,0,1,0
853,-23.0,-58.0,16.0,1645105988.90625,P11,D09,0,1,0
854,-22.0,-58.0,17.0,1645105988.9375,P11,D09,0,1,0
855,-22.0,-58.0,17.0,1645105988.96875,P11,D09,0,1,0
856,-23.0,-58.0,16.0,1645105989.0,P11,D09,0,1,0
857,-23.0,-58.0,17.0,1645105989.03125,P11,D09,0,1,0
858,-23.0,-58.0,17.0,1645105989.0625,P11,D09,0,1,0
859,-23.0,-57.0,16.0,1645105989.09375,P11,D09,0,1,0
860,-23.0,-58.0,16.0,1645105989.125,P11,D09,0,1,0
861,-23.0,-58.0,17.0,1645105989.15625,P11,D09,0,1,0
862,-23.0,-58.0,17.0,1645105989.1875,P11,D09,0,1,0
863,-23.0,-58.0,17.0,1645105989.21875,P11,D09,0,1,0
864,-23.0,-58.0,16.0,1645105989.25,P11,D09,0,1,0
865,-23.0,-58.0,16.0,1645105989.28125,P11,D09,0,1,0
866,-23.0,-58.0,16.0,1645105989.3125,P11,D09,0,1,0
867,-23.0,-58.0,16.0,1645105989.34375,P11,D09,0,1,0
868,-23.0,-58.0,17.0,1645105989.375,P11,D09,0,1,0
869,-23.0,-58.0,17.0,1645105989.40625,P11,D09,0,1,0
870,-23.0,-59.0,16.0,1645105989.4375,P11,D09,0,1,0
871,-23.0,-59.0,16.0,1645105989.46875,P11,D09,0,1,0
872,-22.0,-58.0,17.0,1645105989.5,P11,D09,0,1,0
873,-22.0,-58.0,16.0,1645105989.53125,P11,D09,0,1,0
874,-22.0,-58.0,17.0,1645105989.5625,P11,D09,0,1,0
875,-22.0,-58.0,17.0,1645105989.59375,P11,D09,0,1,0
876,-23.0,-58.0,17.0,1645105989.625,P11,D09,0,1,0
877,-25.0,-57.0,17.0,1645105989.65625,P11,D09,0,1,0
878,-25.0,-57.0,17.0,1645105989.6875,P11,D09,0,1,0
879,-25.0,-58.0,16.0,1645105989.71875,P11,D09,0,1,0
880,-24.0,-57.0,16.0,1645105989.75,P11,D09,0,1,0
881,-24.0,-58.0,16.0,1645105989.78125,P11,D09,0,1,0
882,-23.0,-58.0,16.0,1645105989.8125,P11,D09,0,1,0
883,-24.0,-58.0,17.0,1645105989.84375,P11,D09,0,1,0
884,-24.0,-58.0,17.0,1645105989.875,P11,D09,0,1,0
885,-24.0,-57.0,17.0,1645105989.90625,P11,D09,0,1,0
886,-24.0,-57.0,17.0,1645105989.9375,P11,D09,0,1,0
887,-24.0,-57.0,16.0,1645105989.96875,P11,D09,0,1,0
888,-24.0,-57.0,17.0,1645105990.0,P11,D09,0,1,0
889,-24.0,-57.0,17.0,1645105990.03125,P11,D09,0,1,0
890,-24.0,-58.0,16.0,1645105990.0625,P11,D09,0,1,0
891,-23.0,-58.0,16.0,1645105990.09375,P11,D09,0,1,0
892,-24.0,-57.0,17.0,1645105990.125,P11,D09,0,1,0
893,-24.0,-57.0,17.0,1645105990.15625,P11,D09,0,1,0
894,-24.0,-57.0,17.0,1645105990.1875,P11,D09,0,1,0
895,-24.0,-58.0,17.0,1645105990.21875,P11,D09,0,1,0
896,-24.0,-58.0,17.0,1645105990.25,P11,D09,0,1,0
897,-24.0,-57.0,17.0,1645105990.28125,P11,D09,0,1,0
898,-24.0,-57.0,17.0,1645105990.3125,P11,D09,0,1,0
899,-24.0,-57.0,16.0,1645105990.34375,P11,D09,0,1,0
900,-24.0,-58.0,17.0,1645105990.375,P11,D09,0,1,0
901,-23.0,-57.0,17.0,1645105990.40625,P11,D09,0,1,0
902,-23.0,-57.0,18.0,1645105990.4375,P11,D09,0,1,0
903,-24.0,-57.0,17.0,1645105990.46875,P11,D09,0,1,0
904,-24.0,-57.0,17.0,1645105990.5,P11,D09,0,1,0
905,-25.0,-57.0,17.0,1645105990.53125,P11,D09,0,1,0
906,-24.0,-57.0,17.0,1645105990.5625,P11,D09,0,1,0
907,-24.0,-58.0,17.0,1645105990.59375,P11,D09,0,1,0
908,-23.0,-57.0,17.0,1645105990.625,P11,D09,0,1,0
909,-24.0,-57.0,17.0,1645105990.65625,P11,D09,0,1,0
910,-24.0,-58.0,17.0,1645105990.6875,P11,D09,0,1,0
911,-23.0,-57.0,17.0,1645105990.71875,P11,D09,0,1,0
912,-23.0,-57.0,17.0,1645105990.75,P11,D09,0,1,0
913,-24.0,-58.0,17.0,1645105990.78125,P11,D09,0,1,0
914,-24.0,-58.0,17.0,1645105990.8125,P11,D09,0,1,0
915,-24.0,-58.0,17.0,1645105990.84375,P11,D09,0,1,0
916,-24.0,-57.0,17.0,1645105990.875,P11,D09,0,1,0
917,-23.0,-57.0,17.0,1645105990.90625,P11,D09,0,1,0
918,-23.0,-58.0,17.0,1645105990.9375,P11,D09,0,1,0
919,-23.0,-58.0,17.0,1645105990.96875,P11,D09,0,1,0
920,-23.0,-58.0,18.0,1645105991.0,P11,D09,0,1,0
921,-24.0,-57.0,17.0,1645105991.03125,P11,D09,0,1,0
922,-24.0,-57.0,17.0,1645105991.0625,P11,D09,0,1,0
923,-23.0,-58.0,17.0,1645105991.09375,P11,D09,0,1,0
924,-24.0,-58.0,17.0,1645105991.125,P11,D09,0,1,0
925,-23.0,-58.0,17.0,1645105991.15625,P11,D09,0,1,0
926,-23.0,-57.0,17.0,1645105991.1875,P11,D09,0,1,0
927,-23.0,-58.0,17.0,1645105991.21875,P11,D09,0,1,0
928,-24.0,-58.0,17.0,1645105991.25,P11,D09,0,1,0
929,-24.0,-58.0,17.0,1645105991.28125,P11,D09,0,1,0
930,-24.0,-58.0,17.0,1645105991.3125,P11,D09,0,1,0
931,-24.0,-57.0,17.0,1645105991.34375,P11,D09,0,1,0
932,-23.0,-58.0,17.0,1645105991.375,P11,D09,0,1,0
933,-23.0,-58.0,17.0,1645105991.40625,P11,D09,0,1,0
934,-23.0,-58.0,17.0,1645105991.4375,P11,D09,0,1,0
935,-23.0,-58.0,17.0,1645105991.46875,P11,D09,0,1,0
936,-23.0,-57.0,17.0,1645105991.5,P11,D09,0,1,0
937,-23.0,-58.0,17.0,1645105991.53125,P11,D09,0,1,0
938,-23.0,-58.0,17.0,1645105991.5625,P11,D09,0,1,0
939,-23.0,-58.0,17.0,1645105991.59375,P11,D09,0,1,0
940,-23.0,-58.0,17.0,1645105991.625,P11,D09,0,1,0
941,-23.0,-57.0,17.0,1645105991.65625,P11,D09,0,1,0
942,-23.0,-58.0,17.0,1645105991.6875,P11,D09,0,1,0
943,-23.0,-58.0,17.0,1645105991.71875,P11,D09,0,1,0
944,-23.0,-58.0,17.0,1645105991.75,P11,D09,0,1,0
945,-23.0,-57.0,17.0,1645105991.78125,P11,D09,0,1,0
946,-23.0,-58.0,17.0,1645105991.8125,P11,D09,0,1,0
947,-23.0,-58.0,17.0,1645105991.84375,P11,D09,0,1,0
948,-23.0,-58.0,17.0,1645105991.875,P11,D09,0,1,0
949,-23.0,-58.0,17.0,1645105991.90625,P11,D09,0,1,0
950,-23.0,-58.0,17.0,1645105991.9375,P11,D09,0,1,0
951,-23.0,-58.0,17.0,1645105991.96875,P11,D09,0,1,0
952,-23.0,-58.0,17.0,1645105992.0,P11,D09,0,1,0
953,-23.0,-58.0,17.0,1645105992.03125,P11,D09,0,1,0
954,-23.0,-58.0,17.0,1645105992.0625,P11,D09,0,1,0
955,-23.0,-57.0,17.0,1645105992.09375,P11,D09,0,1,0
956,-23.0,-58.0,17.0,1645105992.125,P11,D09,0,1,0
957,-23.0,-58.0,17.0,1645105992.15625,P11,D09,0,1,0
958,-23.0,-58.0,17.0,1645105992.1875,P11,D09,0,1,0
959,-23.0,-58.0,17.0,1645105992.21875,P11,D09,0,1,0
960,-23.0,-58.0,17.0,1645105992.25,P11,D09,0,1,0
961,-23.0,-58.0,17.0,1645105992.28125,P11,D09,0,1,0
962,-23.0,-58.0,17.0,1645105992.3125,P11,D09,0,1,0
963,-23.0,-58.0,17.0,1645105992.34375,P11,D09,0,1,0
964,-24.0,-58.0,17.0,1645105992.375,P11,D09,0,1,0
965,-24.0,-58.0,17.0,1645105992.40625,P11,D09,0,1,0
966,-23.0,-57.0,17.0,1645105992.4375,P11,D09,0,1,0
967,-23.0,-58.0,16.0,1645105992.46875,P11,D09,0,1,0
968,-23.0,-58.0,17.0,1645105992.5,P11,D09,0,1,0
969,-23.0,-58.0,17.0,1645105992.53125,P11,D09,0,1,0
970,-24.0,-57.0,17.0,1645105992.5625,P11,D09,0,1,0
971,-23.0,-58.0,17.0,1645105992.59375,P11,D09,0,1,0
972,-23.0,-58.0,17.0,1645105992.625,P11,D09,0,1,0
973,-23.0,-58.0,17.0,1645105992.65625,P11,D09,0,1,0
974,-23.0,-58.0,17.0,1645105992.6875,P11,D09,0,1,0
975,-23.0,-57.0,17.0,1645105992.71875,P11,D09,0,1,0
976,-23.0,-57.0,17.0,1645105992.75,P11,D09,0,1,0
977,-23.0,-58.0,17.0,1645105992.78125,P11,D09,0,1,0
978,-23.0,-58.0,17.0,1645105992.8125,P11,D09,0,1,0
979,-23.0,-58.0,17.0,1645105992.84375,P11,D09,0,1,0
980,-23.0,-57.0,17.0,1645105992.875,P11,D09,0,1,0
981,-24.0,-57.0,17.0,1645105992.90625,P11,D09,0,1,0
982,-23.0,-58.0,17.0,1645105992.9375,P11,D09,0,1,0
983,-23.0,-58.0,17.0,1645105992.96875,P11,D09,0,1,0
984,-23.0,-58.0,17.0,1645105993.0,P11,D09,0,1,0
985,-23.0,-57.0,17.0,1645105993.03125,P11,D09,0,1,0
986,-23.0,-57.0,17.0,1645105993.0625,P11,D09,0,1,0
987,-23.0,-58.0,17.0,1645105993.09375,P11,D09,0,1,0
988,-23.0,-58.0,17.0,1645105993.125,P11,D09,0,1,0
989,-23.0,-57.0,17.0,1645105993.15625,P11,D09,0,1,0
990,-24.0,-57.0,18.0,1645105993.1875,P11,D09,0,1,0
991,-23.0,-57.0,18.0,1645105993.21875,P11,D09,0,1,0
992,-23.0,-58.0,17.0,1645105993.25,P11,D09,0,1,0
993,-23.0,-57.0,18.0,1645105993.28125,P11,D09,0,1,0
994,-24.0,-57.0,18.0,1645105993.3125,P11,D09,0,1,0
995,-23.0,-57.0,17.0,1645105993.34375,P11,D09,0,1,0
996,-23.0,-57.0,17.0,1645105993.375,P11,D09,0,1,0
997,-24.0,-58.0,18.0,1645105993.40625,P11,D09,0,1,0
998,-24.0,-57.0,18.0,1645105993.4375,P11,D09,0,1,0
999,-23.0,-57.0,18.0,1645105993.46875,P11,D09,0,1,0
1000,-23.0,-57.0,17.0,1645105993.5,P11,D09,0,1,0
1001,-23.0,-57.0,17.0,1645105993.53125,P11,D09,0,1,0
1002,-23.0,-58.0,17.0,1645105993.5625,P11,D09,0,1,0
1003,-23.0,-58.0,17.0,1645105993.59375,P11,D09,0,1,0
1004,-24.0,-58.0,18.0,1645105993.625,P11,D09,0,1,0
1005,-24.0,-58.0,17.0,1645105993.65625,P11,D09,0,1,0
1006,-24.0,-57.0,17.0,1645105993.6875,P11,D09,0,1,0
1007,-23.0,-57.0,17.0,1645105993.71875,P11,D09,0,1,0
1008,-23.0,-58.0,17.0,1645105993.75,P11,D09,0,1,0
1009,-23.0,-58.0,17.0,1645105993.78125,P11,D09,0,1,0
1010,-23.0,-57.0,17.0,1645105993.8125,P11,D09,0,1,0
1011,-23.0,-57.0,17.0,1645105993.84375,P11,D09,0,1,0
1012,-24.0,-58.0,17.0,1645105993.875,P11,D09,0,1,0
1013,-24.0,-58.0,17.0,1645105993.90625,P11,D09,0,1,0
1014,-24.0,-57.0,17.0,1645105993.9375,P11,D09,0,1,0
1015,-23.0,-57.0,17.0,1645105993.96875,P11,D09,0,1,0
1016,-23.0,-58.0,16.0,1645105994.0,P11,D09,0,1,0
1017,-23.0,-58.0,18.0,1645105994.03125,P11,D09,0,1,0
1018,-24.0,-57.0,17.0,1645105994.0625,P11,D09,0,1,0
1019,-23.0,-57.0,17.0,1645105994.09375,P11,D09,0,1,0
1020,-23.0,-57.0,17.0,1645105994.125,P11,D09,0,1,0
1021,-23.0,-57.0,17.0,1645105994.15625,P11,D09,0,1,0
1022,-24.0,-57.0,17.0,1645105994.1875,P11,D09,0,1,0
1023,-23.0,-58.0,17.0,1645105994.21875,P11,D09,0,1,0
1024,-23.0,-58.0,18.0,1645105994.25,P11,D09,0,1,0
1025,-23.0,-57.0,17.0,1645105994.28125,P11,D09,0,1,0
1026,-23.0,-58.0,17.0,1645105994.3125,P11,D09,0,1,0
1027,-23.0,-58.0,17.0,1645105994.34375,P11,D09,0,1,0
1028,-23.0,-57.0,17.0,1645105994.375,P11,D09,0,1,0
1029,-23.0,-58.0,17.0,1645105994.40625,P11,D09,0,1,0
1030,-23.0,-57.0,17.0,1645105994.4375,P11,D09,0,1,0
1031,-23.0,-57.0,17.0,1645105994.46875,P11,D09,0,1,0
1032,-23.0,-58.0,17.0,1645105994.5,P11,D09,0,1,0
1033,-23.0,-58.0,17.0,1645105994.53125,P11,D09,0,1,0
1034,-23.0,-58.0,17.0,1645105994.5625,P11,D09,0,1,0
1035,-23.0,-57.0,17.0,1645105994.59375,P11,D09,0,1,0
1036,-23.0,-58.0,17.0,1645105994.625,P11,D09,0,1,0
1037,-23.0,-58.0,17.0,1645105994.65625,P11,D09,0,1,0
1038,-23.0,-58.0,17.0,1645105994.6875,P11,D09,0,1,0
1039,-23.0,-58.0,17.0,1645105994.71875,P11,D09,0,1,0
1040,-23.0,-57.0,17.0,1645105994.75,P11,D09,0,1,0
1041,-23.0,-58.0,17.0,1645105994.78125,P11,D09,0,1,0
1042,-23.0,-58.0,17.0,1645105994.8125,P11,D09,0,1,0
1043,-24.0,-58.0,17.0,1645105994.84375,P11,D09,0,1,0
1044,-24.0,-57.0,17.0,1645105994.875,P11,D09,0,1,0
1045,-23.0,-58.0,17.0,1645105994.90625,P11,D09,0,1,0
1046,-23.0,-58.0,17.0,1645105994.9375,P11,D09,0,1,0
1047,-24.0,-58.0,17.0,1645105994.96875,P11,D09,0,1,0
1048,-23.0,-58.0,17.0,1645105995.0,P11,D09,0,1,0
1049,-23.0,-58.0,17.0,1645105995.03125,P11,D09,0,1,0
1050,-23.0,-58.0,17.0,1645105995.0625,P11,D09,0,1,0
1051,-23.0,-58.0,17.0,1645105995.09375,P11,D09,0,1,0
1052,-23.0,-58.0,17.0,1645105995.125,P11,D09,0,1,0
1053,-23.0,-57.0,17.0,1645105995.15625,P11,D09,0,1,0
1054,-23.0,-58.0,17.0,1645105995.1875,P11,D09,0,1,0
1055,-23.0,-58.0,17.0,1645105995.21875,P11,D09,0,1,0
1056,-23.0,-57.0,17.0,1645105995.25,P11,D09,0,1,0
1057,-23.0,-58.0,17.0,1645105995.28125,P11,D09,0,1,0
1058,-23.0,-58.0,17.0,1645105995.3125,P11,D09,0,1,0
1059,-23.0,-58.0,17.0,1645105995.34375,P11,D09,0,1,0
1060,-23.0,-58.0,17.0,1645105995.375,P11,D09,0,1,0
1061,-23.0,-58.0,17.0,1645105995.40625,P11,D09,0,1,0
1062,-23.0,-58.0,17.0,1645105995.4375,P11,D09,0,1,0
1063,-24.0,-58.0,16.0,1645105995.46875,P11,D09,0,1,0
1064,-24.0,-58.0,17.0,1645105995.5,P11,D09,0,1,0
1065,-24.0,-58.0,17.0,1645105995.53125,P11,D09,0,1,0
1066,-23.0,-58.0,17.0,1645105995.5625,P11,D09,0,1,0
1067,-23.0,-58.0,16.0,1645105995.59375,P11,D09,0,1,0
1068,-23.0,-57.0,17.0,1645105995.625,P11,D09,0,1,0
1069,-24.0,-58.0,17.0,1645105995.65625,P11,D09,0,1,0
1070,-24.0,-57.0,17.0,1645105995.6875,P11,D09,0,1,0
1071,-23.0,-57.0,17.0,1645105995.71875,P11,D09,0,1,0
1072,-24.0,-58.0,17.0,1645105995.75,P11,D09,0,1,0
1073,-24.0,-58.0,17.0,1645105995.78125,P11,D09,0,1,0
1074,-23.0,-57.0,17.0,1645105995.8125,P11,D09,0,1,0
1075,-23.0,-57.0,17.0,1645105995.84375,P11,D09,0,1,0
1076,-23.0,-57.0,17.0,1645105995.875,P11,D09,0,1,0
1077,-24.0,-58.0,17.0,1645105995.90625,P11,D09,0,1,0
1078,-24.0,-57.0,17.0,1645105995.9375,P11,D09,0,1,0
1079,-23.0,-57.0,17.0,1645105995.96875,P11,D09,0,1,0
1080,-23.0,-57.0,17.0,1645105996.0,P11,D09,0,1,0
1081,-24.0,-57.0,17.0,1645105996.03125,P11,D09,0,1,0
1082,-23.0,-58.0,17.0,1645105996.0625,P11,D09,0,1,0
1083,-23.0,-57.0,17.0,1645105996.09375,P11,D09,0,1,0
1084,-24.0,-57.0,17.0,1645105996.125,P11,D09,0,1,0
1085,-23.0,-58.0,17.0,1645105996.15625,P11,D09,0,1,0
1086,-23.0,-58.0,17.0,1645105996.1875,P11,D09,0,1,0
1087,-23.0,-57.0,17.0,1645105996.21875,P11,D09,0,1,0
1088,-23.0,-57.0,17.0,1645105996.25,P11,D09,0,1,0
1089,-23.0,-58.0,17.0,1645105996.28125,P11,D09,0,1,0
1090,-23.0,-58.0,18.0,1645105996.3125,P11,D09,0,1,0
1091,-24.0,-57.0,17.0,1645105996.34375,P11,D09,0,1,0
1092,-24.0,-57.0,17.0,1645105996.375,P11,D09,0,1,0
1093,-23.0,-57.0,17.0,1645105996.40625,P11,D09,0,1,0
1094,-23.0,-57.0,17.0,1645105996.4375,P11,D09,0,1,0
1095,-24.0,-57.0,17.0,1645105996.46875,P11,D09,0,1,0
1096,-24.0,-57.0,17.0,1645105996.5,P11,D09,0,1,0
1097,-23.0,-57.0,17.0,1645105996.53125,P11,D09,0,1,0
1098,-23.0,-58.0,17.0,1645105996.5625,P11,D09,0,1,0
1099,-23.0,-58.0,17.0,1645105996.59375,P11,D09,0,1,0
1100,-23.0,-58.0,17.0,1645105996.625,P11,D09,0,1,0
1101,-23.0,-57.0,18.0,1645105996.65625,P11,D09,0,1,0
1102,-24.0,-57.0,17.0,1645105996.6875,P11,D09,0,1,0
1103,-24.0,-57.0,17.0,1645105996.71875,P11,D09,0,1,0
1104,-23.0,-58.0,17.0,1645105996.75,P11,D09,0,1,0
1105,-23.0,-58.0,17.0,1645105996.78125,P11,D09,0,1,0
1106,-23.0,-57.0,17.0,1645105996.8125,P11,D09,0,1,0
1107,-23.0,-57.0,17.0,1645105996.84375,P11,D09,0,1,0
1108,-24.0,-58.0,17.0,1645105996.875,P11,D09,0,1,0
1109,-23.0,-58.0,17.0,1645105996.90625,P11,D09,0,1,0
1110,-23.0,-57.0,17.0,1645105996.9375,P11,D09,0,1,0
1111,-24.0,-57.0,17.0,1645105996.96875,P11,D09,0,1,0
1112,-24.0,-58.0,17.0,1645105997.0,P11,D09,0,1,0
1113,-23.0,-58.0,17.0,1645105997.03125,P11,D09,0,1,0
1114,-23.0,-58.0,17.0,1645105997.0625,P11,D09,0,1,0
1115,-24.0,-57.0,17.0,1645105997.09375,P11,D09,0,1,0
1116,-24.0,-58.0,17.0,1645105997.125,P11,D09,0,1,0
1117,-24.0,-57.0,17.0,1645105997.15625,P11,D09,0,1,0
1118,-23.0,-57.0,17.0,1645105997.1875,P11,D09,0,1,0
1119,-23.0,-58.0,17.0,1645105997.21875,P11,D09,0,1,0
1120,-23.0,-58.0,17.0,1645105997.25,P11,D09,0,1,0
1121,-24.0,-58.0,17.0,1645105997.28125,P11,D09,0,1,0
1122,-23.0,-57.0,17.0,1645105997.3125,P11,D09,0,1,0
1123,-23.0,-58.0,17.0,1645105997.34375,P11,D09,0,1,0
1124,-24.0,-58.0,17.0,1645105997.375,P11,D09,0,1,0
1125,-24.0,-58.0,17.0,1645105997.40625,P11,D09,0,1,0
1126,-23.0,-58.0,17.0,1645105997.4375,P11,D09,0,1,0
1127,-23.0,-57.0,17.0,1645105997.46875,P11,D09,0,1,0
1128,-23.0,-58.0,17.0,1645105997.5,P11,D09,0,1,0
1129,-24.0,-58.0,17.0,1645105997.53125,P11,D09,0,1,0
1130,-23.0,-58.0,17.0,1645105997.5625,P11,D09,0,1,0
1131,-23.0,-58.0,17.0,1645105997.59375,P11,D09,0,1,0
1132,-23.0,-58.0,17.0,1645105997.625,P11,D09,0,1,0
1133,-24.0,-58.0,17.0,1645105997.65625,P11,D09,0,1,0
1134,-23.0,-58.0,17.0,1645105997.6875,P11,D09,0,1,0
1135,-23.0,-57.0,17.0,1645105997.71875,P11,D09,0,1,0
1136,-23.0,-58.0,17.0,1645105997.75,P11,D09,0,1,0
1137,-23.0,-58.0,17.0,1645105997.78125,P11,D09,0,1,0
1138,-23.0,-58.0,17.0,1645105997.8125,P11,D09,0,1,0
1139,-23.0,-58.0,17.0,1645105997.84375,P11,D09,0,1,0
1140,-23.0,-57.0,17.0,1645105997.875,P11,D09,0,1,0
1141,-23.0,-58.0,17.0,1645105997.90625,P11,D09,0,1,0
1142,-23.0,-58.0,17.0,1645105997.9375,P11,D09,0,1,0
1143,-24.0,-57.0,17.0,1645105997.96875,P11,D09,0,1,0
1144,-23.0,-58.0,17.0,1645105998.0,P11,D09,0,1,0
1145,-23.0,-57.0,17.0,1645105998.03125,P11,D09,0,1,0
1146,-23.0,-58.0,17.0,1645105998.0625,P11,D09,0,1,0
1147,-23.0,-58.0,17.0,1645105998.09375,P11,D09,0,1,0
1148,-24.0,-58.0,17.0,1645105998.125,P11,D09,0,1,0
1149,-23.0,-57.0,17.0,1645105998.15625,P11,D09,0,1,0
1150,-23.0,-57.0,17.0,1645105998.1875,P11,D09,0,1,0
1151,-23.0,-58.0,17.0,1645105998.21875,P11,D09,0,1,0
1152,-23.0,-58.0,17.0,1645105998.25,P11,D09,0,1,0
1153,-23.0,-58.0,17.0,1645105998.28125,P11,D09,0,1,0
1154,-23.0,-58.0,17.0,1645105998.3125,P11,D09,0,1,0
1155,-23.0,-58.0,17.0,1645105998.34375,P11,D09,0,1,0
1156,-23.0,-58.0,17.0,1645105998.375,P11,D09,0,1,0
1157,-23.0,-58.0,17.0,1645105998.40625,P11,D09,0,1,0
1158,-23.0,-58.0,17.0,1645105998.4375,P11,D09,0,1,0
1159,-24.0,-58.0,17.0,1645105998.46875,P11,D09,0,1,0
1160,-23.0,-58.0,17.0,1645105998.5,P11,D09,0,1,0
1161,-23.0,-58.0,17.0,1645105998.53125,P11,D09,0,1,0
1162,-23.0,-58.0,17.0,1645105998.5625,P11,D09,0,1,0
1163,-23.0,-58.0,17.0,1645105998.59375,P11,D09,0,1,0
1164,-24.0,-58.0,17.0,1645105998.625,P11,D09,0,1,0
1165,-24.0,-58.0,17.0,1645105998.65625,P11,D09,0,1,0
1166,-24.0,-58.0,17.0,1645105998.6875,P11,D09,0,1,0
1167,-23.0,-58.0,17.0,1645105998.71875,P11,D09,0,1,0
1168,-24.0,-58.0,17.0,1645105998.75,P11,D09,0,1,0
1169,-24.0,-57.0,17.0,1645105998.78125,P11,D09,0,1,0
1170,-23.0,-57.0,17.0,1645105998.8125,P11,D09,0,1,0
1171,-23.0,-57.0,17.0,1645105998.84375,P11,D09,0,1,0
1172,-23.0,-58.0,17.0,1645105998.875,P11,D09,0,1,0
1173,-24.0,-58.0,17.0,1645105998.90625,P11,D09,0,1,0
1174,-24.0,-58.0,17.0,1645105998.9375,P11,D09,0,1,0
1175,-23.0,-57.0,17.0,1645105998.96875,P11,D09,0,1,0
1176,-23.0,-57.0,17.0,1645105999.0,P11,D09,0,1,0
1177,-24.0,-58.0,17.0,1645105999.03125,P11,D09,0,1,0
1178,-23.0,-57.0,17.0,1645105999.0625,P11,D09,0,1,0
1179,-24.0,-57.0,17.0,1645105999.09375,P11,D09,0,1,0
1180,-23.0,-57.0,17.0,1645105999.125,P11,D09,0,1,0
1181,-24.0,-58.0,17.0,1645105999.15625,P11,D09,0,1,0
1182,-24.0,-57.0,17.0,1645105999.1875,P11,D09,0,1,0
1183,-23.0,-57.0,17.0,1645105999.21875,P11,D09,0,1,0
1184,-23.0,-57.0,17.0,1645105999.25,P11,D09,0,1,0
1185,-24.0,-57.0,17.0,1645105999.28125,P11,D09,0,1,0
1186,-23.0,-57.0,18.0,1645105999.3125,P11,D09,0,1,0
1187,-24.0,-57.0,17.0,1645105999.34375,P11,D09,0,1,0
1188,-23.0,-57.0,17.0,1645105999.375,P11,D09,0,1,0
1189,-23.0,-57.0,17.0,1645105999.40625,P11,D09,0,1,0
1190,-24.0,-58.0,17.0,1645105999.4375,P11,D09,0,1,0
1191,-24.0,-58.0,18.0,1645105999.46875,P11,D09,0,1,0
1192,-23.0,-57.0,18.0,1645105999.5,P11,D09,0,1,0
1193,-24.0,-57.0,17.0,1645105999.53125,P11,D09,0,1,0
1194,-24.0,-58.0,18.0,1645105999.5625,P11,D09,0,1,0
1195,-24.0,-57.0,18.0,1645105999.59375,P11,D09,0,1,0
1196,-23.0,-58.0,16.0,1645105999.625,P11,D09,0,1,0
1197,-24.0,-58.0,18.0,1645105999.65625,P11,D09,0,1,0
1198,-24.0,-57.0,18.0,1645105999.6875,P11,D09,0,1,0
1199,-24.0,-57.0,17.0,1645105999.71875,P11,D09,0,1,0
1200,-23.0,-57.0,17.0,1645105999.75,P11,D09,0,1,0
1201,-24.0,-58.0,17.0,1645105999.78125,P11,D09,0,1,0
1202,-24.0,-58.0,17.0,1645105999.8125,P11,D09,0,1,0
1203,-23.0,-58.0,17.0,1645105999.84375,P11,D09,0,1,0
1204,-23.0,-57.0,17.0,1645105999.875,P11,D09,0,1,0
1205,-23.0,-57.0,17.0,1645105999.90625,P11,D09,0,1,0
1206,-23.0,-58.0,17.0,1645105999.9375,P11,D09,0,1,0
1207,-24.0,-58.0,17.0,1645105999.96875,P11,D09,0,1,0
1208,-23.0,-58.0,17.0,1645106000.0,P11,D09,0,1,0
1209,-24.0,-57.0,17.0,1645106000.03125,P11,D09,0,1,0
1210,-24.0,-58.0,17.0,1645106000.0625,P11,D09,0,1,0
1211,-23.0,-58.0,17.0,1645106000.09375,P11,D09,0,1,0
1212,-23.0,-58.0,17.0,1645106000.125,P11,D09,0,1,0
1213,-23.0,-57.0,17.0,1645106000.15625,P11,D09,0,1,0
1214,-23.0,-58.0,17.0,1645106000.1875,P11,D09,0,1,0
1215,-23.0,-58.0,17.0,1645106000.21875,P11,D09,0,1,0
1216,-24.0,-58.0,17.0,1645106000.25,P11,D09,0,1,0
1217,-24.0,-58.0,17.0,1645106000.28125,P11,D09,0,1,0
1218,-23.0,-58.0,17.0,1645106000.3125,P11,D09,0,1,0
1219,-23.0,-58.0,17.0,1645106000.34375,P11,D09,0,1,0
1220,-23.0,-57.0,16.0,1645106000.375,P11,D09,0,1,0
1221,-23.0,-57.0,17.0,1645106000.40625,P11,D09,0,1,0
1222,-24.0,-57.0,17.0,1645106000.4375,P11,D09,0,1,0
1223,-24.0,-57.0,17.0,1645106000.46875,P11,D09,0,1,0
1224,-23.0,-58.0,17.0,1645106000.5,P11,D09,0,1,0
1225,-23.0,-58.0,17.0,1645106000.53125,P11,D09,0,1,0
1226,-24.0,-58.0,17.0,1645106000.5625,P11,D09,0,1,0
1227,-23.0,-58.0,17.0,1645106000.59375,P11,D09,0,1,0
1228,-23.0,-57.0,17.0,1645106000.625,P11,D09,0,1,0
1229,-23.0,-58.0,17.0,1645106000.65625,P11,D09,0,1,0
1230,-23.0,-58.0,17.0,1645106000.6875,P11,D09,0,1,0
1231,-23.0,-58.0,17.0,1645106000.71875,P11,D09,0,1,0
1232,-23.0,-58.0,17.0,1645106000.75,P11,D09,0,1,0
1233,-23.0,-58.0,17.0,1645106000.78125,P11,D09,0,1,0
1234,-24.0,-58.0,17.0,1645106000.8125,P11,D09,0,1,0
1235,-23.0,-57.0,17.0,1645106000.84375,P11,D09,0,1,0
1236,-23.0,-58.0,16.0,1645106000.875,P11,D09,0,1,0
1237,-24.0,-58.0,16.0,1645106000.90625,P11,D09,0,1,0
1238,-23.0,-58.0,17.0,1645106000.9375,P11,D09,0,1,0
1239,-23.0,-58.0,17.0,1645106000.96875,P11,D09,0,1,0
1240,-23.0,-58.0,16.0,1645106001.0,P11,D09,0,1,0
1241,-23.0,-58.0,17.0,1645106001.03125,P11,D09,0,1,0
1242,-24.0,-58.0,17.0,1645106001.0625,P11,D09,0,1,0
1243,-23.0,-58.0,17.0,1645106001.09375,P11,D09,0,1,0
1244,-23.0,-57.0,17.0,1645106001.125,P11,D09,0,1,0
1245,-23.0,-57.0,16.0,1645106001.15625,P11,D09,0,1,0
1246,-23.0,-58.0,17.0,1645106001.1875,P11,D09,0,1,0
1247,-23.0,-58.0,17.0,1645106001.21875,P11,D09,0,1,0
1248,-24.0,-58.0,17.0,1645106001.25,P11,D09,0,1,0
1249,-23.0,-58.0,17.0,1645106001.28125,P11,D09,0,1,0
1250,-23.0,-58.0,17.0,1645106001.3125,P11,D09,0,1,0
1251,-24.0,-58.0,17.0,1645106001.34375,P11,D09,0,1,0
1252,-24.0,-58.0,17.0,1645106001.375,P11,D09,0,1,0
1253,-23.0,-58.0,17.0,1645106001.40625,P11,D09,0,1,0
1254,-23.0,-57.0,17.0,1645106001.4375,P11,D09,0,1,0
1255,-23.0,-58.0,17.0,1645106001.46875,P11,D09,0,1,0
1256,-24.0,-58.0,17.0,1645106001.5,P11,D09,0,1,0
1257,-23.0,-58.0,17.0,1645106001.53125,P11,D09,0,1,0
1258,-24.0,-58.0,17.0,1645106001.5625,P11,D09,0,1,0
1259,-24.0,-58.0,17.0,1645106001.59375,P11,D09,0,1,0
1260,-24.0,-57.0,17.0,1645106001.625,P11,D09,0,1,0
1261,-24.0,-58.0,17.0,1645106001.65625,P11,D09,0,1,0
1262,-23.0,-57.0,17.0,1645106001.6875,P11,D09,0,1,0
1263,-24.0,-57.0,17.0,1645106001.71875,P11,D09,0,1,0
1264,-24.0,-57.0,17.0,1645106001.75,P11,D09,0,1,0
1265,-24.0,-57.0,17.0,1645106001.78125,P11,D09,0,1,0
1266,-24.0,-58.0,17.0,1645106001.8125,P11,D09,0,1,0
1267,-24.0,-58.0,17.0,1645106001.84375,P11,D09,0,1,0
1268,-24.0,-57.0,17.0,1645106001.875,P11,D09,0,1,0
1269,-23.0,-57.0,17.0,1645106001.90625,P11,D09,0,1,0
1270,-23.0,-58.0,17.0,1645106001.9375,P11,D09,0,1,0
1271,-23.0,-58.0,17.0,1645106001.96875,P11,D09,0,1,0
1272,-24.0,-58.0,17.0,1645106002.0,P11,D09,0,1,0
1273,-24.0,-57.0,17.0,1645106002.03125,P11,D09,0,1,0
1274,-23.0,-57.0,17.0,1645106002.0625,P11,D09,0,1,0
1275,-24.0,-57.0,17.0,1645106002.09375,P11,D09,0,1,0
1276,-24.0,-57.0,17.0,1645106002.125,P11,D09,0,1,0
1277,-23.0,-57.0,18.0,1645106002.15625,P11,D09,0,1,0
1278,-24.0,-57.0,17.0,1645106002.1875,P11,D09,0,1,0
1279,-24.0,-57.0,17.0,1645106002.21875,P11,D09,0,1,0
1280,-24.0,-57.0,17.0,1645106002.25,P11,D09,0,1,0
1281,-24.0,-57.0,17.0,1645106002.28125,P11,D09,0,1,0
1282,-24.0,-57.0,18.0,1645106002.3125,P11,D09,0,1,0
1283,-24.0,-57.0,17.0,1645106002.34375,P11,D09,0,1,0
1284,-24.0,-57.0,18.0,1645106002.375,P11,D09,0,1,0
1285,-23.0,-57.0,18.0,1645106002.40625,P11,D09,0,1,0
1286,-24.0,-57.0,17.0,1645106002.4375,P11,D09,0,1,0
1287,-24.0,-57.0,17.0,1645106002.46875,P11,D09,0,1,0
1288,-23.0,-57.0,17.0,1645106002.5,P11,D09,0,1,0
1289,-23.0,-57.0,17.0,1645106002.53125,P11,D09,0,1,0
1290,-24.0,-57.0,17.0,1645106002.5625,P11,D09,0,1,0
1291,-24.0,-58.0,17.0,1645106002.59375,P11,D09,0,1,0
1292,-24.0,-57.0,17.0,1645106002.625,P11,D09,0,1,0
1293,-23.0,-57.0,17.0,1645106002.65625,P11,D09,0,1,0
1294,-23.0,-57.0,16.0,1645106002.6875,P11,D09,0,1,0
1295,-23.0,-58.0,17.0,1645106002.71875,P11,D09,0,1,0
1296,-24.0,-58.0,17.0,1645106002.75,P11,D09,0,1,0
1297,-24.0,-57.0,17.0,1645106002.78125,P11,D09,0,1,0
1298,-23.0,-57.0,17.0,1645106002.8125,P11,D09,0,1,0
1299,-23.0,-58.0,17.0,1645106002.84375,P11,D09,0,1,0
1300,-24.0,-58.0,17.0,1645106002.875,P11,D09,0,1,0
1301,-24.0,-57.0,17.0,1645106002.90625,P11,D09,0,1,0
1302,-23.0,-57.0,17.0,1645106002.9375,P11,D09,0,1,0
1303,-23.0,-57.0,17.0,1645106002.96875,P11,D09,0,1,0
1304,-24.0,-57.0,17.0,1645106003.0,P11,D09,0,1,0
1305,-23.0,-57.0,17.0,1645106003.03125,P11,D09,0,1,0
1306,-23.0,-58.0,17.0,1645106003.0625,P11,D09,0,1,0
1307,-23.0,-58.0,17.0,1645106003.09375,P11,D09,0,1,0
1308,-24.0,-57.0,17.0,1645106003.125,P11,D09,0,1,0
1309,-24.0,-56.0,17.0,1645106003.15625,P11,D09,0,1,0
1310,-24.0,-58.0,17.0,1645106003.1875,P11,D09,0,1,0
1311,-23.0,-58.0,17.0,1645106003.21875,P11,D09,0,1,0
1312,-24.0,-58.0,17.0,1645106003.25,P11,D09,0,1,0
1313,-24.0,-57.0,17.0,1645106003.28125,P11,D09,0,1,0
1314,-23.0,-58.0,17.0,1645106003.3125,P11,D09,0,1,0
1315,-24.0,-58.0,17.0,1645106003.34375,P11,D09,0,1,0
1316,-24.0,-58.0,17.0,1645106003.375,P11,D09,0,1,0
1317,-24.0,-58.0,18.0,1645106003.40625,P11,D09,0,1,0
1318,-23.0,-57.0,17.0,1645106003.4375,P11,D09,0,1,0
1319,-23.0,-58.0,17.0,1645106003.46875,P11,D09,0,1,0
1320,-23.0,-57.0,17.0,1645106003.5,P11,D09,0,1,0
1321,-24.0,-58.0,17.0,1645106003.53125,P11,D09,0,1,0
1322,-24.0,-57.0,17.0,1645106003.5625,P11,D09,0,1,0
1323,-23.0,-58.0,17.0,1645106003.59375,P11,D09,0,1,0
1324,-24.0,-58.0,17.0,1645106003.625,P11,D09,0,1,0
1325,-24.0,-58.0,17.0,1645106003.65625,P11,D09,0,1,0
1326,-23.0,-58.0,17.0,1645106003.6875,P11,D09,0,1,0
1327,-23.0,-57.0,17.0,1645106003.71875,P11,D09,0,1,0
1328,-23.0,-58.0,17.0,1645106003.75,P11,D09,0,1,0
1329,-24.0,-58.0,17.0,1645106003.78125,P11,D09,0,1,0
1330,-24.0,-58.0,17.0,1645106003.8125,P11,D09,0,1,0
1331,-23.0,-58.0,17.0,1645106003.84375,P11,D09,0,1,0
1332,-23.0,-58.0,17.0,1645106003.875,P11,D09,0,1,0
1333,-23.0,-58.0,17.0,1645106003.90625,P11,D09,0,1,0
1334,-23.0,-57.0,17.0,1645106003.9375,P11,D09,0,1,0
1335,-23.0,-58.0,17.0,1645106003.96875,P11,D09,0,1,0
1336,-23.0,-58.0,17.0,1645106004.0,P11,D09,0,1,0
1337,-23.0,-58.0,17.0,1645106004.03125,P11,D09,0,1,0
1338,-23.0,-58.0,17.0,1645106004.0625,P11,D09,0,1,0
1339,-23.0,-58.0,16.0,1645106004.09375,P11,D09,0,1,0
1340,-23.0,-58.0,17.0,1645106004.125,P11,D09,0,1,0
1341,-23.0,-57.0,17.0,1645106004.15625,P11,D09,0,1,0
1342,-24.0,-57.0,17.0,1645106004.1875,P11,D09,0,1,0
1343,-24.0,-57.0,17.0,1645106004.21875,P11,D09,0,1,0
1344,-24.0,-57.0,17.0,1645106004.25,P11,D09,0,1,0
1345,-23.0,-58.0,16.0,1645106004.28125,P11,D09,0,1,0
1346,-23.0,-58.0,17.0,1645106004.3125,P11,D09,0,1,0
1347,-24.0,-58.0,17.0,1645106004.34375,P11,D09,0,1,0
1348,-24.0,-58.0,17.0,1645106004.375,P11,D09,0,1,0
1349,-23.0,-58.0,17.0,1645106004.40625,P11,D09,0,1,0
1350,-23.0,-58.0,17.0,1645106004.4375,P11,D09,0,1,0
1351,-23.0,-58.0,17.0,1645106004.46875,P11,D09,0,1,0
1352,-23.0,-58.0,17.0,1645106004.5,P11,D09,0,1,0
1353,-23.0,-58.0,17.0,1645106004.53125,P11,D09,0,1,0
1354,-24.0,-57.0,17.0,1645106004.5625,P11,D09,0,1,0
1355,-23.0,-58.0,17.0,1645106004.59375,P11,D09,0,1,0
1356,-24.0,-58.0,17.0,1645106004.625,P11,D09,0,1,0
1357,-23.0,-58.0,17.0,1645106004.65625,P11,D09,0,1,0
1358,-23.0,-57.0,17.0,1645106004.6875,P11,D09,0,1,0
1359,-24.0,-58.0,17.0,1645106004.71875,P11,D09,0,1,0
1360,-24.0,-58.0,17.0,1645106004.75,P11,D09,0,1,0
1361,-24.0,-57.0,17.0,1645106004.78125,P11,D09,0,1,0
1362,-23.0,-57.0,17.0,1645106004.8125,P11,D09,0,1,0
1363,-24.0,-57.0,17.0,1645106004.84375,P11,D09,0,1,0
1364,-24.0,-57.0,17.0,1645106004.875,P11,D09,0,1,0
1365,-24.0,-57.0,17.0,1645106004.90625,P11,D09,0,1,0
1366,-24.0,-57.0,17.0,1645106004.9375,P11,D09,0,1,0
1367,-24.0,-57.0,17.0,1645106004.96875,P11,D09,0,1,0
1368,-24.0,-57.0,17.0,1645106005.0,P11,D09,0,1,0
1369,-24.0,-57.0,17.0,1645106005.03125,P11,D09,0,1,0
1370,-23.0,-57.0,17.0,1645106005.0625,P11,D09,0,1,0
1371,-24.0,-57.0,17.0,1645106005.09375,P11,D09,0,1,0
1372,-24.0,-57.0,17.0,1645106005.125,P11,D09,0,1,0
1373,-24.0,-57.0,17.0,1645106005.15625,P11,D09,0,1,0
1374,-24.0,-57.0,17.0,1645106005.1875,P11,D09,0,1,0
1375,-24.0,-57.0,17.0,1645106005.21875,P11,D09,0,1,0
1376,-24.0,-58.0,17.0,1645106005.25,P11,D09,0,1,0
1377,-24.0,-57.0,17.0,1645106005.28125,P11,D09,0,1,0
1378,-23.0,-57.0,17.0,1645106005.3125,P11,D09,0,1,0
1379,-23.0,-57.0,17.0,1645106005.34375,P11,D09,0,1,0
1380,-23.0,-57.0,18.0,1645106005.375,P11,D09,0,1,0
1381,-24.0,-57.0,17.0,1645106005.40625,P11,D09,0,1,0
1382,-24.0,-58.0,17.0,1645106005.4375,P11,D09,0,1,0
1383,-24.0,-57.0,17.0,1645106005.46875,P11,D09,0,1,0
1384,-24.0,-58.0,18.0,1645106005.5,P11,D09,0,1,0
1385,-24.0,-58.0,17.0,1645106005.53125,P11,D09,0,1,0
1386,-24.0,-58.0,17.0,1645106005.5625,P11,D09,0,1,0
1387,-23.0,-58.0,17.0,1645106005.59375,P11,D09,0,1,0
1388,-23.0,-57.0,17.0,1645106005.625,P11,D09,0,1,0
1389,-24.0,-57.0,17.0,1645106005.65625,P11,D09,0,1,0
1390,-24.0,-57.0,17.0,1645106005.6875,P11,D09,0,1,0
1391,-23.0,-57.0,17.0,1645106005.71875,P11,D09,0,1,0
1392,-24.0,-58.0,17.0,1645106005.75,P11,D09,0,1,0
1393,-24.0,-58.0,17.0,1645106005.78125,P11,D09,0,1,0
1394,-24.0,-58.0,17.0,1645106005.8125,P11,D09,0,1,0
1395,-24.0,-57.0,17.0,1645106005.84375,P11,D09,0,1,0
1396,-23.0,-58.0,17.0,1645106005.875,P11,D09,0,1,0
1397,-23.0,-58.0,17.0,1645106005.90625,P11,D09,0,1,0
1398,-24.0,-58.0,17.0,1645106005.9375,P11,D09,0,1,0
1399,-23.0,-57.0,17.0,1645106005.96875,P11,D09,0,1,0
1400,-23.0,-58.0,17.0,1645106006.0,P11,D09,0,1,0
1401,-24.0,-57.0,17.0,1645106006.03125,P11,D09,0,1,0
1402,-24.0,-58.0,17.0,1645106006.0625,P11,D09,0,1,0
1403,-24.0,-57.0,17.0,1645106006.09375,P11,D09,0,1,0
1404,-23.0,-58.0,17.0,1645106006.125,P11,D09,0,1,0
1405,-23.0,-58.0,17.0,1645106006.15625,P11,D09,0,1,0
1406,-23.0,-58.0,17.0,1645106006.1875,P11,D09,0,1,0
1407,-24.0,-58.0,17.0,1645106006.21875,P11,D09,0,1,0
1408,-24.0,-57.0,17.0,1645106006.25,P11,D09,0,1,0
1409,-24.0,-57.0,17.0,1645106006.28125,P11,D09,0,1,0
1410,-24.0,-57.0,17.0,1645106006.3125,P11,D09,0,1,0
1411,-24.0,-58.0,17.0,1645106006.34375,P11,D09,0,1,0
1412,-24.0,-58.0,17.0,1645106006.375,P11,D09,0,1,0
1413,-23.0,-58.0,17.0,1645106006.40625,P11,D09,0,1,0
1414,-23.0,-57.0,17.0,1645106006.4375,P11,D09,0,1,0
1415,-23.0,-58.0,17.0,1645106006.46875,P11,D09,0,1,0
1416,-24.0,-58.0,17.0,1645106006.5,P11,D09,0,1,0
1417,-24.0,-58.0,17.0,1645106006.53125,P11,D09,0,1,0
1418,-23.0,-57.0,17.0,1645106006.5625,P11,D09,0,1,0
1419,-23.0,-58.0,17.0,1645106006.59375,P11,D09,0,1,0
1420,-23.0,-57.0,16.0,1645106006.625,P11,D09,0,1,0
1421,-23.0,-57.0,17.0,1645106006.65625,P11,D09,0,1,0
1422,-23.0,-58.0,17.0,1645106006.6875,P11,D09,0,1,0
1423,-24.0,-58.0,17.0,1645106006.71875,P11,D09,0,1,0
1424,-24.0,-57.0,17.0,1645106006.75,P11,D09,0,1,0
1425,-23.0,-58.0,17.0,1645106006.78125,P11,D09,0,1,0
1426,-23.0,-58.0,17.0,1645106006.8125,P11,D09,0,1,0
1427,-23.0,-58.0,17.0,1645106006.84375,P11,D09,0,1,0
1428,-23.0,-58.0,17.0,1645106006.875,P11,D09,0,1,0
1429,-24.0,-58.0,17.0,1645106006.90625,P11,D09,0,1,0
1430,-23.0,-57.0,17.0,1645106006.9375,P11,D09,0,1,0
1431,-24.0,-58.0,17.0,1645106006.96875,P11,D09,0,1,0
1432,-24.0,-58.0,17.0,1645106007.0,P11,D09,0,1,0
1433,-23.0,-57.0,16.0,1645106007.03125,P11,D09,0,1,0
1434,-23.0,-58.0,17.0,1645106007.0625,P11,D09,0,1,0
1435,-24.0,-58.0,17.0,1645106007.09375,P11,D09,0,1,0
1436,-24.0,-58.0,17.0,1645106007.125,P11,D09,0,1,0
1437,-23.0,-58.0,16.0,1645106007.15625,P11,D09,0,1,0
1438,-23.0,-58.0,16.0,1645106007.1875,P11,D09,0,1,0
1439,-23.0,-58.0,17.0,1645106007.21875,P11,D09,0,1,0
1440,-24.0,-58.0,16.0,1645106007.25,P11,D09,0,1,0
1441,-23.0,-58.0,17.0,1645106007.28125,P11,D09,0,1,0
1442,-24.0,-58.0,17.0,1645106007.3125,P11,D09,0,1,0
1443,-24.0,-58.0,17.0,1645106007.34375,P11,D09,0,1,0
1444,-23.0,-58.0,17.0,1645106007.375,P11,D09,0,1,0
1445,-23.0,-57.0,17.0,1645106007.40625,P11,D09,0,1,0
1446,-23.0,-58.0,17.0,1645106007.4375,P11,D09,0,1,0
1447,-23.0,-58.0,17.0,1645106007.46875,P11,D09,0,1,0
1448,-24.0,-57.0,17.0,1645106007.5,P11,D09,0,1,0
1449,-24.0,-57.0,17.0,1645106007.53125,P11,D09,0,1,0
1450,-23.0,-58.0,17.0,1645106007.5625,P11,D09,0,1,0
1451,-24.0,-58.0,17.0,1645106007.59375,P11,D09,0,1,0
1452,-24.0,-58.0,17.0,1645106007.625,P11,D09,0,1,0
1453,-23.0,-57.0,17.0,1645106007.65625,P11,D09,0,1,0
1454,-24.0,-57.0,17.0,1645106007.6875,P11,D09,0,1,0
1455,-23.0,-57.0,17.0,1645106007.71875,P11,D09,0,1,0
1456,-24.0,-58.0,17.0,1645106007.75,P11,D09,0,1,0
1457,-24.0,-58.0,17.0,1645106007.78125,P11,D09,0,1,0
1458,-23.0,-57.0,17.0,1645106007.8125,P11,D09,0,1,0
1459,-23.0,-57.0,17.0,1645106007.84375,P11,D09,0,1,0
1460,-24.0,-57.0,17.0,1645106007.875,P11,D09,0,1,0
1461,-24.0,-57.0,17.0,1645106007.90625,P11,D09,0,1,0
1462,-24.0,-57.0,17.0,1645106007.9375,P11,D09,0,1,0
1463,-23.0,-57.0,17.0,1645106007.96875,P11,D09,0,1,0
1464,-23.0,-57.0,17.0,1645106008.0,P11,D09,0,1,0
1465,-24.0,-57.0,17.0,1645106008.03125,P11,D09,0,1,0
1466,-24.0,-58.0,18.0,1645106008.0625,P11,D09,0,1,0
1467,-24.0,-57.0,18.0,1645106008.09375,P11,D09,0,1,0
1468,-23.0,-57.0,18.0,1645106008.125,P11,D09,0,1,0
1469,-24.0,-57.0,17.0,1645106008.15625,P11,D09,0,1,0
1470,-24.0,-57.0,17.0,1645106008.1875,P11,D09,0,1,0
1471,-23.0,-57.0,18.0,1645106008.21875,P11,D09,0,1,0
1472,-24.0,-57.0,17.0,1645106008.25,P11,D09,0,1,0
1473,-24.0,-57.0,17.0,1645106008.28125,P11,D09,0,1,0
1474,-24.0,-57.0,17.0,1645106008.3125,P11,D09,0,1,0
1475,-24.0,-57.0,17.0,1645106008.34375,P11,D09,0,1,0
1476,-24.0,-58.0,17.0,1645106008.375,P11,D09,0,1,0
1477,-24.0,-57.0,17.0,1645106008.40625,P11,D09,0,1,0
1478,-24.0,-57.0,17.0,1645106008.4375,P11,D09,0,1,0
1479,-23.0,-58.0,17.0,1645106008.46875,P11,D09,0,1,0
1480,-24.0,-58.0,17.0,1645106008.5,P11,D09,0,1,0
1481,-24.0,-58.0,17.0,1645106008.53125,P11,D09,0,1,0
1482,-24.0,-58.0,17.0,1645106008.5625,P11,D09,0,1,0
1483,-23.0,-57.0,17.0,1645106008.59375,P11,D09,0,1,0
1484,-23.0,-57.0,17.0,1645106008.625,P11,D09,0,1,0
1485,-24.0,-57.0,17.0,1645106008.65625,P11,D09,0,1,0
1486,-24.0,-58.0,17.0,1645106008.6875,P11,D09,0,1,0
1487,-23.0,-57.0,17.0,1645106008.71875,P11,D09,0,1,0
1488,-24.0,-58.0,17.0,1645106008.75,P11,D09,0,1,0
1489,-24.0,-58.0,17.0,1645106008.78125,P11,D09,0,1,0
1490,-24.0,-57.0,17.0,1645106008.8125,P11,D09,0,1,0
1491,-24.0,-57.0,17.0,1645106008.84375,P11,D09,0,1,0
1492,-24.0,-57.0,17.0,1645106008.875,P11,D09,0,1,0
1493,-24.0,-58.0,17.0,1645106008.90625,P11,D09,0,1,0
1494,-23.0,-57.0,17.0,1645106008.9375,P11,D09,0,1,0
1495,-24.0,-58.0,17.0,1645106008.96875,P11,D09,0,1,0
1496,-24.0,-57.0,17.0,1645106009.0,P11,D09,0,1,0
1497,-24.0,-57.0,17.0,1645106009.03125,P11,D09,0,1,0
1498,-24.0,-57.0,17.0,1645106009.0625,P11,D09,0,1,0
1499,-24.0,-57.0,17.0,1645106009.09375,P11,D09,0,1,0
1500,-24.0,-58.0,17.0,1645106009.125,P11,D09,0,1,0
1501,-23.0,-58.0,17.0,1645106009.15625,P11,D09,0,1,0
1502,-23.0,-58.0,17.0,1645106009.1875,P11,D09,0,1,0
1503,-24.0,-57.0,16.0,1645106009.21875,P11,D09,0,1,0
1504,-24.0,-57.0,17.0,1645106009.25,P11,D09,0,1,0
1505,-24.0,-58.0,17.0,1645106009.28125,P11,D09,0,1,0
1506,-23.0,-58.0,17.0,1645106009.3125,P11,D09,0,1,0
1507,-23.0,-58.0,17.0,1645106009.34375,P11,D09,0,1,0
1508,-24.0,-58.0,16.0,1645106009.375,P11,D09,0,1,0
1509,-24.0,-57.0,17.0,1645106009.40625,P11,D09,0,1,0
1510,-24.0,-58.0,17.0,1645106009.4375,P11,D09,0,1,0
1511,-24.0,-58.0,16.0,1645106009.46875,P11,D09,0,1,0
1512,-24.0,-58.0,17.0,1645106009.5,P11,D09,0,1,0
1513,-24.0,-58.0,17.0,1645106009.53125,P11,D09,0,1,0
1514,-24.0,-57.0,17.0,1645106009.5625,P11,D09,0,1,0
1515,-23.0,-58.0,17.0,1645106009.59375,P11,D09,0,1,0
1516,-23.0,-57.0,17.0,1645106009.625,P11,D09,0,1,0
1517,-24.0,-58.0,17.0,1645106009.65625,P11,D09,0,1,0
1518,-24.0,-58.0,17.0,1645106009.6875,P11,D09,0,1,0
1519,-23.0,-57.0,17.0,1645106009.71875,P11,D09,0,1,0
1520,-24.0,-57.0,16.0,1645106009.75,P11,D09,0,1,0
1521,-23.0,-58.0,17.0,1645106009.78125,P11,D09,0,1,0
1522,-24.0,-58.0,17.0,1645106009.8125,P11,D09,0,1,0
1523,-24.0,-58.0,17.0,1645106009.84375,P11,D09,0,1,0
1524,-24.0,-57.0,17.0,1645106009.875,P11,D09,0,1,0
1525,-24.0,-57.0,17.0,1645106009.90625,P11,D09,0,1,0
1526,-24.0,-58.0,17.0,1645106009.9375,P11,D09,0,1,0
1527,-24.0,-58.0,17.0,1645106009.96875,P11,D09,0,1,0
1528,-23.0,-58.0,17.0,1645106010.0,P11,D09,0,1,0
1529,-24.0,-57.0,17.0,1645106010.03125,P11,D09,0,1,0
1530,-24.0,-58.0,17.0,1645106010.0625,P11,D09,0,1,0
1531,-23.0,-58.0,17.0,1645106010.09375,P11,D09,0,1,0
1532,-24.0,-57.0,17.0,1645106010.125,P11,D09,0,1,0
1533,-24.0,-57.0,17.0,1645106010.15625,P11,D09,0,1,0
1534,-24.0,-57.0,17.0,1645106010.1875,P11,D09,0,1,0
1535,-24.0,-57.0,17.0,1645106010.21875,P11,D09,0,1,0
1536,-23.0,-57.0,17.0,1645106010.25,P11,D09,0,1,0
1537,-24.0,-58.0,17.0,1645106010.28125,P11,D09,0,1,0
1538,-23.0,-58.0,17.0,1645106010.3125,P11,D09,0,1,0
1539,-24.0,-57.0,17.0,1645106010.34375,P11,D09,0,1,0
1540,-24.0,-57.0,17.0,1645106010.375,P11,D09,0,1,0
1541,-24.0,-57.0,17.0,1645106010.40625,P11,D09,0,1,0
1542,-23.0,-58.0,17.0,1645106010.4375,P11,D09,0,1,0
1543,-24.0,-57.0,17.0,1645106010.46875,P11,D09,0,1,0
1544,-23.0,-57.0,17.0,1645106010.5,P11,D09,0,1,0
1545,-24.0,-57.0,17.0,1645106010.53125,P11,D09,0,1,0
1546,-24.0,-57.0,17.0,1645106010.5625,P11,D09,0,1,0
1547,-23.0,-57.0,18.0,1645106010.59375,P11,D09,0,1,0
1548,-24.0,-57.0,17.0,1645106010.625,P11,D09,0,1,0
1549,-23.0,-58.0,17.0,1645106010.65625,P11,D09,0,1,0
1550,-24.0,-58.0,18.0,1645106010.6875,P11,D09,0,1,0
1551,-24.0,-57.0,17.0,1645106010.71875,P11,D09,0,1,0
1552,-24.0,-57.0,17.0,1645106010.75,P11,D09,0,1,0
1553,-24.0,-57.0,17.0,1645106010.78125,P11,D09,0,1,0
1554,-24.0,-57.0,17.0,1645106010.8125,P11,D09,0,1,0
1555,-24.0,-57.0,18.0,1645106010.84375,P11,D09,0,1,0
1556,-23.0,-57.0,17.0,1645106010.875,P11,D09,0,1,0
1557,-23.0,-57.0,17.0,1645106010.90625,P11,D09,0,1,0
1558,-24.0,-57.0,17.0,1645106010.9375,P11,D09,0,1,0
1559,-24.0,-57.0,17.0,1645106010.96875,P11,D09,0,1,0
1560,-24.0,-58.0,17.0,1645106011.0,P11,D09,0,1,0
1561,-24.0,-58.0,17.0,1645106011.03125,P11,D09,0,1,0
1562,-24.0,-58.0,17.0,1645106011.0625,P11,D09,0,1,0
1563,-24.0,-57.0,17.0,1645106011.09375,P11,D09,0,1,0
1564,-24.0,-57.0,17.0,1645106011.125,P11,D09,0,1,0
1565,-24.0,-57.0,17.0,1645106011.15625,P11,D09,0,1,0
1566,-24.0,-58.0,17.0,1645106011.1875,P11,D09,0,1,0
1567,-24.0,-57.0,17.0,1645106011.21875,P11,D09,0,1,0
1568,-24.0,-57.0,17.0,1645106011.25,P11,D09,0,1,0
1569,-24.0,-58.0,17.0,1645106011.28125,P11,D09,0,1,0
1570,-24.0,-58.0,17.0,1645106011.3125,P11,D09,0,1,0
1571,-24.0,-58.0,17.0,1645106011.34375,P11,D09,0,1,0
1572,-24.0,-58.0,17.0,1645106011.375,P11,D09,0,1,0
1573,-24.0,-57.0,18.0,1645106011.40625,P11,D09,0,1,0
1574,-24.0,-57.0,17.0,1645106011.4375,P11,D09,0,1,0
1575,-24.0,-58.0,16.0,1645106011.46875,P11,D09,0,1,0
1576,-24.0,-58.0,17.0,1645106011.5,P11,D09,0,1,0
1577,-23.0,-57.0,18.0,1645106011.53125,P11,D09,0,1,0
1578,-24.0,-57.0,17.0,1645106011.5625,P11,D09,0,1,0
1579,-23.0,-57.0,17.0,1645106011.59375,P11,D09,0,1,0
1580,-24.0,-57.0,17.0,1645106011.625,P11,D09,0,1,0
1581,-24.0,-57.0,17.0,1645106011.65625,P11,D09,0,1,0
1582,-23.0,-58.0,17.0,1645106011.6875,P11,D09,0,1,0
1583,-23.0,-57.0,17.0,1645106011.71875,P11,D09,0,1,0
1584,-24.0,-57.0,17.0,1645106011.75,P11,D09,0,1,0
1585,-24.0,-58.0,17.0,1645106011.78125,P11,D09,0,1,0
1586,-23.0,-58.0,17.0,1645106011.8125,P11,D09,0,1,0
1587,-23.0,-58.0,17.0,1645106011.84375,P11,D09,0,1,0
1588,-24.0,-57.0,17.0,1645106011.875,P11,D09,0,1,0
1589,-24.0,-57.0,17.0,1645106011.90625,P11,D09,0,1,0
1590,-23.0,-57.0,17.0,1645106011.9375,P11,D09,0,1,0
1591,-23.0,-58.0,17.0,1645106011.96875,P11,D09,0,1,0
1592,-24.0,-58.0,17.0,1645106012.0,P11,D09,0,1,0
1593,-24.0,-57.0,17.0,1645106012.03125,P11,D09,0,1,0
1594,-24.0,-58.0,17.0,1645106012.0625,P11,D09,0,1,0
1595,-24.0,-58.0,17.0,1645106012.09375,P11,D09,0,1,0
1596,-23.0,-58.0,17.0,1645106012.125,P11,D09,0,1,0
1597,-23.0,-57.0,17.0,1645106012.15625,P11,D09,0,1,0
1598,-23.0,-58.0,17.0,1645106012.1875,P11,D09,0,1,0
1599,-24.0,-58.0,17.0,1645106012.21875,P11,D09,0,1,0
1600,-24.0,-58.0,17.0,1645106012.25,P11,D09,0,1,0
1601,-23.0,-58.0,17.0,1645106012.28125,P11,D09,0,1,0
1602,-23.0,-57.0,17.0,1645106012.3125,P11,D09,0,1,0
1603,-23.0,-58.0,17.0,1645106012.34375,P11,D09,0,1,0
1604,-24.0,-58.0,17.0,1645106012.375,P11,D09,0,1,0
1605,-24.0,-58.0,17.0,1645106012.40625,P11,D09,0,1,0
1606,-24.0,-57.0,17.0,1645106012.4375,P11,D09,0,1,0
1607,-23.0,-58.0,17.0,1645106012.46875,P11,D09,0,1,0
1608,-24.0,-58.0,17.0,1645106012.5,P11,D09,0,1,0
1609,-23.0,-58.0,17.0,1645106012.53125,P11,D09,0,1,0
1610,-23.0,-58.0,17.0,1645106012.5625,P11,D09,0,1,0
1611,-24.0,-57.0,17.0,1645106012.59375,P11,D09,0,1,0
1612,-23.0,-58.0,17.0,1645106012.625,P11,D09,0,1,0
1613,-23.0,-58.0,17.0,1645106012.65625,P11,D09,0,1,0
1614,-24.0,-58.0,16.0,1645106012.6875,P11,D09,0,1,0
1615,-24.0,-58.0,17.0,1645106012.71875,P11,D09,0,1,0
1616,-23.0,-58.0,17.0,1645106012.75,P11,D09,0,1,0
1617,-24.0,-57.0,17.0,1645106012.78125,P11,D09,0,1,0
1618,-23.0,-58.0,17.0,1645106012.8125,P11,D09,0,1,0
1619,-24.0,-58.0,16.0,1645106012.84375,P11,D09,0,1,0
1620,-24.0,-58.0,17.0,1645106012.875,P11,D09,0,1,0
1621,-24.0,-58.0,17.0,1645106012.90625,P11,D09,0,1,0
1622,-23.0,-58.0,17.0,1645106012.9375,P11,D09,0,1,0
1623,-24.0,-58.0,17.0,1645106012.96875,P11,D09,0,1,0
1624,-23.0,-58.0,17.0,1645106013.0,P11,D09,0,1,0
1625,-23.0,-58.0,17.0,1645106013.03125,P11,D09,0,1,0
1626,-23.0,-58.0,17.0,1645106013.0625,P11,D09,0,1,0
1627,-24.0,-58.0,17.0,1645106013.09375,P11,D09,0,1,0
1628,-24.0,-58.0,17.0,1645106013.125,P11,D09,0,1,0
1629,-23.0,-57.0,17.0,1645106013.15625,P11,D09,0,1,0
1630,-23.0,-57.0,16.0,1645106013.1875,P11,D09,0,1,0
1631,-23.0,-58.0,17.0,1645106013.21875,P11,D09,0,1,0
1632,-24.0,-58.0,17.0,1645106013.25,P11,D09,0,1,0
1633,-24.0,-57.0,17.0,1645106013.28125,P11,D09,0,1,0
1634,-24.0,-58.0,17.0,1645106013.3125,P11,D09,0,1,0
1635,-23.0,-58.0,17.0,1645106013.34375,P11,D09,0,1,0
1636,-24.0,-58.0,17.0,1645106013.375,P11,D09,0,1,0
1637,-24.0,-57.0,17.0,1645106013.40625,P11,D09,0,1,0
1638,-24.0,-57.0,17.0,1645106013.4375,P11,D09,0,1,0
1639,-24.0,-57.0,17.0,1645106013.46875,P11,D09,0,1,0
1640,-24.0,-58.0,17.0,1645106013.5,P11,D09,0,1,0
1641,-24.0,-57.0,17.0,1645106013.53125,P11,D09,0,1,0
1642,-24.0,-57.0,17.0,1645106013.5625,P11,D09,0,1,0
1643,-24.0,-57.0,17.0,1645106013.59375,P11,D09,0,1,0
1644,-24.0,-57.0,17.0,1645106013.625,P11,D09,0,1,0
1645,-24.0,-57.0,17.0,1645106013.65625,P11,D09,0,1,0
1646,-24.0,-57.0,17.0,1645106013.6875,P11,D09,0,1,0
1647,-24.0,-57.0,17.0,1645106013.71875,P11,D09,0,1,0
1648,-24.0,-57.0,17.0,1645106013.75,P11,D09,0,1,0
1649,-24.0,-57.0,17.0,1645106013.78125,P11,D09,0,1,0
1650,-24.0,-57.0,17.0,1645106013.8125,P11,D09,0,1,0
1651,-23.0,-57.0,17.0,1645106013.84375,P11,D09,0,1,0
1652,-24.0,-57.0,17.0,1645106013.875,P11,D09,0,1,0
1653,-24.0,-57.0,18.0,1645106013.90625,P11,D09,0,1,0
1654,-24.0,-57.0,18.0,1645106013.9375,P11,D09,0,1,0
1655,-23.0,-57.0,18.0,1645106013.96875,P11,D09,0,1,0
1656,-24.0,-57.0,17.0,1645106014.0,P11,D09,0,1,0
1657,-24.0,-57.0,18.0,1645106014.03125,P11,D09,0,1,0
1658,-24.0,-57.0,18.0,1645106014.0625,P11,D09,0,1,0
1659,-24.0,-57.0,17.0,1645106014.09375,P11,D09,0,1,0
1660,-24.0,-57.0,17.0,1645106014.125,P11,D09,0,1,0
1661,-24.0,-58.0,17.0,1645106014.15625,P11,D09,0,1,0
1662,-24.0,-58.0,17.0,1645106014.1875,P11,D09,0,1,0
1663,-24.0,-57.0,18.0,1645106014.21875,P11,D09,0,1,0
1664,-23.0,-57.0,17.0,1645106014.25,P11,D09,0,1,0
1665,-24.0,-57.0,17.0,1645106014.28125,P11,D09,0,1,0
1666,-23.0,-57.0,17.0,1645106014.3125,P11,D09,0,1,0
1667,-24.0,-57.0,17.0,1645106014.34375,P11,D09,0,1,0
1668,-24.0,-57.0,17.0,1645106014.375,P11,D09,0,1,0
1669,-24.0,-57.0,17.0,1645106014.40625,P11,D09,0,1,0
1670,-24.0,-58.0,17.0,1645106014.4375,P11,D09,0,1,0
1671,-23.0,-57.0,17.0,1645106014.46875,P11,D09,0,1,0
1672,-23.0,-57.0,17.0,1645106014.5,P11,D09,0,1,0
1673,-24.0,-58.0,17.0,1645106014.53125,P11,D09,0,1,0
1674,-24.0,-57.0,17.0,1645106014.5625,P11,D09,0,1,0
1675,-23.0,-57.0,17.0,1645106014.59375,P11,D09,0,1,0
1676,-23.0,-58.0,17.0,1645106014.625,P11,D09,0,1,0
1677,-24.0,-57.0,17.0,1645106014.65625,P11,D09,0,1,0
1678,-24.0,-58.0,17.0,1645106014.6875,P11,D09,0,1,0
1679,-24.0,-57.0,17.0,1645106014.71875,P11,D09,0,1,0
1680,-23.0,-57.0,17.0,1645106014.75,P11,D09,0,1,0
1681,-24.0,-57.0,17.0,1645106014.78125,P11,D09,0,1,0
1682,-23.0,-58.0,17.0,1645106014.8125,P11,D09,0,1,0
1683,-24.0,-57.0,17.0,1645106014.84375,P11,D09,0,1,0
1684,-24.0,-57.0,17.0,1645106014.875,P11,D09,0,1,0
1685,-24.0,-57.0,17.0,1645106014.90625,P11,D09,0,1,0
1686,-24.0,-57.0,17.0,1645106014.9375,P11,D09,0,1,0
1687,-24.0,-58.0,17.0,1645106014.96875,P11,D09,0,1,0
1688,-24.0,-58.0,17.0,1645106015.0,P11,D09,0,1,0
1689,-23.0,-57.0,17.0,1645106015.03125,P11,D09,0,1,0
1690,-23.0,-57.0,17.0,1645106015.0625,P11,D09,0,1,0
1691,-23.0,-58.0,17.0,1645106015.09375,P11,D09,0,1,0
1692,-24.0,-58.0,17.0,1645106015.125,P11,D09,0,1,0
1693,-23.0,-58.0,17.0,1645106015.15625,P11,D09,0,1,0
1694,-24.0,-58.0,17.0,1645106015.1875,P11,D09,0,1,0
1695,-24.0,-58.0,17.0,1645106015.21875,P11,D09,0,1,0
1696,-23.0,-58.0,17.0,1645106015.25,P11,D09,0,1,0
1697,-23.0,-58.0,17.0,1645106015.28125,P11,D09,0,1,0
1698,-24.0,-58.0,17.0,1645106015.3125,P11,D09,0,1,0
1699,-24.0,-57.0,17.0,1645106015.34375,P11,D09,0,1,0
1700,-23.0,-58.0,17.0,1645106015.375,P11,D09,0,1,0
1701,-24.0,-58.0,17.0,1645106015.40625,P11,D09,0,1,0
1702,-23.0,-57.0,17.0,1645106015.4375,P11,D09,0,1,0
1703,-23.0,-58.0,17.0,1645106015.46875,P11,D09,0,1,0
1704,-23.0,-58.0,17.0,1645106015.5,P11,D09,0,1,0
1705,-24.0,-58.0,17.0,1645106015.53125,P11,D09,0,1,0
1706,-23.0,-58.0,17.0,1645106015.5625,P11,D09,0,1,0
1707,-24.0,-58.0,16.0,1645106015.59375,P11,D09,0,1,0
1708,-23.0,-58.0,16.0,1645106015.625,P11,D09,0,1,0
1709,-24.0,-58.0,16.0,1645106015.65625,P11,D09,0,1,0
1710,-23.0,-58.0,17.0,1645106015.6875,P11,D09,0,1,0
1711,-23.0,-58.0,17.0,1645106015.71875,P11,D09,0,1,0
1712,-23.0,-58.0,17.0,1645106015.75,P11,D09,0,1,0
1713,-24.0,-58.0,17.0,1645106015.78125,P11,D09,0,1,0
1714,-24.0,-58.0,17.0,1645106015.8125,P11,D09,0,1,0
1715,-23.0,-58.0,17.0,1645106015.84375,P11,D09,0,1,0
1716,-23.0,-57.0,17.0,1645106015.875,P11,D09,0,1,0
1717,-23.0,-58.0,17.0,1645106015.90625,P11,D09,0,1,0
1718,-23.0,-58.0,17.0,1645106015.9375,P11,D09,0,1,0
1719,-24.0,-57.0,17.0,1645106015.96875,P11,D09,0,1,0
1720,-24.0,-57.0,17.0,1645106016.0,P11,D09,0,1,0
1721,-24.0,-58.0,17.0,1645106016.03125,P11,D09,0,1,0
1722,-24.0,-57.0,17.0,1645106016.0625,P11,D09,0,1,0
1723,-24.0,-57.0,17.0,1645106016.09375,P11,D09,0,1,0
1724,-23.0,-58.0,17.0,1645106016.125,P11,D09,0,1,0
1725,-23.0,-57.0,17.0,1645106016.15625,P11,D09,0,1,0
1726,-24.0,-57.0,17.0,1645106016.1875,P11,D09,0,1,0
1727,-23.0,-58.0,17.0,1645106016.21875,P11,D09,0,1,0
1728,-24.0,-58.0,17.0,1645106016.25,P11,D09,0,1,0
1729,-23.0,-58.0,18.0,1645106016.28125,P11,D09,0,1,0
1730,-24.0,-57.0,17.0,1645106016.3125,P11,D09,0,1,0
1731,-24.0,-58.0,17.0,1645106016.34375,P11,D09,0,1,0
1732,-23.0,-57.0,18.0,1645106016.375,P11,D09,0,1,0
1733,-23.0,-57.0,17.0,1645106016.40625,P11,D09,0,1,0
1734,-23.0,-58.0,17.0,1645106016.4375,P11,D09,0,1,0
1735,-24.0,-57.0,18.0,1645106016.46875,P11,D09,0,1,0
1736,-23.0,-57.0,17.0,1645106016.5,P11,D09,0,1,0
1737,-23.0,-57.0,17.0,1645106016.53125,P11,D09,0,1,0
1738,-24.0,-57.0,18.0,1645106016.5625,P11,D09,0,1,0
1739,-24.0,-57.0,17.0,1645106016.59375,P11,D09,0,1,0
1740,-23.0,-57.0,18.0,1645106016.625,P11,D09,0,1,0
1741,-24.0,-57.0,18.0,1645106016.65625,P11,D09,0,1,0
1742,-24.0,-57.0,18.0,1645106016.6875,P11,D09,0,1,0
1743,-23.0,-57.0,17.0,1645106016.71875,P11,D09,0,1,0
1744,-24.0,-57.0,18.0,1645106016.75,P11,D09,0,1,0
1745,-24.0,-57.0,18.0,1645106016.78125,P11,D09,0,1,0
1746,-24.0,-57.0,17.0,1645106016.8125,P11,D09,0,1,0
1747,-24.0,-57.0,17.0,1645106016.84375,P11,D09,0,1,0
1748,-24.0,-57.0,18.0,1645106016.875,P11,D09,0,1,0
1749,-24.0,-57.0,17.0,1645106016.90625,P11,D09,0,1,0
1750,-24.0,-57.0,18.0,1645106016.9375,P11,D09,0,1,0
1751,-23.0,-57.0,17.0,1645106016.96875,P11,D09,0,1,0
1752,-23.0,-58.0,17.0,1645106017.0,P11,D09,0,1,0
1753,-24.0,-58.0,18.0,1645106017.03125,P11,D09,0,1,0
1754,-23.0,-58.0,17.0,1645106017.0625,P11,D09,0,1,0
1755,-24.0,-57.0,18.0,1645106017.09375,P11,D09,0,1,0
1756,-23.0,-57.0,18.0,1645106017.125,P11,D09,0,1,0
1757,-23.0,-57.0,17.0,1645106017.15625,P11,D09,0,1,0
1758,-23.0,-58.0,17.0,1645106017.1875,P11,D09,0,1,0
1759,-23.0,-57.0,18.0,1645106017.21875,P11,D09,0,1,0
1760,-24.0,-57.0,17.0,1645106017.25,P11,D09,0,1,0
1761,-24.0,-58.0,17.0,1645106017.28125,P11,D09,0,1,0
1762,-23.0,-57.0,18.0,1645106017.3125,P11,D09,0,1,0
1763,-24.0,-57.0,17.0,1645106017.34375,P11,D09,0,1,0
1764,-23.0,-58.0,17.0,1645106017.375,P11,D09,0,1,0
1765,-23.0,-58.0,18.0,1645106017.40625,P11,D09,0,1,0
1766,-24.0,-57.0,17.0,1645106017.4375,P11,D09,0,1,0
1767,-24.0,-57.0,17.0,1645106017.46875,P11,D09,0,1,0
1768,-24.0,-57.0,17.0,1645106017.5,P11,D09,0,1,0
1769,-24.0,-57.0,17.0,1645106017.53125,P11,D09,0,1,0
1770,-24.0,-58.0,17.0,1645106017.5625,P11,D09,0,1,0
1771,-24.0,-57.0,17.0,1645106017.59375,P11,D09,0,1,0
1772,-24.0,-58.0,17.0,1645106017.625,P11,D09,0,1,0
1773,-23.0,-58.0,17.0,1645106017.65625,P11,D09,0,1,0
1774,-23.0,-58.0,17.0,1645106017.6875,P11,D09,0,1,0
1775,-23.0,-57.0,17.0,1645106017.71875,P11,D09,0,1,0
1776,-24.0,-57.0,17.0,1645106017.75,P11,D09,0,1,0
1777,-23.0,-58.0,17.0,1645106017.78125,P11,D09,0,1,0
1778,-23.0,-58.0,17.0,1645106017.8125,P11,D09,0,1,0
1779,-24.0,-58.0,17.0,1645106017.84375,P11,D09,0,1,0
1780,-23.0,-58.0,17.0,1645106017.875,P11,D09,0,1,0
1781,-23.0,-57.0,17.0,1645106017.90625,P11,D09,0,1,0
1782,-23.0,-58.0,16.0,1645106017.9375,P11,D09,0,1,0
1783,-23.0,-58.0,17.0,1645106017.96875,P11,D09,0,1,0
1784,-23.0,-57.0,17.0,1645106018.0,P11,D09,0,1,0
1785,-24.0,-58.0,17.0,1645106018.03125,P11,D09,0,1,0
1786,-23.0,-58.0,17.0,1645106018.0625,P11,D09,0,1,0
1787,-24.0,-58.0,17.0,1645106018.09375,P11,D09,0,1,0
1788,-23.0,-58.0,17.0,1645106018.125,P11,D09,0,1,0
1789,-23.0,-58.0,17.0,1645106018.15625,P11,D09,0,1,0
1790,-23.0,-58.0,17.0,1645106018.1875,P11,D09,0,1,0
1791,-23.0,-58.0,17.0,1645106018.21875,P11,D09,0,1,0
1792,-24.0,-58.0,17.0,1645106018.25,P11,D09,0,1,0
1793,-23.0,-58.0,17.0,1645106018.28125,P11,D09,0,1,0
1794,-23.0,-58.0,17.0,1645106018.3125,P11,D09,0,1,0
1795,-24.0,-57.0,17.0,1645106018.34375,P11,D09,0,1,0
1796,-24.0,-58.0,17.0,1645106018.375,P11,D09,0,1,0
1797,-24.0,-58.0,17.0,1645106018.40625,P11,D09,0,1,0
1798,-24.0,-58.0,17.0,1645106018.4375,P11,D09,0,1,0
1799,-24.0,-58.0,17.0,1645106018.46875,P11,D09,0,1,0
1800,-23.0,-58.0,17.0,1645106018.5,P11,D09,0,1,0
1801,-23.0,-58.0,17.0,1645106018.53125,P11,D09,0,1,0
1802,-23.0,-59.0,17.0,1645106018.5625,P11,D09,0,1,0
1803,-23.0,-58.0,17.0,1645106018.59375,P11,D09,0,1,0
1804,-23.0,-58.0,17.0,1645106018.625,P11,D09,0,1,0
1805,-23.0,-57.0,17.0,1645106018.65625,P11,D09,0,1,0
1806,-23.0,-58.0,17.0,1645106018.6875,P11,D09,0,1,0
1807,-23.0,-58.0,16.0,1645106018.71875,P11,D09,0,1,0
1808,-23.0,-57.0,17.0,1645106018.75,P11,D09,0,1,0
1809,-23.0,-58.0,17.0,1645106018.78125,P11,D09,0,1,0
1810,-23.0,-58.0,17.0,1645106018.8125,P11,D09,0,1,0
1811,-23.0,-57.0,17.0,1645106018.84375,P11,D09,0,1,0
1812,-23.0,-57.0,18.0,1645106018.875,P11,D09,0,1,0
1813,-24.0,-57.0,17.0,1645106018.90625,P11,D09,0,1,0
1814,-23.0,-58.0,17.0,1645106018.9375,P11,D09,0,1,0
1815,-23.0,-57.0,18.0,1645106018.96875,P11,D09,0,1,0
1816,-23.0,-57.0,17.0,1645106019.0,P11,D09,0,1,0
1817,-23.0,-57.0,17.0,1645106019.03125,P11,D09,0,1,0
1818,-23.0,-57.0,18.0,1645106019.0625,P11,D09,0,1,0
1819,-24.0,-57.0,17.0,1645106019.09375,P11,D09,0,1,0
1820,-24.0,-58.0,17.0,1645106019.125,P11,D09,0,1,0
1821,-23.0,-57.0,17.0,1645106019.15625,P11,D09,0,1,0
1822,-23.0,-57.0,17.0,1645106019.1875,P11,D09,0,1,0
1823,-23.0,-58.0,17.0,1645106019.21875,P11,D09,0,1,0
1824,-23.0,-57.0,18.0,1645106019.25,P11,D09,0,1,0
1825,-24.0,-57.0,17.0,1645106019.28125,P11,D09,0,1,0
1826,-24.0,-58.0,18.0,1645106019.3125,P11,D09,0,1,0
1827,-23.0,-57.0,18.0,1645106019.34375,P11,D09,0,1,0
1828,-23.0,-58.0,18.0,1645106019.375,P11,D09,0,1,0
1829,-23.0,-57.0,18.0,1645106019.40625,P11,D09,0,1,0
1830,-24.0,-57.0,18.0,1645106019.4375,P11,D09,0,1,0
1831,-24.0,-57.0,18.0,1645106019.46875,P11,D09,0,1,0
1832,-23.0,-57.0,17.0,1645106019.5,P11,D09,0,1,0
1833,-23.0,-57.0,18.0,1645106019.53125,P11,D09,0,1,0
1834,-23.0,-57.0,18.0,1645106019.5625,P11,D09,0,1,0
1835,-23.0,-57.0,18.0,1645106019.59375,P11,D09,0,1,0
1836,-23.0,-57.0,18.0,1645106019.625,P11,D09,0,1,0
1837,-23.0,-57.0,18.0,1645106019.65625,P11,D09,0,1,0
1838,-24.0,-58.0,18.0,1645106019.6875,P11,D09,0,1,0
1839,-23.0,-57.0,18.0,1645106019.71875,P11,D09,0,1,0
1840,-23.0,-57.0,18.0,1645106019.75,P11,D09,0,1,0
1841,-23.0,-58.0,18.0,1645106019.78125,P11,D09,0,1,0
1842,-23.0,-57.0,18.0,1645106019.8125,P11,D09,0,1,0
1843,-23.0,-58.0,17.0,1645106019.84375,P11,D09,0,1,0
1844,-23.0,-58.0,17.0,1645106019.875,P11,D09,0,1,0
1845,-24.0,-57.0,18.0,1645106019.90625,P11,D09,0,1,0
1846,-23.0,-57.0,18.0,1645106019.9375,P11,D09,0,1,0
1847,-23.0,-58.0,17.0,1645106019.96875,P11,D09,0,1,0
1848,-24.0,-58.0,17.0,1645106020.0,P11,D09,0,1,0
1849,-24.0,-57.0,17.0,1645106020.03125,P11,D09,0,1,0
1850,-23.0,-57.0,17.0,1645106020.0625,P11,D09,0,1,0
1851,-24.0,-58.0,17.0,1645106020.09375,P11,D09,0,1,0
1852,-23.0,-57.0,17.0,1645106020.125,P11,D09,0,1,0
1853,-23.0,-57.0,17.0,1645106020.15625,P11,D09,0,1,0
1854,-24.0,-57.0,18.0,1645106020.1875,P11,D09,0,1,0
1855,-23.0,-58.0,18.0,1645106020.21875,P11,D09,0,1,0
1856,-24.0,-57.0,17.0,1645106020.25,P11,D09,0,1,0
1857,-23.0,-57.0,17.0,1645106020.28125,P11,D09,0,1,0
1858,-24.0,-58.0,18.0,1645106020.3125,P11,D09,0,1,0
1859,-24.0,-57.0,17.0,1645106020.34375,P11,D09,0,1,0
1860,-23.0,-57.0,17.0,1645106020.375,P11,D09,0,1,0
1861,-23.0,-58.0,17.0,1645106020.40625,P11,D09,0,1,0
1862,-24.0,-57.0,17.0,1645106020.4375,P11,D09,0,1,0
1863,-23.0,-58.0,17.0,1645106020.46875,P11,D09,0,1,0
1864,-23.0,-58.0,17.0,1645106020.5,P11,D09,0,1,0
1865,-23.0,-57.0,17.0,1645106020.53125,P11,D09,0,1,0
1866,-23.0,-57.0,17.0,1645106020.5625,P11,D09,0,1,0
1867,-23.0,-58.0,17.0,1645106020.59375,P11,D09,0,1,0
1868,-24.0,-58.0,17.0,1645106020.625,P11,D09,0,1,0
1869,-23.0,-57.0,17.0,1645106020.65625,P11,D09,0,1,0
1870,-24.0,-58.0,17.0,1645106020.6875,P11,D09,0,1,0
1871,-24.0,-57.0,17.0,1645106020.71875,P11,D09,0,1,0
1872,-23.0,-57.0,17.0,1645106020.75,P11,D09,0,1,0
1873,-24.0,-58.0,17.0,1645106020.78125,P11,D09,0,1,0
1874,-24.0,-58.0,17.0,1645106020.8125,P11,D09,0,1,0
1875,-23.0,-58.0,17.0,1645106020.84375,P11,D09,0,1,0
1876,-23.0,-58.0,17.0,1645106020.875,P11,D09,0,1,0
1877,-23.0,-58.0,17.0,1645106020.90625,P11,D09,0,1,0
1878,-24.0,-58.0,17.0,1645106020.9375,P11,D09,0,1,0
1879,-23.0,-58.0,17.0,1645106020.96875,P11,D09,0,1,0
1880,-24.0,-58.0,17.0,1645106021.0,P11,D09,0,1,0
1881,-23.0,-58.0,18.0,1645106021.03125,P11,D09,0,1,0
1882,-23.0,-57.0,16.0,1645106021.0625,P11,D09,0,1,0
1883,-23.0,-58.0,17.0,1645106021.09375,P11,D09,0,1,0
1884,-23.0,-58.0,17.0,1645106021.125,P11,D09,0,1,0
1885,-24.0,-58.0,17.0,1645106021.15625,P11,D09,0,1,0
1886,-23.0,-58.0,17.0,1645106021.1875,P11,D09,0,1,0
1887,-23.0,-58.0,17.0,1645106021.21875,P11,D09,0,1,0
1888,-23.0,-57.0,17.0,1645106021.25,P11,D09,0,1,0
1889,-23.0,-58.0,17.0,1645106021.28125,P11,D09,0,1,0
1890,-24.0,-58.0,17.0,1645106021.3125,P11,D09,0,1,0
1891,-23.0,-58.0,17.0,1645106021.34375,P11,D09,0,1,0
1892,-23.0,-58.0,17.0,1645106021.375,P11,D09,0,1,0
1893,-23.0,-59.0,17.0,1645106021.40625,P11,D09,0,1,0
1894,-23.0,-59.0,17.0,1645106021.4375,P11,D09,0,1,0
1895,-24.0,-57.0,17.0,1645106021.46875,P11,D09,0,1,0
1896,-24.0,-57.0,17.0,1645106021.5,P11,D09,0,1,0
1897,-22.0,-58.0,16.0,1645106021.53125,P11,D09,0,1,0
1898,-23.0,-57.0,17.0,1645106021.5625,P11,D09,0,1,0
1899,-23.0,-57.0,17.0,1645106021.59375,P11,D09,0,1,0
1900,-23.0,-57.0,17.0,1645106021.625,P11,D09,0,1,0
1901,-23.0,-58.0,17.0,1645106021.65625,P11,D09,0,1,0
1902,-23.0,-57.0,18.0,1645106021.6875,P11,D09,0,1,0
1903,-23.0,-57.0,18.0,1645106021.71875,P11,D09,0,1,0
1904,-23.0,-58.0,18.0,1645106021.75,P11,D09,0,1,0
1905,-23.0,-58.0,17.0,1645106021.78125,P11,D09,0,1,0
1906,-24.0,-57.0,18.0,1645106021.8125,P11,D09,0,1,0
1907,-24.0,-58.0,18.0,1645106021.84375,P11,D09,0,1,0
1908,-23.0,-58.0,17.0,1645106021.875,P11,D09,0,1,0
1909,-23.0,-57.0,17.0,1645106021.90625,P11,D09,0,1,0
1910,-24.0,-57.0,18.0,1645106021.9375,P11,D09,0,1,0
1911,-24.0,-57.0,17.0,1645106021.96875,P11,D09,0,1,0
1912,-24.0,-57.0,17.0,1645106022.0,P11,D09,0,1,0
1913,-23.0,-57.0,17.0,1645106022.03125,P11,D09,0,1,0
1914,-23.0,-58.0,17.0,1645106022.0625,P11,D09,0,1,0
1915,-24.0,-57.0,18.0,1645106022.09375,P11,D09,0,1,0
1916,-24.0,-57.0,18.0,1645106022.125,P11,D09,0,1,0
1917,-23.0,-57.0,18.0,1645106022.15625,P11,D09,0,1,0
1918,-24.0,-58.0,17.0,1645106022.1875,P11,D09,0,1,0
1919,-23.0,-57.0,18.0,1645106022.21875,P11,D09,0,1,0
1920,-23.0,-57.0,18.0,1645106022.25,P11,D09,0,1,0
1921,-23.0,-57.0,18.0,1645106022.28125,P11,D09,0,1,0
1922,-24.0,-57.0,18.0,1645106022.3125,P11,D09,0,1,0
1923,-24.0,-57.0,17.0,1645106022.34375,P11,D09,0,1,0
1924,-23.0,-57.0,18.0,1645106022.375,P11,D09,0,1,0
1925,-23.0,-57.0,18.0,1645106022.40625,P11,D09,0,1,0
1926,-23.0,-57.0,18.0,1645106022.4375,P11,D09,0,1,0
1927,-24.0,-57.0,18.0,1645106022.46875,P11,D09,0,1,0
1928,-24.0,-57.0,18.0,1645106022.5,P11,D09,0,1,0
1929,-24.0,-58.0,17.0,1645106022.53125,P11,D09,0,1,0
1930,-23.0,-57.0,18.0,1645106022.5625,P11,D09,0,1,0
1931,-23.0,-57.0,18.0,1645106022.59375,P11,D09,0,1,0
1932,-24.0,-58.0,18.0,1645106022.625,P11,D09,0,1,0
1933,-24.0,-57.0,18.0,1645106022.65625,P11,D09,0,1,0
1934,-23.0,-57.0,18.0,1645106022.6875,P11,D09,0,1,0
1935,-23.0,-57.0,17.0,1645106022.71875,P11,D09,0,1,0
1936,-23.0,-57.0,17.0,1645106022.75,P11,D09,0,1,0
1937,-24.0,-57.0,17.0,1645106022.78125,P11,D09,0,1,0
1938,-24.0,-57.0,17.0,1645106022.8125,P11,D09,0,1,0
1939,-23.0,-58.0,18.0,1645106022.84375,P11,D09,0,1,0
1940,-23.0,-57.0,17.0,1645106022.875,P11,D09,0,1,0
1941,-24.0,-58.0,17.0,1645106022.90625,P11,D09,0,1,0
1942,-23.0,-58.0,18.0,1645106022.9375,P11,D09,0,1,0
1943,-23.0,-57.0,17.0,1645106022.96875,P11,D09,0,1,0
1944,-23.0,-57.0,17.0,1645106023.0,P11,D09,0,1,0
1945,-24.0,-58.0,17.0,1645106023.03125,P11,D09,0,1,0
1946,-23.0,-58.0,17.0,1645106023.0625,P11,D09,0,1,0
1947,-23.0,-57.0,17.0,1645106023.09375,P11,D09,0,1,0
1948,-23.0,-57.0,17.0,1645106023.125,P11,D09,0,1,0
1949,-24.0,-57.0,17.0,1645106023.15625,P11,D09,0,1,0
1950,-24.0,-58.0,17.0,1645106023.1875,P11,D09,0,1,0
1951,-23.0,-58.0,17.0,1645106023.21875,P11,D09,0,1,0
1952,-23.0,-57.0,17.0,1645106023.25,P11,D09,0,1,0
1953,-23.0,-58.0,17.0,1645106023.28125,P11,D09,0,1,0
1954,-23.0,-58.0,17.0,1645106023.3125,P11,D09,0,1,0
1955,-24.0,-57.0,17.0,1645106023.34375,P11,D09,0,1,0
1956,-24.0,-58.0,17.0,1645106023.375,P11,D09,0,1,0
1957,-23.0,-58.0,18.0,1645106023.40625,P11,D09,0,1,0
1958,-23.0,-58.0,17.0,1645106023.4375,P11,D09,0,1,0
1959,-23.0,-58.0,17.0,1645106023.46875,P11,D09,0,1,0
1960,-24.0,-58.0,17.0,1645106023.5,P11,D09,0,1,0
1961,-23.0,-58.0,17.0,1645106023.53125,P11,D09,0,1,0
1962,-23.0,-57.0,17.0,1645106023.5625,P11,D09,0,1,0
1963,-23.0,-58.0,17.0,1645106023.59375,P11,D09,0,1,0
1964,-23.0,-58.0,17.0,1645106023.625,P11,D09,0,1,0
1965,-24.0,-58.0,17.0,1645106023.65625,P11,D09,0,1,0
1966,-23.0,-58.0,17.0,1645106023.6875,P11,D09,0,1,0
1967,-23.0,-58.0,17.0,1645106023.71875,P11,D09,0,1,0
1968,-23.0,-57.0,17.0,1645106023.75,P11,D09,0,1,0
1969,-23.0,-57.0,17.0,1645106023.78125,P11,D09,0,1,0
1970,-23.0,-57.0,17.0,1645106023.8125,P11,D09,0,1,0
1971,-24.0,-57.0,17.0,1645106023.84375,P11,D09,0,1,0
1972,-23.0,-58.0,17.0,1645106023.875,P11,D09,0,1,0
1973,-23.0,-58.0,17.0,1645106023.90625,P11,D09,0,1,0
1974,-23.0,-58.0,17.0,1645106023.9375,P11,D09,0,1,0
1975,-23.0,-58.0,17.0,1645106023.96875,P11,D09,0,1,0
1976,-23.0,-58.0,17.0,1645106024.0,P11,D09,0,1,0
1977,-23.0,-58.0,17.0,1645106024.03125,P11,D09,0,1,0
1978,-23.0,-57.0,17.0,1645106024.0625,P11,D09,0,1,0
1979,-23.0,-58.0,17.0,1645106024.09375,P11,D09,0,1,0
1980,-23.0,-58.0,17.0,1645106024.125,P11,D09,0,1,0
1981,-23.0,-58.0,17.0,1645106024.15625,P11,D09,0,1,0
1982,-23.0,-58.0,17.0,1645106024.1875,P11,D09,0,1,0
1983,-23.0,-58.0,17.0,1645106024.21875,P11,D09,0,1,0
1984,-23.0,-58.0,17.0,1645106024.25,P11,D09,0,1,0
1985,-24.0,-58.0,17.0,1645106024.28125,P11,D09,0,1,0
1986,-24.0,-58.0,17.0,1645106024.3125,P11,D09,0,1,0
1987,-24.0,-58.0,17.0,1645106024.34375,P11,D09,0,1,0
1988,-24.0,-58.0,17.0,1645106024.375,P11,D09,0,1,0
1989,-23.0,-57.0,17.0,1645106024.40625,P11,D09,0,1,0
1990,-24.0,-57.0,17.0,1645106024.4375,P11,D09,0,1,0
1991,-23.0,-57.0,17.0,1645106024.46875,P11,D09,0,1,0
1992,-23.0,-58.0,17.0,1645106024.5,P11,D09,0,1,0
1993,-24.0,-57.0,17.0,1645106024.53125,P11,D09,0,1,0
1994,-24.0,-57.0,17.0,1645106024.5625,P11,D09,0,1,0
1995,-23.0,-57.0,17.0,1645106024.59375,P11,D09,0,1,0
1996,-24.0,-58.0,17.0,1645106024.625,P11,D09,0,1,0
1997,-24.0,-58.0,17.0,1645106024.65625,P11,D09,0,1,0
1998,-23.0,-57.0,17.0,1645106024.6875,P11,D09,0,1,0
1999,-24.0,-57.0,17.0,1645106024.71875,P11,D09,0,1,0
2000,-24.0,-57.0,17.0,1645106024.75,P11,D09,0,1,0
2001,-24.0,-57.0,17.0,1645106024.78125,P11,D09,0,1,0
2002,-25.0,-57.0,18.0,1645106024.8125,P11,D09,0,1,0
2003,-25.0,-57.0,17.0,1645106024.84375,P11,D09,0,1,0
2004,-25.0,-57.0,18.0,1645106024.875,P11,D09,0,1,0
2005,-24.0,-57.0,17.0,1645106024.90625,P11,D09,0,1,0
2006,-24.0,-57.0,17.0,1645106024.9375,P11,D09,0,1,0
2007,-23.0,-57.0,18.0,1645106024.96875,P11,D09,0,1,0
2008,-24.0,-57.0,18.0,1645106025.0,P11,D09,0,1,0
2009,-24.0,-57.0,18.0,1645106025.03125,P11,D09,0,1,0
2010,-24.0,-57.0,18.0,1645106025.0625,P11,D09,0,1,0
2011,-24.0,-57.0,17.0,1645106025.09375,P11,D09,0,1,0
2012,-24.0,-57.0,17.0,1645106025.125,P11,D09,0,1,0
2013,-24.0,-57.0,18.0,1645106025.15625,P11,D09,0,1,0
2014,-24.0,-57.0,18.0,1645106025.1875,P11,D09,0,1,0
2015,-24.0,-57.0,18.0,1645106025.21875,P11,D09,0,1,0
2016,-23.0,-57.0,18.0,1645106025.25,P11,D09,0,1,0
2017,-24.0,-57.0,17.0,1645106025.28125,P11,D09,0,1,0
2018,-24.0,-57.0,18.0,1645106025.3125,P11,D09,0,1,0
2019,-24.0,-57.0,18.0,1645106025.34375,P11,D09,0,1,0
2020,-24.0,-57.0,18.0,1645106025.375,P11,D09,0,1,0
2021,-24.0,-57.0,18.0,1645106025.40625,P11,D09,0,1,0
2022,-24.0,-57.0,18.0,1645106025.4375,P11,D09,0,1,0
2023,-24.0,-58.0,17.0,1645106025.46875,P11,D09,0,1,0
2024,-24.0,-58.0,18.0,1645106025.5,P11,D09,0,1,0
2025,-23.0,-57.0,18.0,1645106025.53125,P11,D09,0,1,0
2026,-23.0,-57.0,17.0,1645106025.5625,P11,D09,0,1,0
2027,-24.0,-57.0,17.0,1645106025.59375,P11,D09,0,1,0
2028,-24.0,-57.0,17.0,1645106025.625,P11,D09,0,1,0
2029,-24.0,-57.0,17.0,1645106025.65625,P11,D09,0,1,0
2030,-24.0,-57.0,17.0,1645106025.6875,P11,D09,0,1,0
2031,-24.0,-57.0,17.0,1645106025.71875,P11,D09,0,1,0
2032,-24.0,-58.0,17.0,1645106025.75,P11,D09,0,1,0
2033,-24.0,-58.0,17.0,1645106025.78125,P11,D09,0,1,0
2034,-24.0,-57.0,17.0,1645106025.8125,P11,D09,0,1,0
2035,-23.0,-57.0,17.0,1645106025.84375,P11,D09,0,1,0
2036,-24.0,-57.0,17.0,1645106025.875,P11,D09,0,1,0
2037,-23.0,-57.0,18.0,1645106025.90625,P11,D09,0,1,0
2038,-24.0,-57.0,18.0,1645106025.9375,P11,D09,0,1,0
2039,-23.0,-57.0,17.0,1645106025.96875,P11,D09,0,1,0
2040,-23.0,-57.0,18.0,1645106026.0,P11,D09,0,1,0
2041,-24.0,-57.0,18.0,1645106026.03125,P11,D09,0,1,0
2042,-24.0,-58.0,17.0,1645106026.0625,P11,D09,0,1,0
2043,-24.0,-58.0,17.0,1645106026.09375,P11,D09,0,1,0
2044,-23.0,-57.0,17.0,1645106026.125,P11,D09,0,1,0
2045,-24.0,-57.0,17.0,1645106026.15625,P11,D09,0,1,0
2046,-24.0,-57.0,17.0,1645106026.1875,P11,D09,0,1,0
2047,-23.0,-57.0,18.0,1645106026.21875,P11,D09,0,1,0
2048,-23.0,-57.0,18.0,1645106026.25,P11,D09,0,1,0
2049,-24.0,-58.0,17.0,1645106026.28125,P11,D09,0,1,0
2050,-23.0,-58.0,17.0,1645106026.3125,P11,D09,0,1,0
2051,-23.0,-57.0,18.0,1645106026.34375,P11,D09,0,1,0
2052,-24.0,-57.0,18.0,1645106026.375,P11,D09,0,1,0
2053,-24.0,-58.0,17.0,1645106026.40625,P11,D09,0,1,0
2054,-24.0,-58.0,17.0,1645106026.4375,P11,D09,0,1,0
2055,-23.0,-58.0,17.0,1645106026.46875,P11,D09,0,1,0
2056,-24.0,-58.0,17.0,1645106026.5,P11,D09,0,1,0
2057,-23.0,-58.0,17.0,1645106026.53125,P11,D09,0,1,0
2058,-23.0,-58.0,17.0,1645106026.5625,P11,D09,0,1,0
2059,-24.0,-57.0,17.0,1645106026.59375,P11,D09,0,1,0
2060,-23.0,-57.0,17.0,1645106026.625,P11,D09,0,1,0
2061,-23.0,-58.0,18.0,1645106026.65625,P11,D09,0,1,0
2062,-23.0,-57.0,18.0,1645106026.6875,P11,D09,0,1,0
2063,-23.0,-58.0,17.0,1645106026.71875,P11,D09,0,1,0
2064,-24.0,-57.0,16.0,1645106026.75,P11,D09,0,1,0
2065,-24.0,-58.0,17.0,1645106026.78125,P11,D09,0,1,0
2066,-23.0,-58.0,17.0,1645106026.8125,P11,D09,0,1,0
2067,-24.0,-57.0,18.0,1645106026.84375,P11,D09,0,1,0
2068,-24.0,-58.0,18.0,1645106026.875,P11,D09,0,1,0
2069,-23.0,-57.0,18.0,1645106026.90625,P11,D09,0,1,0
2070,-23.0,-57.0,18.0,1645106026.9375,P11,D09,0,1,0
2071,-21.0,-58.0,20.0,1645106026.96875,P11,D09,0,1,0
2072,-20.0,-58.0,20.0,1645106027.0,P11,D09,0,1,0
2073,-21.0,-57.0,20.0,1645106027.03125,P11,D09,0,1,0
2074,-22.0,-57.0,19.0,1645106027.0625,P11,D09,0,1,0
2075,-23.0,-57.0,18.0,1645106027.09375,P11,D09,0,1,0
2076,-22.0,-57.0,19.0,1645106027.125,P11,D09,0,1,0
2077,-24.0,-58.0,17.0,1645106027.15625,P11,D09,0,1,0
2078,-24.0,-58.0,15.0,1645106027.1875,P11,D09,0,1,0
2079,-23.0,-59.0,16.0,1645106027.21875,P11,D09,0,1,0
2080,-23.0,-59.0,17.0,1645106027.25,P11,D09,0,1,0
2081,-23.0,-57.0,18.0,1645106027.28125,P11,D09,0,1,0
2082,-24.0,-57.0,17.0,1645106027.3125,P11,D09,0,1,0
2083,-24.0,-57.0,17.0,1645106027.34375,P11,D09,0,1,0
2084,-23.0,-57.0,19.0,1645106027.375,P11,D09,0,1,0
2085,-22.0,-57.0,21.0,1645106027.40625,P11,D09,0,1,0
2086,-24.0,-57.0,19.0,1645106027.4375,P11,D09,0,1,0
2087,-23.0,-57.0,18.0,1645106027.46875,P11,D09,0,1,0
2088,-23.0,-58.0,18.0,1645106027.5,P11,D09,0,1,0
2089,-23.0,-57.0,18.0,1645106027.53125,P11,D09,0,1,0
2090,-23.0,-57.0,19.0,1645106027.5625,P11,D09,0,1,0
2091,-24.0,-57.0,18.0,1645106027.59375,P11,D09,0,1,0
2092,-24.0,-57.0,18.0,1645106027.625,P11,D09,0,1,0
2093,-23.0,-57.0,18.0,1645106027.65625,P11,D09,0,1,0
2094,-23.0,-57.0,18.0,1645106027.6875,P11,D09,0,1,0
2095,-23.0,-58.0,18.0,1645106027.71875,P11,D09,0,1,0
2096,-23.0,-58.0,18.0,1645106027.75,P11,D09,0,1,0
2097,-24.0,-57.0,18.0,1645106027.78125,P11,D09,0,1,0
2098,-23.0,-57.0,18.0,1645106027.8125,P11,D09,0,1,0
2099,-23.0,-57.0,18.0,1645106027.84375,P11,D09,0,1,0
2100,-23.0,-57.0,18.0,1645106027.875,P11,D09,0,1,0
2101,-24.0,-58.0,19.0,1645106027.90625,P11,D09,0,1,0
2102,-23.0,-57.0,19.0,1645106027.9375,P11,D09,0,1,0
2103,-23.0,-56.0,18.0,1645106027.96875,P11,D09,0,1,0
2104,-24.0,-58.0,18.0,1645106028.0,P11,D09,0,1,0
2105,-24.0,-58.0,18.0,1645106028.03125,P11,D09,0,1,0
2106,-23.0,-58.0,18.0,1645106028.0625,P11,D09,0,1,0
2107,-23.0,-58.0,18.0,1645106028.09375,P11,D09,0,1,0
2108,-23.0,-57.0,18.0,1645106028.125,P11,D09,0,1,0
2109,-24.0,-57.0,18.0,1645106028.15625,P11,D09,0,1,0
2110,-23.0,-57.0,18.0,1645106028.1875,P11,D09,0,1,0
2111,-23.0,-57.0,18.0,1645106028.21875,P11,D09,0,1,0
2112,-23.0,-57.0,18.0,1645106028.25,P11,D09,0,1,0
2113,-23.0,-57.0,18.0,1645106028.28125,P11,D09,0,1,0
2114,-23.0,-57.0,18.0,1645106028.3125,P11,D09,0,1,0
2115,-24.0,-57.0,18.0,1645106028.34375,P11,D09,0,1,0
2116,-24.0,-57.0,18.0,1645106028.375,P11,D09,0,1,0
2117,-23.0,-57.0,18.0,1645106028.40625,P11,D09,0,1,0
2118,-23.0,-57.0,17.0,1645106028.4375,P11,D09,0,1,0
2119,-23.0,-58.0,18.0,1645106028.46875,P11,D09,0,1,0
2120,-23.0,-58.0,18.0,1645106028.5,P11,D09,0,1,0
2121,-24.0,-57.0,18.0,1645106028.53125,P11,D09,0,1,0
2122,-24.0,-57.0,18.0,1645106028.5625,P11,D09,0,1,0
2123,-23.0,-57.0,18.0,1645106028.59375,P11,D09,0,1,0
2124,-23.0,-58.0,18.0,1645106028.625,P11,D09,0,1,0
2125,-24.0,-58.0,18.0,1645106028.65625,P11,D09,0,1,0
2126,-23.0,-57.0,18.0,1645106028.6875,P11,D09,0,1,0
2127,-22.0,-57.0,18.0,1645106028.71875,P11,D09,0,1,0
2128,-23.0,-57.0,18.0,1645106028.75,P11,D09,0,1,0
2129,-23.0,-57.0,19.0,1645106028.78125,P11,D09,0,1,0
2130,-23.0,-57.0,18.0,1645106028.8125,P11,D09,0,1,0
2131,-23.0,-58.0,18.0,1645106028.84375,P11,D09,0,1,0
2132,-23.0,-58.0,18.0,1645106028.875,P11,D09,0,1,0
2133,-23.0,-58.0,18.0,1645106028.90625,P11,D09,0,1,0
2134,-23.0,-58.0,17.0,1645106028.9375,P11,D09,0,1,0
2135,-22.0,-57.0,18.0,1645106028.96875,P11,D09,0,1,0
2136,-23.0,-57.0,18.0,1645106029.0,P11,D09,0,1,0
2137,-23.0,-58.0,18.0,1645106029.03125,P11,D09,0,1,0
2138,-23.0,-57.0,18.0,1645106029.0625,P11,D09,0,1,0
2139,-22.0,-58.0,18.0,1645106029.09375,P11,D09,0,1,0
2140,-23.0,-58.0,18.0,1645106029.125,P11,D09,0,1,0
2141,-23.0,-58.0,18.0,1645106029.15625,P11,D09,0,1,0
2142,-23.0,-58.0,18.0,1645106029.1875,P11,D09,0,1,0
2143,-22.0,-57.0,18.0,1645106029.21875,P11,D09,0,1,0
2144,-23.0,-57.0,17.0,1645106029.25,P11,D09,0,1,0
2145,-22.0,-58.0,18.0,1645106029.28125,P11,D09,0,1,0
2146,-23.0,-57.0,18.0,1645106029.3125,P11,D09,0,1,0
2147,-23.0,-57.0,18.0,1645106029.34375,P11,D09,0,1,0
2148,-23.0,-57.0,18.0,1645106029.375,P11,D09,0,1,0
2149,-23.0,-57.0,18.0,1645106029.40625,P11,D09,0,1,0
2150,-23.0,-58.0,17.0,1645106029.4375,P11,D09,0,1,0
2151,-23.0,-58.0,17.0,1645106029.46875,P11,D09,0,1,0
2152,-23.0,-58.0,18.0,1645106029.5,P11,D09,0,1,0
2153,-23.0,-57.0,18.0,1645106029.53125,P11,D09,0,1,0
2154,-23.0,-58.0,18.0,1645106029.5625,P11,D09,0,1,0
2155,-23.0,-58.0,17.0,1645106029.59375,P11,D09,0,1,0
2156,-23.0,-58.0,18.0,1645106029.625,P11,D09,0,1,0
2157,-23.0,-57.0,18.0,1645106029.65625,P11,D09,0,1,0
2158,-23.0,-58.0,17.0,1645106029.6875,P11,D09,0,1,0
2159,-23.0,-58.0,17.0,1645106029.71875,P11,D09,0,1,0
2160,-23.0,-58.0,18.0,1645106029.75,P11,D09,0,1,0
2161,-23.0,-58.0,18.0,1645106029.78125,P11,D09,0,1,0
2162,-23.0,-58.0,18.0,1645106029.8125,P11,D09,0,1,0
2163,-23.0,-58.0,18.0,1645106029.84375,P11,D09,0,1,0
2164,-23.0,-58.0,18.0,1645106029.875,P11,D09,0,1,0
2165,-23.0,-57.0,18.0,1645106029.90625,P11,D09,0,1,0
2166,-23.0,-58.0,18.0,1645106029.9375,P11,D09,0,1,0
2167,-23.0,-58.0,18.0,1645106029.96875,P11,D09,0,1,0
2168,-23.0,-57.0,18.0,1645106030.0,P11,D09,0,1,0
2169,-23.0,-57.0,18.0,1645106030.03125,P11,D09,0,1,0
2170,-23.0,-57.0,17.0,1645106030.0625,P11,D09,0,1,0
2171,-23.0,-58.0,18.0,1645106030.09375,P11,D09,0,1,0
2172,-23.0,-58.0,18.0,1645106030.125,P11,D09,0,1,0
2173,-23.0,-57.0,18.0,1645106030.15625,P11,D09,0,1,0
2174,-23.0,-57.0,19.0,1645106030.1875,P11,D09,0,1,0
2175,-23.0,-58.0,18.0,1645106030.21875,P11,D09,0,1,0
2176,-24.0,-57.0,18.0,1645106030.25,P11,D09,0,1,0
2177,-23.0,-57.0,18.0,1645106030.28125,P11,D09,0,1,0
2178,-23.0,-57.0,18.0,1645106030.3125,P11,D09,0,1,0
2179,-23.0,-57.0,19.0,1645106030.34375,P11,D09,0,1,0
2180,-23.0,-57.0,18.0,1645106030.375,P11,D09,0,1,0
2181,-23.0,-57.0,18.0,1645106030.40625,P11,D09,0,1,0
2182,-23.0,-57.0,18.0,1645106030.4375,P11,D09,0,1,0
2183,-23.0,-58.0,18.0,1645106030.46875,P11,D09,0,1,0
2184,-23.0,-57.0,18.0,1645106030.5,P11,D09,0,1,0
2185,-23.0,-57.0,18.0,1645106030.53125,P11,D09,0,1,0
2186,-23.0,-57.0,18.0,1645106030.5625,P11,D09,0,1,0
2187,-23.0,-57.0,18.0,1645106030.59375,P11,D09,0,1,0
2188,-23.0,-57.0,18.0,1645106030.625,P11,D09,0,1,0
2189,-23.0,-57.0,18.0,1645106030.65625,P11,D09,0,1,0
2190,-23.0,-57.0,19.0,1645106030.6875,P11,D09,0,1,0
2191,-23.0,-57.0,18.0,1645106030.71875,P11,D09,0,1,0
2192,-23.0,-57.0,18.0,1645106030.75,P11,D09,0,1,0
2193,-23.0,-57.0,19.0,1645106030.78125,P11,D09,0,1,0
2194,-23.0,-57.0,19.0,1645106030.8125,P11,D09,0,1,0
2195,-23.0,-57.0,18.0,1645106030.84375,P11,D09,0,1,0
2196,-23.0,-57.0,18.0,1645106030.875,P11,D09,0,1,0
2197,-23.0,-57.0,19.0,1645106030.90625,P11,D09,0,1,0
2198,-23.0,-57.0,18.0,1645106030.9375,P11,D09,0,1,0
2199,-23.0,-57.0,18.0,1645106030.96875,P11,D09,0,1,0
2200,-23.0,-57.0,18.0,1645106031.0,P11,D09,0,1,0
2201,-23.0,-57.0,18.0,1645106031.03125,P11,D09,0,1,0
2202,-23.0,-58.0,18.0,1645106031.0625,P11,D09,0,1,0
2203,-23.0,-58.0,18.0,1645106031.09375,P11,D09,0,1,0
2204,-23.0,-57.0,18.0,1645106031.125,P11,D09,0,1,0
2205,-23.0,-57.0,18.0,1645106031.15625,P11,D09,0,1,0
2206,-23.0,-58.0,18.0,1645106031.1875,P11,D09,0,1,0
2207,-23.0,-58.0,18.0,1645106031.21875,P11,D09,0,1,0
2208,-23.0,-57.0,18.0,1645106031.25,P11,D09,0,1,0
2209,-23.0,-57.0,18.0,1645106031.28125,P11,D09,0,1,0
2210,-23.0,-58.0,18.0,1645106031.3125,P11,D09,0,1,0
2211,-23.0,-57.0,18.0,1645106031.34375,P11,D09,0,1,0
2212,-23.0,-57.0,18.0,1645106031.375,P11,D09,0,1,0
2213,-23.0,-57.0,18.0,1645106031.40625,P11,D09,0,1,0
2214,-23.0,-57.0,18.0,1645106031.4375,P11,D09,0,1,0
2215,-23.0,-57.0,18.0,1645106031.46875,P11,D09,0,1,0
2216,-23.0,-57.0,18.0,1645106031.5,P11,D09,0,1,0
2217,-23.0,-58.0,18.0,1645106031.53125,P11,D09,0,1,0
2218,-23.0,-57.0,18.0,1645106031.5625,P11,D09,0,1,0
2219,-23.0,-57.0,18.0,1645106031.59375,P11,D09,0,1,0
2220,-23.0,-58.0,18.0,1645106031.625,P11,D09,0,1,0
2221,-23.0,-57.0,18.0,1645106031.65625,P11,D09,0,1,0
2222,-23.0,-57.0,17.0,1645106031.6875,P11,D09,0,1,0
2223,-23.0,-57.0,18.0,1645106031.71875,P11,D09,0,1,0
2224,-23.0,-58.0,18.0,1645106031.75,P11,D09,0,1,0
2225,-23.0,-58.0,18.0,1645106031.78125,P11,D09,0,1,0
2226,-23.0,-57.0,18.0,1645106031.8125,P11,D09,0,1,0
2227,-23.0,-57.0,17.0,1645106031.84375,P11,D09,0,1,0
2228,-23.0,-57.0,18.0,1645106031.875,P11,D09,0,1,0
2229,-23.0,-58.0,18.0,1645106031.90625,P11,D09,0,1,0
2230,-23.0,-58.0,18.0,1645106031.9375,P11,D09,0,1,0
2231,-23.0,-57.0,18.0,1645106031.96875,P11,D09,0,1,0
2232,-23.0,-57.0,18.0,1645106032.0,P11,D09,0,1,0
2233,-23.0,-58.0,17.0,1645106032.03125,P11,D09,0,1,0
2234,-23.0,-58.0,18.0,1645106032.0625,P11,D09,0,1,0
2235,-23.0,-57.0,18.0,1645106032.09375,P11,D09,0,1,0
2236,-23.0,-57.0,17.0,1645106032.125,P11,D09,0,1,0
2237,-23.0,-58.0,18.0,1645106032.15625,P11,D09,0,1,0
2238,-23.0,-58.0,18.0,1645106032.1875,P11,D09,0,1,0
2239,-24.0,-58.0,17.0,1645106032.21875,P11,D09,0,1,0
2240,-23.0,-58.0,17.0,1645106032.25,P11,D09,0,1,0
2241,-22.0,-58.0,18.0,1645106032.28125,P11,D09,0,1,0
2242,-23.0,-57.0,18.0,1645106032.3125,P11,D09,0,1,0
2243,-23.0,-58.0,18.0,1645106032.34375,P11,D09,0,1,0
2244,-23.0,-58.0,18.0,1645106032.375,P11,D09,0,1,0
2245,-23.0,-58.0,18.0,1645106032.40625,P11,D09,0,1,0
2246,-23.0,-58.0,18.0,1645106032.4375,P11,D09,0,1,0
2247,-23.0,-57.0,17.0,1645106032.46875,P11,D09,0,1,0
2248,-23.0,-58.0,18.0,1645106032.5,P11,D09,0,1,0
2249,-23.0,-58.0,18.0,1645106032.53125,P11,D09,0,1,0
2250,-23.0,-58.0,18.0,1645106032.5625,P11,D09,0,1,0
2251,-23.0,-57.0,18.0,1645106032.59375,P11,D09,0,1,0
2252,-23.0,-58.0,17.0,1645106032.625,P11,D09,0,1,0
2253,-23.0,-58.0,18.0,1645106032.65625,P11,D09,0,1,0
2254,-23.0,-58.0,18.0,1645106032.6875,P11,D09,0,1,0
2255,-23.0,-57.0,18.0,1645106032.71875,P11,D09,0,1,0
2256,-24.0,-57.0,18.0,1645106032.75,P11,D09,0,1,0
2257,-23.0,-57.0,18.0,1645106032.78125,P11,D09,0,1,0
2258,-23.0,-57.0,18.0,1645106032.8125,P11,D09,0,1,0
2259,-23.0,-57.0,18.0,1645106032.84375,P11,D09,0,1,0
2260,-23.0,-58.0,18.0,1645106032.875,P11,D09,0,1,0
2261,-23.0,-57.0,19.0,1645106032.90625,P11,D09,0,1,0
2262,-23.0,-57.0,18.0,1645106032.9375,P11,D09,0,1,0
2263,-23.0,-57.0,18.0,1645106032.96875,P11,D09,0,1,0
2264,-24.0,-57.0,18.0,1645106033.0,P11,D09,0,1,0
2265,-24.0,-57.0,18.0,1645106033.03125,P11,D09,0,1,0
2266,-23.0,-57.0,18.0,1645106033.0625,P11,D09,0,1,0
2267,-23.0,-57.0,18.0,1645106033.09375,P11,D09,0,1,0
2268,-23.0,-57.0,18.0,1645106033.125,P11,D09,0,1,0
2269,-23.0,-57.0,18.0,1645106033.15625,P11,D09,0,1,0
2270,-23.0,-57.0,18.0,1645106033.1875,P11,D09,0,1,0
2271,-23.0,-57.0,18.0,1645106033.21875,P11,D09,0,1,0
2272,-23.0,-58.0,18.0,1645106033.25,P11,D09,0,1,0
2273,-23.0,-58.0,18.0,1645106033.28125,P11,D09,0,1,0
2274,-24.0,-57.0,19.0,1645106033.3125,P11,D09,0,1,0
2275,-23.0,-57.0,18.0,1645106033.34375,P11,D09,0,1,0
2276,-23.0,-57.0,19.0,1645106033.375,P11,D09,0,1,0
2277,-23.0,-57.0,19.0,1645106033.40625,P11,D09,0,1,0
2278,-24.0,-57.0,19.0,1645106033.4375,P11,D09,0,1,0
2279,-23.0,-57.0,19.0,1645106033.46875,P11,D09,0,1,0
2280,-23.0,-57.0,19.0,1645106033.5,P11,D09,0,1,0
2281,-23.0,-57.0,18.0,1645106033.53125,P11,D09,0,1,0
2282,-23.0,-57.0,18.0,1645106033.5625,P11,D09,0,1,0
2283,-24.0,-57.0,19.0,1645106033.59375,P11,D09,0,1,0
2284,-24.0,-57.0,19.0,1645106033.625,P11,D09,0,1,0
2285,-23.0,-57.0,18.0,1645106033.65625,P11,D09,0,1,0
2286,-23.0,-57.0,19.0,1645106033.6875,P11,D09,0,1,0
2287,-24.0,-57.0,19.0,1645106033.71875,P11,D09,0,1,0
2288,-23.0,-57.0,19.0,1645106033.75,P11,D09,0,1,0
2289,-23.0,-57.0,18.0,1645106033.78125,P11,D09,0,1,0
2290,-23.0,-57.0,18.0,1645106033.8125,P11,D09,0,1,0
2291,-23.0,-57.0,19.0,1645106033.84375,P11,D09,0,1,0
2292,-23.0,-57.0,18.0,1645106033.875,P11,D09,0,1,0
2293,-23.0,-57.0,18.0,1645106033.90625,P11,D09,0,1,0
2294,-23.0,-57.0,19.0,1645106033.9375,P11,D09,0,1,0
2295,-23.0,-57.0,19.0,1645106033.96875,P11,D09,0,1,0
2296,-23.0,-57.0,18.0,1645106034.0,P11,D09,0,1,0
2297,-23.0,-57.0,18.0,1645106034.03125,P11,D09,0,1,0
2298,-23.0,-57.0,19.0,1645106034.0625,P11,D09,0,1,0
2299,-24.0,-57.0,18.0,1645106034.09375,P11,D09,0,1,0
2300,-23.0,-57.0,18.0,1645106034.125,P11,D09,0,1,0
2301,-23.0,-57.0,18.0,1645106034.15625,P11,D09,0,1,0
2302,-24.0,-57.0,18.0,1645106034.1875,P11,D09,0,1,0
2303,-23.0,-57.0,18.0,1645106034.21875,P11,D09,0,1,0
2304,-23.0,-57.0,18.0,1645106034.25,P11,D09,0,1,0
2305,-23.0,-58.0,18.0,1645106034.28125,P11,D09,0,1,0
2306,-23.0,-57.0,18.0,1645106034.3125,P11,D09,0,1,0
2307,-23.0,-57.0,19.0,1645106034.34375,P11,D09,0,1,0
2308,-23.0,-57.0,18.0,1645106034.375,P11,D09,0,1,0
2309,-23.0,-58.0,18.0,1645106034.40625,P11,D09,0,1,0
2310,-23.0,-57.0,19.0,1645106034.4375,P11,D09,0,1,0
2311,-23.0,-57.0,18.0,1645106034.46875,P11,D09,0,1,0
2312,-24.0,-57.0,18.0,1645106034.5,P11,D09,0,1,0
2313,-24.0,-57.0,18.0,1645106034.53125,P11,D09,0,1,0
2314,-24.0,-57.0,18.0,1645106034.5625,P11,D09,0,1,0
2315,-23.0,-58.0,18.0,1645106034.59375,P11,D09,0,1,0
2316,-23.0,-58.0,18.0,1645106034.625,P11,D09,0,1,0
2317,-23.0,-57.0,18.0,1645106034.65625,P11,D09,0,1,0
2318,-23.0,-57.0,18.0,1645106034.6875,P11,D09,0,1,0
2319,-23.0,-58.0,17.0,1645106034.71875,P11,D09,0,1,0
2320,-23.0,-57.0,18.0,1645106034.75,P11,D09,0,1,0
2321,-23.0,-57.0,18.0,1645106034.78125,P11,D09,0,1,0
2322,-23.0,-57.0,18.0,1645106034.8125,P11,D09,0,1,0
2323,-23.0,-57.0,18.0,1645106034.84375,P11,D09,0,1,0
2324,-23.0,-58.0,18.0,1645106034.875,P11,D09,0,1,0
2325,-23.0,-57.0,18.0,1645106034.90625,P11,D09,0,1,0
2326,-23.0,-57.0,18.0,1645106034.9375,P11,D09,0,1,0
2327,-23.0,-58.0,18.0,1645106034.96875,P11,D09,0,1,0
2328,-23.0,-57.0,18.0,1645106035.0,P11,D09,0,1,0
2329,-23.0,-57.0,18.0,1645106035.03125,P11,D09,0,1,0
2330,-23.0,-57.0,18.0,1645106035.0625,P11,D09,0,1,0
2331,-23.0,-57.0,18.0,1645106035.09375,P11,D09,0,1,0
2332,-23.0,-57.0,18.0,1645106035.125,P11,D09,0,1,0
2333,-23.0,-57.0,18.0,1645106035.15625,P11,D09,0,1,0
2334,-23.0,-57.0,19.0,1645106035.1875,P11,D09,0,1,0
2335,-23.0,-57.0,18.0,1645106035.21875,P11,D09,0,1,0
2336,-23.0,-57.0,17.0,1645106035.25,P11,D09,0,1,0
2337,-23.0,-57.0,18.0,1645106035.28125,P11,D09,0,1,0
2338,-23.0,-58.0,18.0,1645106035.3125,P11,D09,0,1,0
