,acc_x,acc_y,acc_z,timestamp,participant,document,val,arou,eng
0,3.0,64.0,9.0,1645443613.78125,P18,D05,1,1,1
1,4.0,64.0,9.0,1645443613.8125,P18,D05,1,1,1
2,4.0,64.0,10.0,1645443613.84375,P18,D05,1,1,1
3,5.0,64.0,9.0,1645443613.875,P18,D05,1,1,1
4,4.0,64.0,10.0,1645443613.90625,P18,D05,1,1,1
5,4.0,63.0,11.0,1645443613.9375,P18,D05,1,1,1
6,4.0,63.0,12.0,1645443613.96875,P18,D05,1,1,1
7,4.0,63.0,12.0,1645443614.0,P18,D05,1,1,1
8,4.0,63.0,12.0,1645443614.03125,P18,D05,1,1,1
9,4.0,63.0,13.0,1645443614.0625,P18,D05,1,1,1
10,4.0,63.0,13.0,1645443614.09375,P18,D05,1,1,1
11,5.0,63.0,13.0,1645443614.125,P18,D05,1,1,1
12,5.0,63.0,14.0,1645443614.15625,P18,D05,1,1,1
13,4.0,63.0,14.0,1645443614.1875,P18,D05,1,1,1
14,5.0,63.0,13.0,1645443614.21875,P18,D05,1,1,1
15,6.0,63.0,13.0,1645443614.25,P18,D05,1,1,1
16,3.0,63.0,14.0,1645443614.28125,P18,D05,1,1,1
17,3.0,62.0,14.0,1645443614.3125,P18,D05,1,1,1
18,8.0,62.0,16.0,1645443614.34375,P18,D05,1,1,1
19,8.0,62.0,18.0,1645443614.375,P18,D05,1,1,1
20,2.0,62.0,18.0,1645443614.40625,P18,D05,1,1,1
21,-5.0,62.0,16.0,1645443614.4375,P18,D05,1,1,1
22,-2.0,63.0,16.0,1645443614.46875,P18,D05,1,1,1
23,0.0,64.0,15.0,1645443614.5,P18,D05,1,1,1
24,1.0,63.0,14.0,1645443614.53125,P18,D05,1,1,1
25,4.0,63.0,11.0,1645443614.5625,P18,D05,1,1,1
26,2.0,64.0,12.0,1645443614.59375,P18,D05,1,1,1
27,-2.0,63.0,12.0,1645443614.625,P18,D05,1,1,1
28,-4.0,63.0,11.0,1645443614.65625,P18,D05,1,1,1
29,-4.0,63.0,9.0,1645443614.6875,P18,D05,1,1,1
30,0.0,63.0,11.0,1645443614.71875,P18,D05,1,1,1
31,-5.0,62.0,14.0,1645443614.75,P18,D05,1,1,1
32,-7.0,62.0,16.0,1645443614.78125,P18,D05,1,1,1
33,4.0,62.0,18.0,1645443614.8125,P18,D05,1,1,1
34,11.0,62.0,19.0,1645443614.84375,P18,D05,1,1,1
35,5.0,62.0,18.0,1645443614.875,P18,D05,1,1,1
36,4.0,63.0,17.0,1645443614.90625,P18,D05,1,1,1
37,4.0,63.0,16.0,1645443614.9375,P18,D05,1,1,1
38,-1.0,63.0,14.0,1645443614.96875,P18,D05,1,1,1
39,0.0,62.0,13.0,1645443615.0,P18,D05,1,1,1
40,3.0,62.0,15.0,1645443615.03125,P18,D05,1,1,1
41,2.0,62.0,16.0,1645443615.0625,P18,D05,1,1,1
42,4.0,63.0,16.0,1645443615.09375,P18,D05,1,1,1
43,3.0,62.0,15.0,1645443615.125,P18,D05,1,1,1
44,0.0,63.0,14.0,1645443615.15625,P18,D05,1,1,1
45,5.0,63.0,14.0,1645443615.1875,P18,D05,1,1,1
46,4.0,63.0,15.0,1645443615.21875,P18,D05,1,1,1
47,4.0,62.0,15.0,1645443615.25,P18,D05,1,1,1
48,3.0,62.0,15.0,1645443615.28125,P18,D05,1,1,1
49,4.0,62.0,16.0,1645443615.3125,P18,D05,1,1,1
50,3.0,62.0,16.0,1645443615.34375,P18,D05,1,1,1
51,4.0,62.0,16.0,1645443615.375,P18,D05,1,1,1
52,4.0,62.0,17.0,1645443615.40625,P18,D05,1,1,1
53,4.0,62.0,18.0,1645443615.4375,P18,D05,1,1,1
54,5.0,62.0,18.0,1645443615.46875,P18,D05,1,1,1
55,5.0,62.0,18.0,1645443615.5,P18,D05,1,1,1
56,4.0,62.0,16.0,1645443615.53125,P18,D05,1,1,1
57,4.0,62.0,15.0,1645443615.5625,P18,D05,1,1,1
58,3.0,62.0,15.0,1645443615.59375,P18,D05,1,1,1
59,3.0,62.0,15.0,1645443615.625,P18,D05,1,1,1
60,4.0,63.0,15.0,1645443615.65625,P18,D05,1,1,1
61,3.0,62.0,16.0,1645443615.6875,P18,D05,1,1,1
62,4.0,62.0,16.0,1645443615.71875,P18,D05,1,1,1
63,5.0,62.0,16.0,1645443615.75,P18,D05,1,1,1
64,6.0,62.0,17.0,1645443615.78125,P18,D05,1,1,1
65,5.0,62.0,17.0,1645443615.8125,P18,D05,1,1,1
66,3.0,62.0,15.0,1645443615.84375,P18,D05,1,1,1
67,3.0,62.0,15.0,1645443615.875,P18,D05,1,1,1
68,3.0,62.0,16.0,1645443615.90625,P18,D05,1,1,1
69,4.0,62.0,16.0,1645443615.9375,P18,D05,1,1,1
70,4.0,62.0,16.0,1645443615.96875,P18,D05,1,1,1
71,3.0,62.0,16.0,1645443616.0,P18,D05,1,1,1
72,3.0,62.0,16.0,1645443616.03125,P18,D05,1,1,1
73,4.0,62.0,17.0,1645443616.0625,P18,D05,1,1,1
74,4.0,62.0,17.0,1645443616.09375,P18,D05,1,1,1
75,4.0,62.0,17.0,1645443616.125,P18,D05,1,1,1
76,4.0,62.0,16.0,1645443616.15625,P18,D05,1,1,1
77,3.0,63.0,15.0,1645443616.1875,P18,D05,1,1,1
78,0.0,63.0,13.0,1645443616.21875,P18,D05,1,1,1
79,1.0,62.0,14.0,1645443616.25,P18,D05,1,1,1
80,3.0,62.0,16.0,1645443616.28125,P18,D05,1,1,1
81,3.0,61.0,15.0,1645443616.3125,P18,D05,1,1,1
82,7.0,63.0,18.0,1645443616.34375,P18,D05,1,1,1
83,6.0,62.0,19.0,1645443616.375,P18,D05,1,1,1
84,4.0,61.0,20.0,1645443616.40625,P18,D05,1,1,1
85,5.0,61.0,20.0,1645443616.4375,P18,D05,1,1,1
86,6.0,61.0,23.0,1645443616.46875,P18,D05,1,1,1
87,5.0,60.0,24.0,1645443616.5,P18,D05,1,1,1
88,14.0,58.0,29.0,1645443616.53125,P18,D05,1,1,1
89,18.0,58.0,33.0,1645443616.5625,P18,D05,1,1,1
90,-10.0,59.0,16.0,1645443616.59375,P18,D05,1,1,1
91,-30.0,65.0,-2.0,1645443616.625,P18,D05,1,1,1
92,-21.0,66.0,-7.0,1645443616.65625,P18,D05,1,1,1
93,-5.0,64.0,11.0,1645443616.6875,P18,D05,1,1,1
94,4.0,59.0,15.0,1645443616.71875,P18,D05,1,1,1
95,27.0,69.0,-9.0,1645443616.75,P18,D05,1,1,1
96,29.0,70.0,-8.0,1645443616.78125,P18,D05,1,1,1
97,15.0,63.0,7.0,1645443616.8125,P18,D05,1,1,1
98,8.0,61.0,6.0,1645443616.84375,P18,D05,1,1,1
99,26.0,63.0,11.0,1645443616.875,P18,D05,1,1,1
100,27.0,62.0,16.0,1645443616.90625,P18,D05,1,1,1
101,6.0,61.0,13.0,1645443616.9375,P18,D05,1,1,1
102,15.0,60.0,20.0,1645443616.96875,P18,D05,1,1,1
103,16.0,61.0,15.0,1645443617.0,P18,D05,1,1,1
104,15.0,63.0,4.0,1645443617.03125,P18,D05,1,1,1
105,9.0,62.0,13.0,1645443617.0625,P18,D05,1,1,1
106,14.0,62.0,15.0,1645443617.09375,P18,D05,1,1,1
107,13.0,62.0,12.0,1645443617.125,P18,D05,1,1,1
108,13.0,62.0,10.0,1645443617.15625,P18,D05,1,1,1
109,13.0,62.0,8.0,1645443617.1875,P18,D05,1,1,1
110,15.0,63.0,9.0,1645443617.21875,P18,D05,1,1,1
111,9.0,62.0,7.0,1645443617.25,P18,D05,1,1,1
112,15.0,63.0,8.0,1645443617.28125,P18,D05,1,1,1
113,8.0,63.0,3.0,1645443617.3125,P18,D05,1,1,1
114,10.0,65.0,2.0,1645443617.34375,P18,D05,1,1,1
115,13.0,64.0,7.0,1645443617.375,P18,D05,1,1,1
116,11.0,63.0,8.0,1645443617.40625,P18,D05,1,1,1
117,10.0,62.0,12.0,1645443617.4375,P18,D05,1,1,1
118,15.0,62.0,15.0,1645443617.46875,P18,D05,1,1,1
119,9.0,60.0,14.0,1645443617.5,P18,D05,1,1,1
120,9.0,63.0,0.0,1645443617.53125,P18,D05,1,1,1
121,4.0,67.0,-15.0,1645443617.5625,P18,D05,1,1,1
122,3.0,67.0,-15.0,1645443617.59375,P18,D05,1,1,1
123,4.0,61.0,-13.0,1645443617.625,P18,D05,1,1,1
124,12.0,52.0,-10.0,1645443617.65625,P18,D05,1,1,1
125,18.0,47.0,-4.0,1645443617.6875,P18,D05,1,1,1
126,21.0,35.0,9.0,1645443617.71875,P18,D05,1,1,1
127,30.0,30.0,22.0,1645443617.75,P18,D05,1,1,1
128,45.0,37.0,55.0,1645443617.78125,P18,D05,1,1,1
129,26.0,32.0,57.0,1645443617.8125,P18,D05,1,1,1
130,11.0,32.0,81.0,1645443617.84375,P18,D05,1,1,1
131,-7.0,38.0,75.0,1645443617.875,P18,D05,1,1,1
132,0.0,32.0,76.0,1645443617.90625,P18,D05,1,1,1
133,8.0,43.0,70.0,1645443617.9375,P18,D05,1,1,1
134,-18.0,40.0,39.0,1645443617.96875,P18,D05,1,1,1
135,-25.0,37.0,39.0,1645443618.0,P18,D05,1,1,1
136,11.0,26.0,51.0,1645443618.03125,P18,D05,1,1,1
137,33.0,24.0,59.0,1645443618.0625,P18,D05,1,1,1
138,34.0,8.0,60.0,1645443618.09375,P18,D05,1,1,1
139,43.0,4.0,37.0,1645443618.125,P18,D05,1,1,1
140,61.0,12.0,37.0,1645443618.15625,P18,D05,1,1,1
141,73.0,10.0,43.0,1645443618.1875,P18,D05,1,1,1
142,63.0,17.0,31.0,1645443618.21875,P18,D05,1,1,1
143,54.0,14.0,29.0,1645443618.25,P18,D05,1,1,1
144,57.0,18.0,30.0,1645443618.28125,P18,D05,1,1,1
145,66.0,22.0,26.0,1645443618.3125,P18,D05,1,1,1
146,55.0,19.0,30.0,1645443618.34375,P18,D05,1,1,1
147,79.0,32.0,20.0,1645443618.375,P18,D05,1,1,1
148,59.0,13.0,23.0,1645443618.40625,P18,D05,1,1,1
149,62.0,16.0,17.0,1645443618.4375,P18,D05,1,1,1
150,48.0,16.0,11.0,1645443618.46875,P18,D05,1,1,1
151,50.0,18.0,16.0,1645443618.5,P18,D05,1,1,1
152,51.0,23.0,45.0,1645443618.53125,P18,D05,1,1,1
153,48.0,24.0,53.0,1645443618.5625,P18,D05,1,1,1
154,47.0,29.0,42.0,1645443618.59375,P18,D05,1,1,1
155,49.0,28.0,39.0,1645443618.625,P18,D05,1,1,1
156,47.0,17.0,39.0,1645443618.65625,P18,D05,1,1,1
157,38.0,17.0,39.0,1645443618.6875,P18,D05,1,1,1
158,33.0,16.0,42.0,1645443618.71875,P18,D05,1,1,1
159,35.0,12.0,53.0,1645443618.75,P18,D05,1,1,1
160,39.0,13.0,57.0,1645443618.78125,P18,D05,1,1,1
161,33.0,20.0,48.0,1645443618.8125,P18,D05,1,1,1
162,35.0,22.0,46.0,1645443618.84375,P18,D05,1,1,1
163,35.0,20.0,43.0,1645443618.875,P18,D05,1,1,1
164,37.0,20.0,43.0,1645443618.90625,P18,D05,1,1,1
165,38.0,22.0,42.0,1645443618.9375,P18,D05,1,1,1
166,39.0,23.0,43.0,1645443618.96875,P18,D05,1,1,1
167,39.0,23.0,45.0,1645443619.0,P18,D05,1,1,1
168,37.0,23.0,44.0,1645443619.03125,P18,D05,1,1,1
169,35.0,22.0,42.0,1645443619.0625,P18,D05,1,1,1
170,30.0,21.0,42.0,1645443619.09375,P18,D05,1,1,1
171,33.0,22.0,42.0,1645443619.125,P18,D05,1,1,1
172,40.0,23.0,44.0,1645443619.15625,P18,D05,1,1,1
173,42.0,24.0,44.0,1645443619.1875,P18,D05,1,1,1
174,38.0,23.0,40.0,1645443619.21875,P18,D05,1,1,1
175,39.0,23.0,41.0,1645443619.25,P18,D05,1,1,1
176,41.0,21.0,42.0,1645443619.28125,P18,D05,1,1,1
177,39.0,21.0,42.0,1645443619.3125,P18,D05,1,1,1
178,38.0,22.0,42.0,1645443619.34375,P18,D05,1,1,1
179,38.0,22.0,43.0,1645443619.375,P18,D05,1,1,1
180,44.0,22.0,46.0,1645443619.40625,P18,D05,1,1,1
181,43.0,21.0,45.0,1645443619.4375,P18,D05,1,1,1
182,36.0,21.0,40.0,1645443619.46875,P18,D05,1,1,1
183,39.0,20.0,44.0,1645443619.5,P18,D05,1,1,1
184,40.0,20.0,44.0,1645443619.53125,P18,D05,1,1,1
185,41.0,21.0,43.0,1645443619.5625,P18,D05,1,1,1
186,41.0,21.0,42.0,1645443619.59375,P18,D05,1,1,1
187,40.0,20.0,42.0,1645443619.625,P18,D05,1,1,1
188,42.0,20.0,42.0,1645443619.65625,P18,D05,1,1,1
189,43.0,19.0,43.0,1645443619.6875,P18,D05,1,1,1
190,43.0,20.0,43.0,1645443619.71875,P18,D05,1,1,1
191,41.0,20.0,42.0,1645443619.75,P18,D05,1,1,1
192,40.0,20.0,42.0,1645443619.78125,P18,D05,1,1,1
193,40.0,20.0,43.0,1645443619.8125,P18,D05,1,1,1
194,40.0,20.0,42.0,1645443619.84375,P18,D05,1,1,1
195,37.0,21.0,42.0,1645443619.875,P18,D05,1,1,1
196,40.0,21.0,45.0,1645443619.90625,P18,D05,1,1,1
197,41.0,20.0,45.0,1645443619.9375,P18,D05,1,1,1
198,40.0,20.0,44.0,1645443619.96875,P18,D05,1,1,1
199,39.0,20.0,42.0,1645443620.0,P18,D05,1,1,1
200,38.0,21.0,41.0,1645443620.03125,P18,D05,1,1,1
201,39.0,21.0,41.0,1645443620.0625,P18,D05,1,1,1
202,40.0,21.0,41.0,1645443620.09375,P18,D05,1,1,1
203,40.0,21.0,42.0,1645443620.125,P18,D05,1,1,1
204,40.0,20.0,42.0,1645443620.15625,P18,D05,1,1,1
205,40.0,20.0,43.0,1645443620.1875,P18,D05,1,1,1
206,40.0,20.0,44.0,1645443620.21875,P18,D05,1,1,1
207,40.0,20.0,43.0,1645443620.25,P18,D05,1,1,1
208,41.0,20.0,43.0,1645443620.28125,P18,D05,1,1,1
209,42.0,19.0,43.0,1645443620.3125,P18,D05,1,1,1
210,41.0,19.0,43.0,1645443620.34375,P18,D05,1,1,1
211,42.0,19.0,43.0,1645443620.375,P18,D05,1,1,1
212,41.0,19.0,43.0,1645443620.40625,P18,D05,1,1,1
213,41.0,19.0,42.0,1645443620.4375,P18,D05,1,1,1
214,41.0,19.0,43.0,1645443620.46875,P18,D05,1,1,1
215,42.0,20.0,43.0,1645443620.5,P18,D05,1,1,1
216,42.0,20.0,43.0,1645443620.53125,P18,D05,1,1,1
217,42.0,20.0,43.0,1645443620.5625,P18,D05,1,1,1
218,41.0,19.0,42.0,1645443620.59375,P18,D05,1,1,1
219,41.0,19.0,42.0,1645443620.625,P18,D05,1,1,1
220,38.0,20.0,42.0,1645443620.65625,P18,D05,1,1,1
221,38.0,20.0,42.0,1645443620.6875,P18,D05,1,1,1
222,40.0,20.0,41.0,1645443620.71875,P18,D05,1,1,1
223,41.0,20.0,42.0,1645443620.75,P18,D05,1,1,1
224,41.0,19.0,42.0,1645443620.78125,P18,D05,1,1,1
225,41.0,19.0,43.0,1645443620.8125,P18,D05,1,1,1
226,42.0,19.0,43.0,1645443620.84375,P18,D05,1,1,1
227,42.0,19.0,42.0,1645443620.875,P18,D05,1,1,1
228,42.0,20.0,42.0,1645443620.90625,P18,D05,1,1,1
229,42.0,19.0,43.0,1645443620.9375,P18,D05,1,1,1
230,41.0,19.0,43.0,1645443620.96875,P18,D05,1,1,1
231,41.0,19.0,43.0,1645443621.0,P18,D05,1,1,1
232,41.0,19.0,43.0,1645443621.03125,P18,D05,1,1,1
233,38.0,17.0,42.0,1645443621.0625,P18,D05,1,1,1
234,38.0,17.0,40.0,1645443621.09375,P18,D05,1,1,1
235,40.0,21.0,42.0,1645443621.125,P18,D05,1,1,1
236,41.0,20.0,43.0,1645443621.15625,P18,D05,1,1,1
237,43.0,19.0,43.0,1645443621.1875,P18,D05,1,1,1
238,43.0,18.0,42.0,1645443621.21875,P18,D05,1,1,1
239,41.0,18.0,42.0,1645443621.25,P18,D05,1,1,1
240,42.0,18.0,43.0,1645443621.28125,P18,D05,1,1,1
241,43.0,19.0,42.0,1645443621.3125,P18,D05,1,1,1
242,44.0,19.0,41.0,1645443621.34375,P18,D05,1,1,1
243,43.0,18.0,41.0,1645443621.375,P18,D05,1,1,1
244,42.0,17.0,40.0,1645443621.40625,P18,D05,1,1,1
245,43.0,18.0,41.0,1645443621.4375,P18,D05,1,1,1
246,42.0,19.0,42.0,1645443621.46875,P18,D05,1,1,1
247,42.0,18.0,43.0,1645443621.5,P18,D05,1,1,1
248,42.0,18.0,42.0,1645443621.53125,P18,D05,1,1,1
249,42.0,18.0,41.0,1645443621.5625,P18,D05,1,1,1
250,42.0,18.0,41.0,1645443621.59375,P18,D05,1,1,1
251,41.0,18.0,41.0,1645443621.625,P18,D05,1,1,1
252,45.0,18.0,44.0,1645443621.65625,P18,D05,1,1,1
253,43.0,19.0,46.0,1645443621.6875,P18,D05,1,1,1
254,44.0,19.0,46.0,1645443621.71875,P18,D05,1,1,1
255,38.0,13.0,50.0,1645443621.75,P18,D05,1,1,1
256,31.0,12.0,50.0,1645443621.78125,P18,D05,1,1,1
257,28.0,18.0,49.0,1645443621.8125,P18,D05,1,1,1
258,28.0,18.0,50.0,1645443621.84375,P18,D05,1,1,1
259,26.0,18.0,49.0,1645443621.875,P18,D05,1,1,1
260,25.0,19.0,49.0,1645443621.90625,P18,D05,1,1,1
261,24.0,18.0,49.0,1645443621.9375,P18,D05,1,1,1
262,28.0,17.0,52.0,1645443621.96875,P18,D05,1,1,1
263,30.0,17.0,54.0,1645443622.0,P18,D05,1,1,1
264,31.0,17.0,54.0,1645443622.03125,P18,D05,1,1,1
265,32.0,17.0,54.0,1645443622.0625,P18,D05,1,1,1
266,33.0,16.0,56.0,1645443622.09375,P18,D05,1,1,1
267,32.0,16.0,54.0,1645443622.125,P18,D05,1,1,1
268,18.0,21.0,45.0,1645443622.15625,P18,D05,1,1,1
269,20.0,21.0,46.0,1645443622.1875,P18,D05,1,1,1
270,27.0,16.0,55.0,1645443622.21875,P18,D05,1,1,1
271,29.0,15.0,56.0,1645443622.25,P18,D05,1,1,1
272,30.0,15.0,53.0,1645443622.28125,P18,D05,1,1,1
273,30.0,17.0,52.0,1645443622.3125,P18,D05,1,1,1
274,31.0,17.0,52.0,1645443622.34375,P18,D05,1,1,1
275,30.0,16.0,53.0,1645443622.375,P18,D05,1,1,1
276,31.0,16.0,54.0,1645443622.40625,P18,D05,1,1,1
277,29.0,16.0,55.0,1645443622.4375,P18,D05,1,1,1
278,28.0,17.0,55.0,1645443622.46875,P18,D05,1,1,1
279,25.0,16.0,55.0,1645443622.5,P18,D05,1,1,1
280,24.0,16.0,55.0,1645443622.53125,P18,D05,1,1,1
281,20.0,16.0,56.0,1645443622.5625,P18,D05,1,1,1
282,19.0,16.0,56.0,1645443622.59375,P18,D05,1,1,1
283,19.0,17.0,54.0,1645443622.625,P18,D05,1,1,1
284,19.0,17.0,54.0,1645443622.65625,P18,D05,1,1,1
285,19.0,17.0,55.0,1645443622.6875,P18,D05,1,1,1
286,18.0,17.0,54.0,1645443622.71875,P18,D05,1,1,1
287,19.0,17.0,55.0,1645443622.75,P18,D05,1,1,1
288,21.0,16.0,56.0,1645443622.78125,P18,D05,1,1,1
289,22.0,16.0,55.0,1645443622.8125,P18,D05,1,1,1
290,23.0,16.0,54.0,1645443622.84375,P18,D05,1,1,1
291,24.0,17.0,53.0,1645443622.875,P18,D05,1,1,1
292,29.0,16.0,54.0,1645443622.90625,P18,D05,1,1,1
293,31.0,16.0,56.0,1645443622.9375,P18,D05,1,1,1
294,28.0,17.0,54.0,1645443622.96875,P18,D05,1,1,1
295,28.0,17.0,53.0,1645443623.0,P18,D05,1,1,1
296,30.0,16.0,54.0,1645443623.03125,P18,D05,1,1,1
297,30.0,16.0,53.0,1645443623.0625,P18,D05,1,1,1
298,29.0,17.0,52.0,1645443623.09375,P18,D05,1,1,1
299,29.0,17.0,51.0,1645443623.125,P18,D05,1,1,1
300,30.0,18.0,52.0,1645443623.15625,P18,D05,1,1,1
301,29.0,16.0,53.0,1645443623.1875,P18,D05,1,1,1
302,29.0,17.0,52.0,1645443623.21875,P18,D05,1,1,1
303,27.0,16.0,50.0,1645443623.25,P18,D05,1,1,1
304,27.0,16.0,52.0,1645443623.28125,P18,D05,1,1,1
305,26.0,18.0,51.0,1645443623.3125,P18,D05,1,1,1
306,28.0,17.0,52.0,1645443623.34375,P18,D05,1,1,1
307,31.0,16.0,54.0,1645443623.375,P18,D05,1,1,1
308,31.0,17.0,52.0,1645443623.40625,P18,D05,1,1,1
309,30.0,17.0,52.0,1645443623.4375,P18,D05,1,1,1
310,28.0,17.0,52.0,1645443623.46875,P18,D05,1,1,1
311,28.0,17.0,52.0,1645443623.5,P18,D05,1,1,1
312,29.0,17.0,52.0,1645443623.53125,P18,D05,1,1,1
313,30.0,17.0,52.0,1645443623.5625,P18,D05,1,1,1
314,30.0,17.0,52.0,1645443623.59375,P18,D05,1,1,1
315,31.0,17.0,52.0,1645443623.625,P18,D05,1,1,1
316,30.0,17.0,52.0,1645443623.65625,P18,D05,1,1,1
317,28.0,17.0,51.0,1645443623.6875,P18,D05,1,1,1
318,29.0,17.0,52.0,1645443623.71875,P18,D05,1,1,1
319,31.0,17.0,53.0,1645443623.75,P18,D05,1,1,1
320,30.0,17.0,52.0,1645443623.78125,P18,D05,1,1,1
321,30.0,17.0,52.0,1645443623.8125,P18,D05,1,1,1
322,30.0,17.0,52.0,1645443623.84375,P18,D05,1,1,1
323,30.0,17.0,52.0,1645443623.875,P18,D05,1,1,1
324,29.0,17.0,51.0,1645443623.90625,P18,D05,1,1,1
325,29.0,17.0,51.0,1645443623.9375,P18,D05,1,1,1
326,29.0,17.0,51.0,1645443623.96875,P18,D05,1,1,1
327,30.0,17.0,52.0,1645443624.0,P18,D05,1,1,1
328,30.0,17.0,52.0,1645443624.03125,P18,D05,1,1,1
329,30.0,17.0,52.0,1645443624.0625,P18,D05,1,1,1
330,30.0,17.0,52.0,1645443624.09375,P18,D05,1,1,1
331,30.0,17.0,52.0,1645443624.125,P18,D05,1,1,1
332,30.0,17.0,52.0,1645443624.15625,P18,D05,1,1,1
333,30.0,17.0,52.0,1645443624.1875,P18,D05,1,1,1
334,29.0,17.0,51.0,1645443624.21875,P18,D05,1,1,1
335,30.0,17.0,51.0,1645443624.25,P18,D05,1,1,1
336,29.0,17.0,51.0,1645443624.28125,P18,D05,1,1,1
337,30.0,17.0,51.0,1645443624.3125,P18,D05,1,1,1
338,30.0,17.0,52.0,1645443624.34375,P18,D05,1,1,1
339,30.0,17.0,52.0,1645443624.375,P18,D05,1,1,1
340,30.0,17.0,51.0,1645443624.40625,P18,D05,1,1,1
341,30.0,17.0,51.0,1645443624.4375,P18,D05,1,1,1
342,30.0,17.0,52.0,1645443624.46875,P18,D05,1,1,1
343,30.0,17.0,51.0,1645443624.5,P18,D05,1,1,1
344,30.0,17.0,51.0,1645443624.53125,P18,D05,1,1,1
345,30.0,17.0,52.0,1645443624.5625,P18,D05,1,1,1
346,30.0,17.0,52.0,1645443624.59375,P18,D05,1,1,1
347,30.0,17.0,51.0,1645443624.625,P18,D05,1,1,1
348,31.0,17.0,51.0,1645443624.65625,P18,D05,1,1,1
349,30.0,17.0,51.0,1645443624.6875,P18,D05,1,1,1
350,30.0,17.0,51.0,1645443624.71875,P18,D05,1,1,1
351,29.0,17.0,51.0,1645443624.75,P18,D05,1,1,1
352,30.0,17.0,52.0,1645443624.78125,P18,D05,1,1,1
353,30.0,17.0,52.0,1645443624.8125,P18,D05,1,1,1
354,31.0,17.0,52.0,1645443624.84375,P18,D05,1,1,1
355,30.0,17.0,51.0,1645443624.875,P18,D05,1,1,1
356,30.0,17.0,51.0,1645443624.90625,P18,D05,1,1,1
357,30.0,17.0,52.0,1645443624.9375,P18,D05,1,1,1
358,30.0,17.0,52.0,1645443624.96875,P18,D05,1,1,1
359,30.0,17.0,52.0,1645443625.0,P18,D05,1,1,1
360,31.0,17.0,51.0,1645443625.03125,P18,D05,1,1,1
361,31.0,17.0,52.0,1645443625.0625,P18,D05,1,1,1
362,30.0,17.0,52.0,1645443625.09375,P18,D05,1,1,1
363,30.0,17.0,52.0,1645443625.125,P18,D05,1,1,1
364,30.0,17.0,51.0,1645443625.15625,P18,D05,1,1,1
365,30.0,17.0,51.0,1645443625.1875,P18,D05,1,1,1
366,30.0,17.0,51.0,1645443625.21875,P18,D05,1,1,1
367,30.0,17.0,52.0,1645443625.25,P18,D05,1,1,1
368,31.0,17.0,52.0,1645443625.28125,P18,D05,1,1,1
369,30.0,17.0,51.0,1645443625.3125,P18,D05,1,1,1
370,30.0,17.0,51.0,1645443625.34375,P18,D05,1,1,1
371,30.0,17.0,51.0,1645443625.375,P18,D05,1,1,1
372,30.0,17.0,52.0,1645443625.40625,P18,D05,1,1,1
373,30.0,17.0,51.0,1645443625.4375,P18,D05,1,1,1
374,30.0,17.0,51.0,1645443625.46875,P18,D05,1,1,1
375,31.0,17.0,52.0,1645443625.5,P18,D05,1,1,1
376,31.0,17.0,51.0,1645443625.53125,P18,D05,1,1,1
377,30.0,17.0,51.0,1645443625.5625,P18,D05,1,1,1
378,30.0,17.0,51.0,1645443625.59375,P18,D05,1,1,1
379,30.0,17.0,51.0,1645443625.625,P18,D05,1,1,1
380,30.0,17.0,51.0,1645443625.65625,P18,D05,1,1,1
381,31.0,17.0,52.0,1645443625.6875,P18,D05,1,1,1
382,31.0,17.0,51.0,1645443625.71875,P18,D05,1,1,1
383,31.0,17.0,51.0,1645443625.75,P18,D05,1,1,1
384,30.0,17.0,52.0,1645443625.78125,P18,D05,1,1,1
385,30.0,17.0,51.0,1645443625.8125,P18,D05,1,1,1
386,30.0,17.0,51.0,1645443625.84375,P18,D05,1,1,1
387,30.0,17.0,52.0,1645443625.875,P18,D05,1,1,1
388,31.0,17.0,52.0,1645443625.90625,P18,D05,1,1,1
389,30.0,17.0,51.0,1645443625.9375,P18,D05,1,1,1
390,30.0,17.0,51.0,1645443625.96875,P18,D05,1,1,1
391,30.0,17.0,51.0,1645443626.0,P18,D05,1,1,1
392,30.0,17.0,51.0,1645443626.03125,P18,D05,1,1,1
393,30.0,17.0,51.0,1645443626.0625,P18,D05,1,1,1
394,30.0,17.0,51.0,1645443626.09375,P18,D05,1,1,1
395,30.0,17.0,51.0,1645443626.125,P18,D05,1,1,1
396,31.0,17.0,51.0,1645443626.15625,P18,D05,1,1,1
397,31.0,17.0,51.0,1645443626.1875,P18,D05,1,1,1
398,30.0,17.0,52.0,1645443626.21875,P18,D05,1,1,1
399,30.0,17.0,51.0,1645443626.25,P18,D05,1,1,1
400,30.0,17.0,51.0,1645443626.28125,P18,D05,1,1,1
401,31.0,17.0,52.0,1645443626.3125,P18,D05,1,1,1
402,30.0,17.0,52.0,1645443626.34375,P18,D05,1,1,1
403,30.0,17.0,51.0,1645443626.375,P18,D05,1,1,1
404,30.0,17.0,51.0,1645443626.40625,P18,D05,1,1,1
405,30.0,17.0,52.0,1645443626.4375,P18,D05,1,1,1
406,31.0,17.0,51.0,1645443626.46875,P18,D05,1,1,1
407,30.0,17.0,51.0,1645443626.5,P18,D05,1,1,1
408,30.0,17.0,51.0,1645443626.53125,P18,D05,1,1,1
409,31.0,17.0,51.0,1645443626.5625,P18,D05,1,1,1
410,30.0,17.0,51.0,1645443626.59375,P18,D05,1,1,1
411,30.0,17.0,51.0,1645443626.625,P18,D05,1,1,1
412,30.0,17.0,51.0,1645443626.65625,P18,D05,1,1,1
413,31.0,17.0,51.0,1645443626.6875,P18,D05,1,1,1
414,30.0,17.0,51.0,1645443626.71875,P18,D05,1,1,1
415,30.0,17.0,51.0,1645443626.75,P18,D05,1,1,1
416,30.0,17.0,51.0,1645443626.78125,P18,D05,1,1,1
417,30.0,17.0,51.0,1645443626.8125,P18,D05,1,1,1
418,31.0,17.0,51.0,1645443626.84375,P18,D05,1,1,1
419,30.0,17.0,51.0,1645443626.875,P18,D05,1,1,1
420,30.0,17.0,51.0,1645443626.90625,P18,D05,1,1,1
421,31.0,17.0,51.0,1645443626.9375,P18,D05,1,1,1
422,30.0,17.0,51.0,1645443626.96875,P18,D05,1,1,1
423,30.0,17.0,51.0,1645443627.0,P18,D05,1,1,1
424,31.0,17.0,51.0,1645443627.03125,P18,D05,1,1,1
425,31.0,17.0,51.0,1645443627.0625,P18,D05,1,1,1
426,30.0,17.0,51.0,1645443627.09375,P18,D05,1,1,1
427,30.0,17.0,51.0,1645443627.125,P18,D05,1,1,1
428,31.0,17.0,51.0,1645443627.15625,P18,D05,1,1,1
429,30.0,17.0,51.0,1645443627.1875,P18,D05,1,1,1
430,30.0,17.0,51.0,1645443627.21875,P18,D05,1,1,1
431,30.0,17.0,52.0,1645443627.25,P18,D05,1,1,1
432,31.0,17.0,52.0,1645443627.28125,P18,D05,1,1,1
433,30.0,17.0,51.0,1645443627.3125,P18,D05,1,1,1
434,30.0,17.0,51.0,1645443627.34375,P18,D05,1,1,1
435,31.0,17.0,51.0,1645443627.375,P18,D05,1,1,1
436,31.0,17.0,51.0,1645443627.40625,P18,D05,1,1,1
437,31.0,17.0,51.0,1645443627.4375,P18,D05,1,1,1
438,30.0,17.0,51.0,1645443627.46875,P18,D05,1,1,1
439,30.0,17.0,51.0,1645443627.5,P18,D05,1,1,1
440,31.0,17.0,51.0,1645443627.53125,P18,D05,1,1,1
441,31.0,17.0,51.0,1645443627.5625,P18,D05,1,1,1
442,30.0,17.0,51.0,1645443627.59375,P18,D05,1,1,1
443,31.0,17.0,51.0,1645443627.625,P18,D05,1,1,1
444,30.0,17.0,51.0,1645443627.65625,P18,D05,1,1,1
445,30.0,17.0,51.0,1645443627.6875,P18,D05,1,1,1
446,30.0,17.0,51.0,1645443627.71875,P18,D05,1,1,1
447,30.0,17.0,51.0,1645443627.75,P18,D05,1,1,1
448,30.0,17.0,51.0,1645443627.78125,P18,D05,1,1,1
449,30.0,17.0,51.0,1645443627.8125,P18,D05,1,1,1
450,30.0,17.0,51.0,1645443627.84375,P18,D05,1,1,1
451,31.0,17.0,51.0,1645443627.875,P18,D05,1,1,1
452,31.0,17.0,51.0,1645443627.90625,P18,D05,1,1,1
453,31.0,17.0,52.0,1645443627.9375,P18,D05,1,1,1
454,31.0,17.0,51.0,1645443627.96875,P18,D05,1,1,1
455,31.0,17.0,51.0,1645443628.0,P18,D05,1,1,1
456,30.0,17.0,51.0,1645443628.03125,P18,D05,1,1,1
457,31.0,17.0,51.0,1645443628.0625,P18,D05,1,1,1
458,31.0,17.0,51.0,1645443628.09375,P18,D05,1,1,1
459,31.0,17.0,51.0,1645443628.125,P18,D05,1,1,1
460,30.0,17.0,51.0,1645443628.15625,P18,D05,1,1,1
461,30.0,17.0,51.0,1645443628.1875,P18,D05,1,1,1
462,30.0,17.0,51.0,1645443628.21875,P18,D05,1,1,1
463,31.0,17.0,51.0,1645443628.25,P18,D05,1,1,1
464,31.0,17.0,51.0,1645443628.28125,P18,D05,1,1,1
465,31.0,17.0,51.0,1645443628.3125,P18,D05,1,1,1
466,31.0,17.0,51.0,1645443628.34375,P18,D05,1,1,1
467,31.0,17.0,51.0,1645443628.375,P18,D05,1,1,1
468,31.0,17.0,51.0,1645443628.40625,P18,D05,1,1,1
469,31.0,17.0,51.0,1645443628.4375,P18,D05,1,1,1
470,30.0,17.0,51.0,1645443628.46875,P18,D05,1,1,1
471,31.0,17.0,51.0,1645443628.5,P18,D05,1,1,1
472,31.0,17.0,51.0,1645443628.53125,P18,D05,1,1,1
473,31.0,17.0,51.0,1645443628.5625,P18,D05,1,1,1
474,31.0,17.0,51.0,1645443628.59375,P18,D05,1,1,1
475,30.0,17.0,51.0,1645443628.625,P18,D05,1,1,1
476,30.0,17.0,51.0,1645443628.65625,P18,D05,1,1,1
477,30.0,17.0,51.0,1645443628.6875,P18,D05,1,1,1
478,31.0,17.0,51.0,1645443628.71875,P18,D05,1,1,1
479,31.0,17.0,51.0,1645443628.75,P18,D05,1,1,1
480,30.0,17.0,51.0,1645443628.78125,P18,D05,1,1,1
481,31.0,17.0,51.0,1645443628.8125,P18,D05,1,1,1
482,31.0,17.0,51.0,1645443628.84375,P18,D05,1,1,1
483,31.0,17.0,51.0,1645443628.875,P18,D05,1,1,1
484,31.0,17.0,51.0,1645443628.90625,P18,D05,1,1,1
485,31.0,17.0,51.0,1645443628.9375,P18,D05,1,1,1
486,31.0,17.0,51.0,1645443628.96875,P18,D05,1,1,1
487,31.0,17.0,51.0,1645443629.0,P18,D05,1,1,1
488,31.0,17.0,51.0,1645443629.03125,P18,D05,1,1,1
489,31.0,17.0,51.0,1645443629.0625,P18,D05,1,1,1
490,31.0,17.0,51.0,1645443629.09375,P18,D05,1,1,1
491,31.0,17.0,51.0,1645443629.125,P18,D05,1,1,1
492,31.0,17.0,51.0,1645443629.15625,P18,D05,1,1,1
493,31.0,17.0,51.0,1645443629.1875,P18,D05,1,1,1
494,31.0,17.0,51.0,1645443629.21875,P18,D05,1,1,1
495,31.0,17.0,51.0,1645443629.25,P18,D05,1,1,1
496,31.0,17.0,51.0,1645443629.28125,P18,D05,1,1,1
497,31.0,17.0,51.0,1645443629.3125,P18,D05,1,1,1
498,31.0,17.0,51.0,1645443629.34375,P18,D05,1,1,1
499,31.0,17.0,51.0,1645443629.375,P18,D05,1,1,1
500,31.0,17.0,51.0,1645443629.40625,P18,D05,1,1,1
501,31.0,17.0,51.0,1645443629.4375,P18,D05,1,1,1
502,31.0,17.0,51.0,1645443629.46875,P18,D05,1,1,1
503,31.0,17.0,51.0,1645443629.5,P18,D05,1,1,1
504,31.0,17.0,51.0,1645443629.53125,P18,D05,1,1,1
505,31.0,17.0,51.0,1645443629.5625,P18,D05,1,1,1
506,31.0,17.0,51.0,1645443629.59375,P18,D05,1,1,1
507,31.0,17.0,51.0,1645443629.625,P18,D05,1,1,1
508,31.0,17.0,51.0,1645443629.65625,P18,D05,1,1,1
509,31.0,17.0,51.0,1645443629.6875,P18,D05,1,1,1
510,31.0,17.0,51.0,1645443629.71875,P18,D05,1,1,1
511,31.0,17.0,51.0,1645443629.75,P18,D05,1,1,1
512,30.0,17.0,51.0,1645443629.78125,P18,D05,1,1,1
513,31.0,17.0,51.0,1645443629.8125,P18,D05,1,1,1
514,31.0,17.0,51.0,1645443629.84375,P18,D05,1,1,1
515,31.0,17.0,51.0,1645443629.875,P18,D05,1,1,1
516,31.0,17.0,51.0,1645443629.90625,P18,D05,1,1,1
517,31.0,17.0,51.0,1645443629.9375,P18,D05,1,1,1
518,31.0,17.0,51.0,1645443629.96875,P18,D05,1,1,1
519,31.0,17.0,51.0,1645443630.0,P18,D05,1,1,1
520,31.0,17.0,51.0,1645443630.03125,P18,D05,1,1,1
521,31.0,17.0,51.0,1645443630.0625,P18,D05,1,1,1
522,31.0,17.0,51.0,1645443630.09375,P18,D05,1,1,1
523,31.0,17.0,51.0,1645443630.125,P18,D05,1,1,1
524,31.0,17.0,51.0,1645443630.15625,P18,D05,1,1,1
525,30.0,17.0,51.0,1645443630.1875,P18,D05,1,1,1
526,30.0,17.0,50.0,1645443630.21875,P18,D05,1,1,1
527,31.0,17.0,51.0,1645443630.25,P18,D05,1,1,1
528,31.0,17.0,51.0,1645443630.28125,P18,D05,1,1,1
529,31.0,17.0,51.0,1645443630.3125,P18,D05,1,1,1
530,31.0,17.0,51.0,1645443630.34375,P18,D05,1,1,1
531,31.0,17.0,51.0,1645443630.375,P18,D05,1,1,1
532,31.0,17.0,51.0,1645443630.40625,P18,D05,1,1,1
533,31.0,17.0,51.0,1645443630.4375,P18,D05,1,1,1
534,31.0,17.0,50.0,1645443630.46875,P18,D05,1,1,1
535,31.0,17.0,51.0,1645443630.5,P18,D05,1,1,1
536,31.0,17.0,52.0,1645443630.53125,P18,D05,1,1,1
537,31.0,17.0,52.0,1645443630.5625,P18,D05,1,1,1
538,31.0,17.0,51.0,1645443630.59375,P18,D05,1,1,1
539,31.0,17.0,51.0,1645443630.625,P18,D05,1,1,1
540,30.0,17.0,50.0,1645443630.65625,P18,D05,1,1,1
541,30.0,17.0,51.0,1645443630.6875,P18,D05,1,1,1
542,31.0,17.0,52.0,1645443630.71875,P18,D05,1,1,1
543,31.0,17.0,51.0,1645443630.75,P18,D05,1,1,1
544,31.0,17.0,51.0,1645443630.78125,P18,D05,1,1,1
545,31.0,17.0,51.0,1645443630.8125,P18,D05,1,1,1
546,30.0,17.0,50.0,1645443630.84375,P18,D05,1,1,1
547,30.0,17.0,51.0,1645443630.875,P18,D05,1,1,1
548,31.0,17.0,51.0,1645443630.90625,P18,D05,1,1,1
549,30.0,17.0,51.0,1645443630.9375,P18,D05,1,1,1
550,30.0,18.0,51.0,1645443630.96875,P18,D05,1,1,1
551,31.0,17.0,51.0,1645443631.0,P18,D05,1,1,1
552,30.0,17.0,51.0,1645443631.03125,P18,D05,1,1,1
553,30.0,17.0,51.0,1645443631.0625,P18,D05,1,1,1
554,30.0,17.0,51.0,1645443631.09375,P18,D05,1,1,1
555,31.0,17.0,51.0,1645443631.125,P18,D05,1,1,1
556,31.0,17.0,51.0,1645443631.15625,P18,D05,1,1,1
557,31.0,17.0,51.0,1645443631.1875,P18,D05,1,1,1
558,31.0,18.0,51.0,1645443631.21875,P18,D05,1,1,1
559,31.0,18.0,51.0,1645443631.25,P18,D05,1,1,1
560,31.0,18.0,51.0,1645443631.28125,P18,D05,1,1,1
561,31.0,17.0,51.0,1645443631.3125,P18,D05,1,1,1
562,31.0,17.0,51.0,1645443631.34375,P18,D05,1,1,1
563,31.0,17.0,51.0,1645443631.375,P18,D05,1,1,1
564,31.0,17.0,51.0,1645443631.40625,P18,D05,1,1,1
565,31.0,17.0,51.0,1645443631.4375,P18,D05,1,1,1
566,30.0,18.0,51.0,1645443631.46875,P18,D05,1,1,1
567,30.0,17.0,51.0,1645443631.5,P18,D05,1,1,1
568,31.0,17.0,52.0,1645443631.53125,P18,D05,1,1,1
569,31.0,17.0,51.0,1645443631.5625,P18,D05,1,1,1
570,31.0,17.0,51.0,1645443631.59375,P18,D05,1,1,1
571,31.0,17.0,51.0,1645443631.625,P18,D05,1,1,1
572,31.0,17.0,50.0,1645443631.65625,P18,D05,1,1,1
573,30.0,17.0,51.0,1645443631.6875,P18,D05,1,1,1
574,30.0,17.0,51.0,1645443631.71875,P18,D05,1,1,1
575,31.0,17.0,51.0,1645443631.75,P18,D05,1,1,1
576,31.0,17.0,51.0,1645443631.78125,P18,D05,1,1,1
577,31.0,17.0,51.0,1645443631.8125,P18,D05,1,1,1
578,30.0,17.0,51.0,1645443631.84375,P18,D05,1,1,1
579,31.0,17.0,51.0,1645443631.875,P18,D05,1,1,1
580,31.0,17.0,51.0,1645443631.90625,P18,D05,1,1,1
581,32.0,17.0,52.0,1645443631.9375,P18,D05,1,1,1
582,31.0,17.0,51.0,1645443631.96875,P18,D05,1,1,1
583,31.0,17.0,51.0,1645443632.0,P18,D05,1,1,1
584,31.0,17.0,51.0,1645443632.03125,P18,D05,1,1,1
585,31.0,18.0,50.0,1645443632.0625,P18,D05,1,1,1
586,30.0,18.0,51.0,1645443632.09375,P18,D05,1,1,1
587,31.0,17.0,51.0,1645443632.125,P18,D05,1,1,1
588,31.0,17.0,50.0,1645443632.15625,P18,D05,1,1,1
589,30.0,17.0,50.0,1645443632.1875,P18,D05,1,1,1
590,30.0,18.0,51.0,1645443632.21875,P18,D05,1,1,1
591,31.0,17.0,52.0,1645443632.25,P18,D05,1,1,1
592,31.0,17.0,51.0,1645443632.28125,P18,D05,1,1,1
593,31.0,17.0,51.0,1645443632.3125,P18,D05,1,1,1
594,31.0,17.0,51.0,1645443632.34375,P18,D05,1,1,1
595,31.0,17.0,51.0,1645443632.375,P18,D05,1,1,1
596,30.0,17.0,51.0,1645443632.40625,P18,D05,1,1,1
597,30.0,17.0,51.0,1645443632.4375,P18,D05,1,1,1
598,31.0,18.0,51.0,1645443632.46875,P18,D05,1,1,1
599,31.0,17.0,51.0,1645443632.5,P18,D05,1,1,1
600,31.0,17.0,51.0,1645443632.53125,P18,D05,1,1,1
601,31.0,18.0,51.0,1645443632.5625,P18,D05,1,1,1
602,30.0,17.0,51.0,1645443632.59375,P18,D05,1,1,1
603,31.0,17.0,51.0,1645443632.625,P18,D05,1,1,1
604,31.0,18.0,51.0,1645443632.65625,P18,D05,1,1,1
605,31.0,17.0,51.0,1645443632.6875,P18,D05,1,1,1
606,31.0,17.0,52.0,1645443632.71875,P18,D05,1,1,1
607,31.0,17.0,51.0,1645443632.75,P18,D05,1,1,1
608,31.0,17.0,51.0,1645443632.78125,P18,D05,1,1,1
609,31.0,17.0,51.0,1645443632.8125,P18,D05,1,1,1
610,30.0,18.0,51.0,1645443632.84375,P18,D05,1,1,1
611,31.0,18.0,50.0,1645443632.875,P18,D05,1,1,1
612,31.0,17.0,51.0,1645443632.90625,P18,D05,1,1,1
613,31.0,17.0,51.0,1645443632.9375,P18,D05,1,1,1
614,31.0,17.0,52.0,1645443632.96875,P18,D05,1,1,1
615,31.0,17.0,51.0,1645443633.0,P18,D05,1,1,1
616,31.0,17.0,51.0,1645443633.03125,P18,D05,1,1,1
617,31.0,17.0,51.0,1645443633.0625,P18,D05,1,1,1
618,31.0,17.0,51.0,1645443633.09375,P18,D05,1,1,1
619,31.0,17.0,51.0,1645443633.125,P18,D05,1,1,1
620,31.0,17.0,51.0,1645443633.15625,P18,D05,1,1,1
621,32.0,17.0,52.0,1645443633.1875,P18,D05,1,1,1
622,31.0,17.0,52.0,1645443633.21875,P18,D05,1,1,1
623,31.0,17.0,51.0,1645443633.25,P18,D05,1,1,1
624,30.0,17.0,51.0,1645443633.28125,P18,D05,1,1,1
625,30.0,17.0,51.0,1645443633.3125,P18,D05,1,1,1
626,31.0,17.0,51.0,1645443633.34375,P18,D05,1,1,1
627,31.0,17.0,51.0,1645443633.375,P18,D05,1,1,1
628,31.0,17.0,52.0,1645443633.40625,P18,D05,1,1,1
629,31.0,17.0,51.0,1645443633.4375,P18,D05,1,1,1
630,31.0,17.0,51.0,1645443633.46875,P18,D05,1,1,1
631,30.0,17.0,51.0,1645443633.5,P18,D05,1,1,1
632,30.0,18.0,51.0,1645443633.53125,P18,D05,1,1,1
633,30.0,18.0,51.0,1645443633.5625,P18,D05,1,1,1
634,30.0,17.0,51.0,1645443633.59375,P18,D05,1,1,1
635,30.0,17.0,51.0,1645443633.625,P18,D05,1,1,1
636,30.0,17.0,52.0,1645443633.65625,P18,D05,1,1,1
637,30.0,17.0,52.0,1645443633.6875,P18,D05,1,1,1
638,31.0,18.0,51.0,1645443633.71875,P18,D05,1,1,1
639,31.0,17.0,51.0,1645443633.75,P18,D05,1,1,1
640,31.0,17.0,51.0,1645443633.78125,P18,D05,1,1,1
641,31.0,17.0,52.0,1645443633.8125,P18,D05,1,1,1
642,30.0,17.0,51.0,1645443633.84375,P18,D05,1,1,1
643,31.0,17.0,51.0,1645443633.875,P18,D05,1,1,1
644,31.0,18.0,51.0,1645443633.90625,P18,D05,1,1,1
645,30.0,17.0,51.0,1645443633.9375,P18,D05,1,1,1
646,30.0,17.0,51.0,1645443633.96875,P18,D05,1,1,1
647,30.0,17.0,51.0,1645443634.0,P18,D05,1,1,1
648,31.0,18.0,51.0,1645443634.03125,P18,D05,1,1,1
649,31.0,17.0,51.0,1645443634.0625,P18,D05,1,1,1
650,31.0,17.0,51.0,1645443634.09375,P18,D05,1,1,1
651,31.0,17.0,51.0,1645443634.125,P18,D05,1,1,1
652,30.0,17.0,52.0,1645443634.15625,P18,D05,1,1,1
653,30.0,17.0,51.0,1645443634.1875,P18,D05,1,1,1
654,30.0,17.0,51.0,1645443634.21875,P18,D05,1,1,1
655,31.0,17.0,51.0,1645443634.25,P18,D05,1,1,1
656,31.0,17.0,52.0,1645443634.28125,P18,D05,1,1,1
657,30.0,17.0,51.0,1645443634.3125,P18,D05,1,1,1
658,30.0,17.0,51.0,1645443634.34375,P18,D05,1,1,1
659,30.0,17.0,52.0,1645443634.375,P18,D05,1,1,1
660,30.0,17.0,51.0,1645443634.40625,P18,D05,1,1,1
661,31.0,18.0,51.0,1645443634.4375,P18,D05,1,1,1
662,31.0,18.0,51.0,1645443634.46875,P18,D05,1,1,1
663,31.0,17.0,51.0,1645443634.5,P18,D05,1,1,1
664,30.0,17.0,51.0,1645443634.53125,P18,D05,1,1,1
665,30.0,17.0,51.0,1645443634.5625,P18,D05,1,1,1
666,30.0,17.0,51.0,1645443634.59375,P18,D05,1,1,1
667,30.0,17.0,51.0,1645443634.625,P18,D05,1,1,1
668,31.0,18.0,51.0,1645443634.65625,P18,D05,1,1,1
669,31.0,17.0,51.0,1645443634.6875,P18,D05,1,1,1
670,30.0,17.0,51.0,1645443634.71875,P18,D05,1,1,1
671,30.0,17.0,51.0,1645443634.75,P18,D05,1,1,1
672,30.0,17.0,51.0,1645443634.78125,P18,D05,1,1,1
673,31.0,17.0,51.0,1645443634.8125,P18,D05,1,1,1
674,31.0,17.0,51.0,1645443634.84375,P18,D05,1,1,1
675,31.0,17.0,51.0,1645443634.875,P18,D05,1,1,1
676,31.0,18.0,51.0,1645443634.90625,P18,D05,1,1,1
677,31.0,18.0,51.0,1645443634.9375,P18,D05,1,1,1
678,30.0,17.0,51.0,1645443634.96875,P18,D05,1,1,1
679,30.0,17.0,52.0,1645443635.0,P18,D05,1,1,1
680,31.0,17.0,51.0,1645443635.03125,P18,D05,1,1,1
681,31.0,18.0,51.0,1645443635.0625,P18,D05,1,1,1
682,31.0,17.0,51.0,1645443635.09375,P18,D05,1,1,1
683,31.0,18.0,51.0,1645443635.125,P18,D05,1,1,1
684,30.0,17.0,51.0,1645443635.15625,P18,D05,1,1,1
685,30.0,17.0,51.0,1645443635.1875,P18,D05,1,1,1
686,30.0,17.0,51.0,1645443635.21875,P18,D05,1,1,1
687,30.0,18.0,51.0,1645443635.25,P18,D05,1,1,1
688,30.0,17.0,51.0,1645443635.28125,P18,D05,1,1,1
689,30.0,18.0,51.0,1645443635.3125,P18,D05,1,1,1
690,30.0,18.0,51.0,1645443635.34375,P18,D05,1,1,1
691,30.0,18.0,51.0,1645443635.375,P18,D05,1,1,1
692,30.0,18.0,51.0,1645443635.40625,P18,D05,1,1,1
693,30.0,17.0,52.0,1645443635.4375,P18,D05,1,1,1
694,30.0,17.0,52.0,1645443635.46875,P18,D05,1,1,1
695,30.0,17.0,51.0,1645443635.5,P18,D05,1,1,1
696,31.0,18.0,52.0,1645443635.53125,P18,D05,1,1,1
697,30.0,17.0,51.0,1645443635.5625,P18,D05,1,1,1
698,30.0,17.0,50.0,1645443635.59375,P18,D05,1,1,1
699,31.0,18.0,50.0,1645443635.625,P18,D05,1,1,1
700,31.0,18.0,51.0,1645443635.65625,P18,D05,1,1,1
701,30.0,17.0,52.0,1645443635.6875,P18,D05,1,1,1
702,30.0,17.0,51.0,1645443635.71875,P18,D05,1,1,1
703,31.0,17.0,52.0,1645443635.75,P18,D05,1,1,1
704,31.0,17.0,52.0,1645443635.78125,P18,D05,1,1,1
705,31.0,17.0,52.0,1645443635.8125,P18,D05,1,1,1
706,30.0,17.0,52.0,1645443635.84375,P18,D05,1,1,1
707,29.0,17.0,51.0,1645443635.875,P18,D05,1,1,1
708,30.0,17.0,51.0,1645443635.90625,P18,D05,1,1,1
709,31.0,18.0,51.0,1645443635.9375,P18,D05,1,1,1
710,31.0,17.0,51.0,1645443635.96875,P18,D05,1,1,1
711,30.0,17.0,51.0,1645443636.0,P18,D05,1,1,1
712,30.0,17.0,51.0,1645443636.03125,P18,D05,1,1,1
713,30.0,17.0,51.0,1645443636.0625,P18,D05,1,1,1
714,30.0,17.0,52.0,1645443636.09375,P18,D05,1,1,1
715,30.0,17.0,52.0,1645443636.125,P18,D05,1,1,1
716,31.0,17.0,52.0,1645443636.15625,P18,D05,1,1,1
717,30.0,17.0,51.0,1645443636.1875,P18,D05,1,1,1
718,30.0,17.0,52.0,1645443636.21875,P18,D05,1,1,1
719,30.0,17.0,52.0,1645443636.25,P18,D05,1,1,1
720,30.0,17.0,51.0,1645443636.28125,P18,D05,1,1,1
721,30.0,17.0,51.0,1645443636.3125,P18,D05,1,1,1
722,30.0,17.0,51.0,1645443636.34375,P18,D05,1,1,1
723,29.0,18.0,51.0,1645443636.375,P18,D05,1,1,1
724,30.0,17.0,51.0,1645443636.40625,P18,D05,1,1,1
725,30.0,17.0,52.0,1645443636.4375,P18,D05,1,1,1
726,30.0,17.0,51.0,1645443636.46875,P18,D05,1,1,1
727,30.0,17.0,51.0,1645443636.5,P18,D05,1,1,1
728,30.0,17.0,52.0,1645443636.53125,P18,D05,1,1,1
729,30.0,17.0,52.0,1645443636.5625,P18,D05,1,1,1
730,30.0,17.0,52.0,1645443636.59375,P18,D05,1,1,1
731,30.0,17.0,52.0,1645443636.625,P18,D05,1,1,1
732,30.0,17.0,51.0,1645443636.65625,P18,D05,1,1,1
733,30.0,17.0,51.0,1645443636.6875,P18,D05,1,1,1
734,30.0,17.0,51.0,1645443636.71875,P18,D05,1,1,1
735,30.0,17.0,51.0,1645443636.75,P18,D05,1,1,1
736,30.0,17.0,52.0,1645443636.78125,P18,D05,1,1,1
737,30.0,17.0,51.0,1645443636.8125,P18,D05,1,1,1
738,30.0,17.0,51.0,1645443636.84375,P18,D05,1,1,1
739,30.0,17.0,51.0,1645443636.875,P18,D05,1,1,1
740,31.0,17.0,52.0,1645443636.90625,P18,D05,1,1,1
741,30.0,17.0,51.0,1645443636.9375,P18,D05,1,1,1
742,31.0,17.0,52.0,1645443636.96875,P18,D05,1,1,1
743,30.0,17.0,53.0,1645443637.0,P18,D05,1,1,1
744,30.0,17.0,52.0,1645443637.03125,P18,D05,1,1,1
745,30.0,17.0,51.0,1645443637.0625,P18,D05,1,1,1
746,31.0,17.0,52.0,1645443637.09375,P18,D05,1,1,1
747,30.0,17.0,51.0,1645443637.125,P18,D05,1,1,1
748,31.0,17.0,52.0,1645443637.15625,P18,D05,1,1,1
749,30.0,17.0,53.0,1645443637.1875,P18,D05,1,1,1
750,30.0,17.0,52.0,1645443637.21875,P18,D05,1,1,1
751,30.0,17.0,51.0,1645443637.25,P18,D05,1,1,1
752,31.0,17.0,52.0,1645443637.28125,P18,D05,1,1,1
753,30.0,18.0,51.0,1645443637.3125,P18,D05,1,1,1
754,28.0,18.0,51.0,1645443637.34375,P18,D05,1,1,1
755,29.0,17.0,51.0,1645443637.375,P18,D05,1,1,1
756,30.0,17.0,52.0,1645443637.40625,P18,D05,1,1,1
757,30.0,17.0,52.0,1645443637.4375,P18,D05,1,1,1
758,29.0,17.0,52.0,1645443637.46875,P18,D05,1,1,1
759,29.0,17.0,51.0,1645443637.5,P18,D05,1,1,1
760,30.0,17.0,51.0,1645443637.53125,P18,D05,1,1,1
761,30.0,18.0,51.0,1645443637.5625,P18,D05,1,1,1
762,30.0,17.0,52.0,1645443637.59375,P18,D05,1,1,1
763,30.0,17.0,52.0,1645443637.625,P18,D05,1,1,1
764,30.0,17.0,52.0,1645443637.65625,P18,D05,1,1,1
765,30.0,17.0,52.0,1645443637.6875,P18,D05,1,1,1
766,30.0,18.0,52.0,1645443637.71875,P18,D05,1,1,1
767,30.0,17.0,52.0,1645443637.75,P18,D05,1,1,1
768,30.0,17.0,52.0,1645443637.78125,P18,D05,1,1,1
769,29.0,17.0,52.0,1645443637.8125,P18,D05,1,1,1
770,30.0,18.0,51.0,1645443637.84375,P18,D05,1,1,1
771,30.0,17.0,52.0,1645443637.875,P18,D05,1,1,1
772,29.0,17.0,51.0,1645443637.90625,P18,D05,1,1,1
773,29.0,17.0,52.0,1645443637.9375,P18,D05,1,1,1
774,30.0,17.0,52.0,1645443637.96875,P18,D05,1,1,1
775,30.0,18.0,52.0,1645443638.0,P18,D05,1,1,1
776,30.0,17.0,51.0,1645443638.03125,P18,D05,1,1,1
777,30.0,17.0,52.0,1645443638.0625,P18,D05,1,1,1
778,30.0,18.0,52.0,1645443638.09375,P18,D05,1,1,1
779,30.0,18.0,51.0,1645443638.125,P18,D05,1,1,1
780,30.0,17.0,52.0,1645443638.15625,P18,D05,1,1,1
781,29.0,17.0,52.0,1645443638.1875,P18,D05,1,1,1
782,30.0,17.0,52.0,1645443638.21875,P18,D05,1,1,1
783,30.0,18.0,52.0,1645443638.25,P18,D05,1,1,1
784,30.0,17.0,52.0,1645443638.28125,P18,D05,1,1,1
785,30.0,17.0,52.0,1645443638.3125,P18,D05,1,1,1
786,30.0,17.0,52.0,1645443638.34375,P18,D05,1,1,1
787,30.0,17.0,51.0,1645443638.375,P18,D05,1,1,1
788,30.0,18.0,52.0,1645443638.40625,P18,D05,1,1,1
789,30.0,17.0,52.0,1645443638.4375,P18,D05,1,1,1
790,30.0,17.0,52.0,1645443638.46875,P18,D05,1,1,1
791,30.0,17.0,52.0,1645443638.5,P18,D05,1,1,1
792,30.0,17.0,51.0,1645443638.53125,P18,D05,1,1,1
793,30.0,17.0,52.0,1645443638.5625,P18,D05,1,1,1
794,30.0,17.0,52.0,1645443638.59375,P18,D05,1,1,1
795,30.0,17.0,52.0,1645443638.625,P18,D05,1,1,1
796,30.0,17.0,52.0,1645443638.65625,P18,D05,1,1,1
797,30.0,17.0,52.0,1645443638.6875,P18,D05,1,1,1
798,29.0,17.0,52.0,1645443638.71875,P18,D05,1,1,1
799,30.0,17.0,52.0,1645443638.75,P18,D05,1,1,1
800,30.0,17.0,52.0,1645443638.78125,P18,D05,1,1,1
801,30.0,17.0,52.0,1645443638.8125,P18,D05,1,1,1
802,30.0,17.0,52.0,1645443638.84375,P18,D05,1,1,1
803,30.0,17.0,52.0,1645443638.875,P18,D05,1,1,1
804,30.0,18.0,52.0,1645443638.90625,P18,D05,1,1,1
805,30.0,17.0,52.0,1645443638.9375,P18,D05,1,1,1
806,29.0,17.0,52.0,1645443638.96875,P18,D05,1,1,1
807,29.0,17.0,52.0,1645443639.0,P18,D05,1,1,1
808,30.0,17.0,52.0,1645443639.03125,P18,D05,1,1,1
809,30.0,17.0,52.0,1645443639.0625,P18,D05,1,1,1
810,29.0,17.0,52.0,1645443639.09375,P18,D05,1,1,1
811,29.0,17.0,52.0,1645443639.125,P18,D05,1,1,1
812,30.0,17.0,52.0,1645443639.15625,P18,D05,1,1,1
813,30.0,17.0,52.0,1645443639.1875,P18,D05,1,1,1
814,29.0,18.0,52.0,1645443639.21875,P18,D05,1,1,1
815,29.0,17.0,52.0,1645443639.25,P18,D05,1,1,1
816,29.0,17.0,52.0,1645443639.28125,P18,D05,1,1,1
817,30.0,18.0,52.0,1645443639.3125,P18,D05,1,1,1
818,30.0,17.0,52.0,1645443639.34375,P18,D05,1,1,1
819,30.0,17.0,52.0,1645443639.375,P18,D05,1,1,1
820,30.0,17.0,52.0,1645443639.40625,P18,D05,1,1,1
821,29.0,17.0,52.0,1645443639.4375,P18,D05,1,1,1
822,29.0,17.0,52.0,1645443639.46875,P18,D05,1,1,1
823,30.0,17.0,52.0,1645443639.5,P18,D05,1,1,1
824,30.0,17.0,52.0,1645443639.53125,P18,D05,1,1,1
825,30.0,17.0,52.0,1645443639.5625,P18,D05,1,1,1
826,29.0,17.0,52.0,1645443639.59375,P18,D05,1,1,1
827,29.0,17.0,52.0,1645443639.625,P18,D05,1,1,1
828,29.0,18.0,52.0,1645443639.65625,P18,D05,1,1,1
829,30.0,17.0,52.0,1645443639.6875,P18,D05,1,1,1
830,30.0,17.0,52.0,1645443639.71875,P18,D05,1,1,1
831,30.0,17.0,52.0,1645443639.75,P18,D05,1,1,1
832,30.0,17.0,52.0,1645443639.78125,P18,D05,1,1,1
833,29.0,17.0,51.0,1645443639.8125,P18,D05,1,1,1
834,30.0,17.0,51.0,1645443639.84375,P18,D05,1,1,1
835,30.0,18.0,52.0,1645443639.875,P18,D05,1,1,1
836,30.0,17.0,52.0,1645443639.90625,P18,D05,1,1,1
837,29.0,17.0,52.0,1645443639.9375,P18,D05,1,1,1
838,29.0,17.0,52.0,1645443639.96875,P18,D05,1,1,1
839,29.0,18.0,52.0,1645443640.0,P18,D05,1,1,1
840,29.0,17.0,51.0,1645443640.03125,P18,D05,1,1,1
841,29.0,18.0,52.0,1645443640.0625,P18,D05,1,1,1
842,29.0,18.0,52.0,1645443640.09375,P18,D05,1,1,1
843,29.0,18.0,52.0,1645443640.125,P18,D05,1,1,1
844,29.0,17.0,52.0,1645443640.15625,P18,D05,1,1,1
845,29.0,17.0,52.0,1645443640.1875,P18,D05,1,1,1
846,30.0,17.0,52.0,1645443640.21875,P18,D05,1,1,1
847,30.0,17.0,52.0,1645443640.25,P18,D05,1,1,1
848,30.0,17.0,52.0,1645443640.28125,P18,D05,1,1,1
849,29.0,18.0,52.0,1645443640.3125,P18,D05,1,1,1
850,29.0,17.0,52.0,1645443640.34375,P18,D05,1,1,1
851,29.0,17.0,52.0,1645443640.375,P18,D05,1,1,1
852,29.0,17.0,52.0,1645443640.40625,P18,D05,1,1,1
853,29.0,18.0,52.0,1645443640.4375,P18,D05,1,1,1
854,30.0,18.0,52.0,1645443640.46875,P18,D05,1,1,1
855,29.0,17.0,52.0,1645443640.5,P18,D05,1,1,1
856,29.0,17.0,52.0,1645443640.53125,P18,D05,1,1,1
857,29.0,17.0,52.0,1645443640.5625,P18,D05,1,1,1
858,29.0,17.0,52.0,1645443640.59375,P18,D05,1,1,1
859,30.0,17.0,52.0,1645443640.625,P18,D05,1,1,1
860,30.0,17.0,52.0,1645443640.65625,P18,D05,1,1,1
861,30.0,17.0,52.0,1645443640.6875,P18,D05,1,1,1
862,29.0,17.0,52.0,1645443640.71875,P18,D05,1,1,1
863,29.0,17.0,52.0,1645443640.75,P18,D05,1,1,1
864,29.0,17.0,52.0,1645443640.78125,P18,D05,1,1,1
865,29.0,17.0,52.0,1645443640.8125,P18,D05,1,1,1
866,29.0,18.0,51.0,1645443640.84375,P18,D05,1,1,1
867,29.0,17.0,51.0,1645443640.875,P18,D05,1,1,1
868,29.0,17.0,52.0,1645443640.90625,P18,D05,1,1,1
869,29.0,17.0,52.0,1645443640.9375,P18,D05,1,1,1
870,29.0,17.0,52.0,1645443640.96875,P18,D05,1,1,1
871,30.0,17.0,52.0,1645443641.0,P18,D05,1,1,1
872,30.0,17.0,52.0,1645443641.03125,P18,D05,1,1,1
873,29.0,17.0,52.0,1645443641.0625,P18,D05,1,1,1
874,29.0,17.0,52.0,1645443641.09375,P18,D05,1,1,1
875,29.0,17.0,52.0,1645443641.125,P18,D05,1,1,1
876,29.0,17.0,52.0,1645443641.15625,P18,D05,1,1,1
877,29.0,17.0,52.0,1645443641.1875,P18,D05,1,1,1
878,29.0,17.0,52.0,1645443641.21875,P18,D05,1,1,1
879,29.0,17.0,52.0,1645443641.25,P18,D05,1,1,1
880,29.0,17.0,52.0,1645443641.28125,P18,D05,1,1,1
881,29.0,17.0,52.0,1645443641.3125,P18,D05,1,1,1
882,29.0,17.0,52.0,1645443641.34375,P18,D05,1,1,1
883,29.0,17.0,52.0,1645443641.375,P18,D05,1,1,1
884,30.0,17.0,52.0,1645443641.40625,P18,D05,1,1,1
885,29.0,17.0,52.0,1645443641.4375,P18,D05,1,1,1
886,29.0,17.0,52.0,1645443641.46875,P18,D05,1,1,1
887,29.0,17.0,52.0,1645443641.5,P18,D05,1,1,1
888,29.0,17.0,52.0,1645443641.53125,P18,D05,1,1,1
889,29.0,17.0,52.0,1645443641.5625,P18,D05,1,1,1
890,29.0,17.0,52.0,1645443641.59375,P18,D05,1,1,1
891,29.0,17.0,52.0,1645443641.625,P18,D05,1,1,1
892,29.0,17.0,52.0,1645443641.65625,P18,D05,1,1,1
893,29.0,17.0,52.0,1645443641.6875,P18,D05,1,1,1
894,29.0,17.0,52.0,1645443641.71875,P18,D05,1,1,1
895,28.0,18.0,52.0,1645443641.75,P18,D05,1,1,1
896,29.0,17.0,52.0,1645443641.78125,P18,D05,1,1,1
897,29.0,17.0,52.0,1645443641.8125,P18,D05,1,1,1
898,29.0,17.0,52.0,1645443641.84375,P18,D05,1,1,1
899,29.0,17.0,52.0,1645443641.875,P18,D05,1,1,1
900,29.0,17.0,52.0,1645443641.90625,P18,D05,1,1,1
901,29.0,17.0,52.0,1645443641.9375,P18,D05,1,1,1
902,29.0,17.0,52.0,1645443641.96875,P18,D05,1,1,1
903,29.0,17.0,52.0,1645443642.0,P18,D05,1,1,1
904,29.0,17.0,52.0,1645443642.03125,P18,D05,1,1,1
905,29.0,17.0,52.0,1645443642.0625,P18,D05,1,1,1
906,29.0,17.0,52.0,1645443642.09375,P18,D05,1,1,1
907,29.0,17.0,52.0,1645443642.125,P18,D05,1,1,1
908,29.0,17.0,52.0,1645443642.15625,P18,D05,1,1,1
909,29.0,17.0,52.0,1645443642.1875,P18,D05,1,1,1
910,29.0,17.0,52.0,1645443642.21875,P18,D05,1,1,1
911,29.0,17.0,52.0,1645443642.25,P18,D05,1,1,1
912,29.0,17.0,52.0,1645443642.28125,P18,D05,1,1,1
913,29.0,17.0,52.0,1645443642.3125,P18,D05,1,1,1
914,29.0,17.0,52.0,1645443642.34375,P18,D05,1,1,1
915,29.0,17.0,52.0,1645443642.375,P18,D05,1,1,1
916,29.0,17.0,52.0,1645443642.40625,P18,D05,1,1,1
917,29.0,17.0,52.0,1645443642.4375,P18,D05,1,1,1
918,29.0,18.0,52.0,1645443642.46875,P18,D05,1,1,1
919,29.0,17.0,52.0,1645443642.5,P18,D05,1,1,1
920,29.0,17.0,52.0,1645443642.53125,P18,D05,1,1,1
921,29.0,18.0,52.0,1645443642.5625,P18,D05,1,1,1
922,29.0,17.0,52.0,1645443642.59375,P18,D05,1,1,1
923,29.0,17.0,52.0,1645443642.625,P18,D05,1,1,1
924,28.0,17.0,52.0,1645443642.65625,P18,D05,1,1,1
925,29.0,17.0,52.0,1645443642.6875,P18,D05,1,1,1
926,29.0,17.0,52.0,1645443642.71875,P18,D05,1,1,1
927,29.0,17.0,52.0,1645443642.75,P18,D05,1,1,1
928,29.0,17.0,52.0,1645443642.78125,P18,D05,1,1,1
929,29.0,17.0,52.0,1645443642.8125,P18,D05,1,1,1
930,29.0,17.0,52.0,1645443642.84375,P18,D05,1,1,1
931,29.0,17.0,52.0,1645443642.875,P18,D05,1,1,1
932,29.0,17.0,52.0,1645443642.90625,P18,D05,1,1,1
933,29.0,17.0,52.0,1645443642.9375,P18,D05,1,1,1
934,29.0,17.0,52.0,1645443642.96875,P18,D05,1,1,1
935,29.0,17.0,52.0,1645443643.0,P18,D05,1,1,1
936,29.0,17.0,52.0,1645443643.03125,P18,D05,1,1,1
937,29.0,17.0,52.0,1645443643.0625,P18,D05,1,1,1
938,29.0,17.0,52.0,1645443643.09375,P18,D05,1,1,1
939,29.0,17.0,52.0,1645443643.125,P18,D05,1,1,1
940,29.0,17.0,52.0,1645443643.15625,P18,D05,1,1,1
941,29.0,18.0,52.0,1645443643.1875,P18,D05,1,1,1
942,29.0,17.0,52.0,1645443643.21875,P18,D05,1,1,1
943,29.0,17.0,52.0,1645443643.25,P18,D05,1,1,1
944,29.0,17.0,53.0,1645443643.28125,P18,D05,1,1,1
945,29.0,17.0,52.0,1645443643.3125,P18,D05,1,1,1
946,29.0,17.0,52.0,1645443643.34375,P18,D05,1,1,1
947,29.0,17.0,52.0,1645443643.375,P18,D05,1,1,1
948,29.0,17.0,52.0,1645443643.40625,P18,D05,1,1,1
949,29.0,17.0,52.0,1645443643.4375,P18,D05,1,1,1
950,29.0,17.0,52.0,1645443643.46875,P18,D05,1,1,1
951,29.0,17.0,52.0,1645443643.5,P18,D05,1,1,1
952,29.0,17.0,52.0,1645443643.53125,P18,D05,1,1,1
953,29.0,17.0,52.0,1645443643.5625,P18,D05,1,1,1
954,29.0,17.0,52.0,1645443643.59375,P18,D05,1,1,1
955,28.0,17.0,52.0,1645443643.625,P18,D05,1,1,1
956,29.0,17.0,52.0,1645443643.65625,P18,D05,1,1,1
957,29.0,17.0,52.0,1645443643.6875,P18,D05,1,1,1
958,29.0,17.0,52.0,1645443643.71875,P18,D05,1,1,1
959,28.0,17.0,52.0,1645443643.75,P18,D05,1,1,1
960,29.0,17.0,51.0,1645443643.78125,P18,D05,1,1,1
961,29.0,17.0,52.0,1645443643.8125,P18,D05,1,1,1
962,30.0,17.0,53.0,1645443643.84375,P18,D05,1,1,1
963,29.0,17.0,53.0,1645443643.875,P18,D05,1,1,1
964,29.0,17.0,52.0,1645443643.90625,P18,D05,1,1,1
965,29.0,17.0,52.0,1645443643.9375,P18,D05,1,1,1
966,28.0,18.0,52.0,1645443643.96875,P18,D05,1,1,1
967,28.0,17.0,52.0,1645443644.0,P18,D05,1,1,1
968,29.0,17.0,52.0,1645443644.03125,P18,D05,1,1,1
969,30.0,17.0,53.0,1645443644.0625,P18,D05,1,1,1
970,30.0,17.0,53.0,1645443644.09375,P18,D05,1,1,1
971,30.0,17.0,53.0,1645443644.125,P18,D05,1,1,1
972,29.0,17.0,53.0,1645443644.15625,P18,D05,1,1,1
973,28.0,17.0,52.0,1645443644.1875,P18,D05,1,1,1
974,28.0,17.0,52.0,1645443644.21875,P18,D05,1,1,1
975,28.0,18.0,52.0,1645443644.25,P18,D05,1,1,1
976,28.0,17.0,52.0,1645443644.28125,P18,D05,1,1,1
977,28.0,17.0,52.0,1645443644.3125,P18,D05,1,1,1
978,28.0,17.0,52.0,1645443644.34375,P18,D05,1,1,1
979,28.0,17.0,53.0,1645443644.375,P18,D05,1,1,1
980,28.0,17.0,53.0,1645443644.40625,P18,D05,1,1,1
981,29.0,17.0,52.0,1645443644.4375,P18,D05,1,1,1
982,29.0,17.0,52.0,1645443644.46875,P18,D05,1,1,1
983,28.0,17.0,53.0,1645443644.5,P18,D05,1,1,1
984,27.0,18.0,52.0,1645443644.53125,P18,D05,1,1,1
985,28.0,18.0,52.0,1645443644.5625,P18,D05,1,1,1
986,28.0,18.0,53.0,1645443644.59375,P18,D05,1,1,1
987,27.0,18.0,51.0,1645443644.625,P18,D05,1,1,1
988,27.0,18.0,51.0,1645443644.65625,P18,D05,1,1,1
989,27.0,18.0,52.0,1645443644.6875,P18,D05,1,1,1
990,28.0,18.0,52.0,1645443644.71875,P18,D05,1,1,1
991,29.0,17.0,54.0,1645443644.75,P18,D05,1,1,1
992,29.0,17.0,53.0,1645443644.78125,P18,D05,1,1,1
993,28.0,17.0,52.0,1645443644.8125,P18,D05,1,1,1
994,27.0,18.0,52.0,1645443644.84375,P18,D05,1,1,1
995,28.0,18.0,52.0,1645443644.875,P18,D05,1,1,1
996,28.0,18.0,52.0,1645443644.90625,P18,D05,1,1,1
997,29.0,18.0,53.0,1645443644.9375,P18,D05,1,1,1
998,28.0,17.0,53.0,1645443644.96875,P18,D05,1,1,1
999,28.0,18.0,52.0,1645443645.0,P18,D05,1,1,1
1000,28.0,18.0,52.0,1645443645.03125,P18,D05,1,1,1
1001,28.0,18.0,52.0,1645443645.0625,P18,D05,1,1,1
1002,28.0,18.0,52.0,1645443645.09375,P18,D05,1,1,1
1003,28.0,18.0,52.0,1645443645.125,P18,D05,1,1,1
1004,28.0,17.0,52.0,1645443645.15625,P18,D05,1,1,1
1005,28.0,17.0,52.0,1645443645.1875,P18,D05,1,1,1
1006,29.0,17.0,53.0,1645443645.21875,P18,D05,1,1,1
1007,29.0,17.0,53.0,1645443645.25,P18,D05,1,1,1
1008,30.0,17.0,53.0,1645443645.28125,P18,D05,1,1,1
1009,29.0,17.0,53.0,1645443645.3125,P18,D05,1,1,1
1010,28.0,18.0,51.0,1645443645.34375,P18,D05,1,1,1
1011,28.0,18.0,52.0,1645443645.375,P18,D05,1,1,1
1012,28.0,18.0,52.0,1645443645.40625,P18,D05,1,1,1
1013,28.0,17.0,52.0,1645443645.4375,P18,D05,1,1,1
1014,29.0,17.0,52.0,1645443645.46875,P18,D05,1,1,1
1015,29.0,17.0,53.0,1645443645.5,P18,D05,1,1,1
1016,29.0,17.0,53.0,1645443645.53125,P18,D05,1,1,1
1017,29.0,18.0,52.0,1645443645.5625,P18,D05,1,1,1
1018,29.0,17.0,52.0,1645443645.59375,P18,D05,1,1,1
1019,29.0,17.0,52.0,1645443645.625,P18,D05,1,1,1
1020,29.0,17.0,52.0,1645443645.65625,P18,D05,1,1,1
1021,29.0,17.0,52.0,1645443645.6875,P18,D05,1,1,1
1022,29.0,17.0,52.0,1645443645.71875,P18,D05,1,1,1
1023,29.0,17.0,52.0,1645443645.75,P18,D05,1,1,1
1024,29.0,18.0,52.0,1645443645.78125,P18,D05,1,1,1
1025,29.0,18.0,52.0,1645443645.8125,P18,D05,1,1,1
1026,29.0,17.0,52.0,1645443645.84375,P18,D05,1,1,1
1027,29.0,17.0,52.0,1645443645.875,P18,D05,1,1,1
1028,29.0,17.0,52.0,1645443645.90625,P18,D05,1,1,1
1029,29.0,17.0,52.0,1645443645.9375,P18,D05,1,1,1
1030,29.0,17.0,52.0,1645443645.96875,P18,D05,1,1,1
1031,29.0,17.0,52.0,1645443646.0,P18,D05,1,1,1
1032,29.0,17.0,52.0,1645443646.03125,P18,D05,1,1,1
1033,29.0,17.0,52.0,1645443646.0625,P18,D05,1,1,1
1034,29.0,17.0,52.0,1645443646.09375,P18,D05,1,1,1
1035,29.0,17.0,52.0,1645443646.125,P18,D05,1,1,1
1036,29.0,17.0,52.0,1645443646.15625,P18,D05,1,1,1
1037,29.0,17.0,52.0,1645443646.1875,P18,D05,1,1,1
1038,29.0,17.0,52.0,1645443646.21875,P18,D05,1,1,1
1039,29.0,17.0,52.0,1645443646.25,P18,D05,1,1,1
1040,29.0,17.0,52.0,1645443646.28125,P18,D05,1,1,1
1041,29.0,17.0,52.0,1645443646.3125,P18,D05,1,1,1
1042,28.0,17.0,52.0,1645443646.34375,P18,D05,1,1,1
1043,29.0,17.0,52.0,1645443646.375,P18,D05,1,1,1
1044,29.0,17.0,52.0,1645443646.40625,P18,D05,1,1,1
1045,29.0,17.0,52.0,1645443646.4375,P18,D05,1,1,1
1046,29.0,17.0,52.0,1645443646.46875,P18,D05,1,1,1
1047,29.0,17.0,52.0,1645443646.5,P18,D05,1,1,1
1048,29.0,17.0,52.0,1645443646.53125,P18,D05,1,1,1
1049,29.0,17.0,52.0,1645443646.5625,P18,D05,1,1,1
1050,29.0,17.0,52.0,1645443646.59375,P18,D05,1,1,1
1051,29.0,17.0,52.0,1645443646.625,P18,D05,1,1,1
1052,29.0,18.0,52.0,1645443646.65625,P18,D05,1,1,1
1053,29.0,17.0,52.0,1645443646.6875,P18,D05,1,1,1
1054,28.0,17.0,52.0,1645443646.71875,P18,D05,1,1,1
1055,29.0,17.0,52.0,1645443646.75,P18,D05,1,1,1
1056,29.0,17.0,52.0,1645443646.78125,P18,D05,1,1,1
1057,29.0,17.0,52.0,1645443646.8125,P18,D05,1,1,1
1058,29.0,17.0,52.0,1645443646.84375,P18,D05,1,1,1
1059,29.0,17.0,52.0,1645443646.875,P18,D05,1,1,1
1060,29.0,17.0,52.0,1645443646.90625,P18,D05,1,1,1
1061,29.0,17.0,52.0,1645443646.9375,P18,D05,1,1,1
1062,29.0,17.0,52.0,1645443646.96875,P18,D05,1,1,1
1063,29.0,17.0,52.0,1645443647.0,P18,D05,1,1,1
1064,29.0,17.0,52.0,1645443647.03125,P18,D05,1,1,1
1065,29.0,17.0,52.0,1645443647.0625,P18,D05,1,1,1
1066,29.0,17.0,52.0,1645443647.09375,P18,D05,1,1,1
1067,29.0,17.0,52.0,1645443647.125,P18,D05,1,1,1
1068,29.0,17.0,52.0,1645443647.15625,P18,D05,1,1,1
1069,29.0,17.0,52.0,1645443647.1875,P18,D05,1,1,1
1070,29.0,17.0,52.0,1645443647.21875,P18,D05,1,1,1
1071,29.0,17.0,52.0,1645443647.25,P18,D05,1,1,1
1072,29.0,17.0,52.0,1645443647.28125,P18,D05,1,1,1
1073,29.0,17.0,52.0,1645443647.3125,P18,D05,1,1,1
1074,29.0,17.0,52.0,1645443647.34375,P18,D05,1,1,1
1075,29.0,17.0,53.0,1645443647.375,P18,D05,1,1,1
1076,29.0,17.0,52.0,1645443647.40625,P18,D05,1,1,1
1077,29.0,17.0,52.0,1645443647.4375,P18,D05,1,1,1
1078,29.0,17.0,52.0,1645443647.46875,P18,D05,1,1,1
1079,29.0,17.0,52.0,1645443647.5,P18,D05,1,1,1
1080,29.0,17.0,52.0,1645443647.53125,P18,D05,1,1,1
1081,29.0,17.0,52.0,1645443647.5625,P18,D05,1,1,1
1082,29.0,17.0,52.0,1645443647.59375,P18,D05,1,1,1
1083,29.0,17.0,52.0,1645443647.625,P18,D05,1,1,1
1084,29.0,17.0,52.0,1645443647.65625,P18,D05,1,1,1
1085,29.0,17.0,52.0,1645443647.6875,P18,D05,1,1,1
1086,28.0,17.0,52.0,1645443647.71875,P18,D05,1,1,1
1087,29.0,17.0,52.0,1645443647.75,P18,D05,1,1,1
1088,29.0,17.0,52.0,1645443647.78125,P18,D05,1,1,1
1089,29.0,17.0,52.0,1645443647.8125,P18,D05,1,1,1
1090,29.0,17.0,52.0,1645443647.84375,P18,D05,1,1,1
1091,29.0,17.0,52.0,1645443647.875,P18,D05,1,1,1
1092,28.0,17.0,52.0,1645443647.90625,P18,D05,1,1,1
1093,28.0,17.0,52.0,1645443647.9375,P18,D05,1,1,1
1094,29.0,17.0,52.0,1645443647.96875,P18,D05,1,1,1
1095,29.0,17.0,52.0,1645443648.0,P18,D05,1,1,1
1096,29.0,17.0,52.0,1645443648.03125,P18,D05,1,1,1
1097,29.0,17.0,52.0,1645443648.0625,P18,D05,1,1,1
1098,29.0,17.0,52.0,1645443648.09375,P18,D05,1,1,1
1099,29.0,17.0,52.0,1645443648.125,P18,D05,1,1,1
1100,29.0,17.0,52.0,1645443648.15625,P18,D05,1,1,1
1101,28.0,17.0,52.0,1645443648.1875,P18,D05,1,1,1
1102,29.0,17.0,52.0,1645443648.21875,P18,D05,1,1,1
1103,29.0,17.0,52.0,1645443648.25,P18,D05,1,1,1
1104,28.0,17.0,52.0,1645443648.28125,P18,D05,1,1,1
1105,29.0,17.0,52.0,1645443648.3125,P18,D05,1,1,1
1106,29.0,17.0,52.0,1645443648.34375,P18,D05,1,1,1
1107,29.0,17.0,52.0,1645443648.375,P18,D05,1,1,1
1108,29.0,17.0,52.0,1645443648.40625,P18,D05,1,1,1
1109,29.0,17.0,52.0,1645443648.4375,P18,D05,1,1,1
1110,29.0,17.0,52.0,1645443648.46875,P18,D05,1,1,1
1111,29.0,17.0,52.0,1645443648.5,P18,D05,1,1,1
1112,29.0,17.0,52.0,1645443648.53125,P18,D05,1,1,1
1113,29.0,17.0,52.0,1645443648.5625,P18,D05,1,1,1
1114,29.0,17.0,52.0,1645443648.59375,P18,D05,1,1,1
1115,29.0,17.0,52.0,1645443648.625,P18,D05,1,1,1
1116,28.0,17.0,52.0,1645443648.65625,P18,D05,1,1,1
1117,29.0,17.0,52.0,1645443648.6875,P18,D05,1,1,1
1118,29.0,17.0,52.0,1645443648.71875,P18,D05,1,1,1
1119,29.0,17.0,51.0,1645443648.75,P18,D05,1,1,1
1120,29.0,17.0,52.0,1645443648.78125,P18,D05,1,1,1
1121,29.0,17.0,53.0,1645443648.8125,P18,D05,1,1,1
1122,28.0,17.0,52.0,1645443648.84375,P18,D05,1,1,1
1123,29.0,17.0,52.0,1645443648.875,P18,D05,1,1,1
1124,29.0,17.0,52.0,1645443648.90625,P18,D05,1,1,1
1125,29.0,17.0,52.0,1645443648.9375,P18,D05,1,1,1
1126,28.0,17.0,52.0,1645443648.96875,P18,D05,1,1,1
1127,28.0,17.0,52.0,1645443649.0,P18,D05,1,1,1
1128,28.0,17.0,52.0,1645443649.03125,P18,D05,1,1,1
1129,29.0,17.0,52.0,1645443649.0625,P18,D05,1,1,1
1130,29.0,17.0,52.0,1645443649.09375,P18,D05,1,1,1
1131,29.0,17.0,52.0,1645443649.125,P18,D05,1,1,1
1132,29.0,17.0,53.0,1645443649.15625,P18,D05,1,1,1
1133,29.0,17.0,53.0,1645443649.1875,P18,D05,1,1,1
1134,29.0,17.0,52.0,1645443649.21875,P18,D05,1,1,1
1135,29.0,17.0,52.0,1645443649.25,P18,D05,1,1,1
1136,28.0,17.0,52.0,1645443649.28125,P18,D05,1,1,1
1137,28.0,17.0,52.0,1645443649.3125,P18,D05,1,1,1
1138,28.0,17.0,52.0,1645443649.34375,P18,D05,1,1,1
1139,28.0,17.0,52.0,1645443649.375,P18,D05,1,1,1
1140,29.0,17.0,52.0,1645443649.40625,P18,D05,1,1,1
1141,29.0,17.0,52.0,1645443649.4375,P18,D05,1,1,1
1142,29.0,17.0,52.0,1645443649.46875,P18,D05,1,1,1
1143,29.0,17.0,52.0,1645443649.5,P18,D05,1,1,1
1144,29.0,17.0,53.0,1645443649.53125,P18,D05,1,1,1
1145,29.0,17.0,52.0,1645443649.5625,P18,D05,1,1,1
1146,29.0,17.0,52.0,1645443649.59375,P18,D05,1,1,1
1147,29.0,17.0,52.0,1645443649.625,P18,D05,1,1,1
1148,29.0,17.0,52.0,1645443649.65625,P18,D05,1,1,1
1149,29.0,17.0,52.0,1645443649.6875,P18,D05,1,1,1
1150,29.0,17.0,52.0,1645443649.71875,P18,D05,1,1,1
1151,29.0,17.0,52.0,1645443649.75,P18,D05,1,1,1
1152,29.0,17.0,52.0,1645443649.78125,P18,D05,1,1,1
1153,28.0,17.0,52.0,1645443649.8125,P18,D05,1,1,1
1154,29.0,17.0,52.0,1645443649.84375,P18,D05,1,1,1
1155,29.0,17.0,52.0,1645443649.875,P18,D05,1,1,1
1156,29.0,17.0,52.0,1645443649.90625,P18,D05,1,1,1
1157,29.0,17.0,52.0,1645443649.9375,P18,D05,1,1,1
1158,29.0,17.0,52.0,1645443649.96875,P18,D05,1,1,1
1159,29.0,17.0,52.0,1645443650.0,P18,D05,1,1,1
1160,29.0,17.0,52.0,1645443650.03125,P18,D05,1,1,1
1161,29.0,17.0,52.0,1645443650.0625,P18,D05,1,1,1
1162,29.0,17.0,52.0,1645443650.09375,P18,D05,1,1,1
1163,29.0,17.0,52.0,1645443650.125,P18,D05,1,1,1
1164,29.0,17.0,52.0,1645443650.15625,P18,D05,1,1,1
1165,29.0,17.0,52.0,1645443650.1875,P18,D05,1,1,1
1166,29.0,17.0,52.0,1645443650.21875,P18,D05,1,1,1
1167,29.0,17.0,52.0,1645443650.25,P18,D05,1,1,1
1168,29.0,17.0,52.0,1645443650.28125,P18,D05,1,1,1
1169,29.0,17.0,52.0,1645443650.3125,P18,D05,1,1,1
1170,29.0,17.0,52.0,1645443650.34375,P18,D05,1,1,1
1171,29.0,17.0,52.0,1645443650.375,P18,D05,1,1,1
1172,29.0,17.0,52.0,1645443650.40625,P18,D05,1,1,1
1173,29.0,17.0,52.0,1645443650.4375,P18,D05,1,1,1
1174,29.0,17.0,52.0,1645443650.46875,P18,D05,1,1,1
1175,29.0,17.0,52.0,1645443650.5,P18,D05,1,1,1
1176,29.0,17.0,52.0,1645443650.53125,P18,D05,1,1,1
1177,29.0,17.0,52.0,1645443650.5625,P18,D05,1,1,1
1178,29.0,17.0,52.0,1645443650.59375,P18,D05,1,1,1
1179,28.0,18.0,52.0,1645443650.625,P18,D05,1,1,1
1180,28.0,17.0,52.0,1645443650.65625,P18,D05,1,1,1
1181,29.0,17.0,52.0,1645443650.6875,P18,D05,1,1,1
1182,29.0,17.0,52.0,1645443650.71875,P18,D05,1,1,1
1183,29.0,17.0,52.0,1645443650.75,P18,D05,1,1,1
1184,29.0,17.0,52.0,1645443650.78125,P18,D05,1,1,1
1185,29.0,17.0,52.0,1645443650.8125,P18,D05,1,1,1
1186,29.0,17.0,52.0,1645443650.84375,P18,D05,1,1,1
1187,29.0,17.0,52.0,1645443650.875,P18,D05,1,1,1
1188,29.0,17.0,52.0,1645443650.90625,P18,D05,1,1,1
1189,29.0,17.0,52.0,1645443650.9375,P18,D05,1,1,1
1190,29.0,17.0,52.0,1645443650.96875,P18,D05,1,1,1
1191,29.0,17.0,52.0,1645443651.0,P18,D05,1,1,1
1192,29.0,17.0,52.0,1645443651.03125,P18,D05,1,1,1
1193,29.0,17.0,52.0,1645443651.0625,P18,D05,1,1,1
1194,29.0,17.0,52.0,1645443651.09375,P18,D05,1,1,1
1195,29.0,17.0,52.0,1645443651.125,P18,D05,1,1,1
1196,29.0,17.0,52.0,1645443651.15625,P18,D05,1,1,1
1197,29.0,17.0,52.0,1645443651.1875,P18,D05,1,1,1
1198,29.0,17.0,52.0,1645443651.21875,P18,D05,1,1,1
1199,29.0,17.0,52.0,1645443651.25,P18,D05,1,1,1
1200,29.0,17.0,52.0,1645443651.28125,P18,D05,1,1,1
1201,29.0,17.0,52.0,1645443651.3125,P18,D05,1,1,1
1202,29.0,17.0,52.0,1645443651.34375,P18,D05,1,1,1
1203,29.0,17.0,52.0,1645443651.375,P18,D05,1,1,1
1204,29.0,17.0,52.0,1645443651.40625,P18,D05,1,1,1
1205,28.0,17.0,52.0,1645443651.4375,P18,D05,1,1,1
1206,29.0,17.0,52.0,1645443651.46875,P18,D05,1,1,1
1207,29.0,17.0,52.0,1645443651.5,P18,D05,1,1,1
1208,29.0,17.0,52.0,1645443651.53125,P18,D05,1,1,1
1209,29.0,17.0,52.0,1645443651.5625,P18,D05,1,1,1
1210,29.0,17.0,52.0,1645443651.59375,P18,D05,1,1,1
1211,28.0,17.0,52.0,1645443651.625,P18,D05,1,1,1
1212,29.0,17.0,52.0,1645443651.65625,P18,D05,1,1,1
1213,29.0,17.0,52.0,1645443651.6875,P18,D05,1,1,1
1214,28.0,17.0,52.0,1645443651.71875,P18,D05,1,1,1
1215,29.0,17.0,52.0,1645443651.75,P18,D05,1,1,1
1216,29.0,17.0,52.0,1645443651.78125,P18,D05,1,1,1
1217,29.0,17.0,52.0,1645443651.8125,P18,D05,1,1,1
1218,29.0,17.0,52.0,1645443651.84375,P18,D05,1,1,1
1219,29.0,17.0,52.0,1645443651.875,P18,D05,1,1,1
1220,29.0,17.0,52.0,1645443651.90625,P18,D05,1,1,1
1221,29.0,17.0,53.0,1645443651.9375,P18,D05,1,1,1
1222,29.0,17.0,52.0,1645443651.96875,P18,D05,1,1,1
1223,29.0,17.0,52.0,1645443652.0,P18,D05,1,1,1
1224,29.0,17.0,52.0,1645443652.03125,P18,D05,1,1,1
1225,29.0,17.0,52.0,1645443652.0625,P18,D05,1,1,1
1226,29.0,17.0,52.0,1645443652.09375,P18,D05,1,1,1
1227,28.0,17.0,52.0,1645443652.125,P18,D05,1,1,1
1228,29.0,17.0,52.0,1645443652.15625,P18,D05,1,1,1
1229,29.0,17.0,52.0,1645443652.1875,P18,D05,1,1,1
1230,28.0,17.0,52.0,1645443652.21875,P18,D05,1,1,1
1231,28.0,17.0,52.0,1645443652.25,P18,D05,1,1,1
1232,29.0,17.0,52.0,1645443652.28125,P18,D05,1,1,1
1233,29.0,17.0,52.0,1645443652.3125,P18,D05,1,1,1
1234,29.0,17.0,52.0,1645443652.34375,P18,D05,1,1,1
1235,28.0,17.0,52.0,1645443652.375,P18,D05,1,1,1
1236,29.0,17.0,52.0,1645443652.40625,P18,D05,1,1,1
1237,29.0,17.0,52.0,1645443652.4375,P18,D05,1,1,1
1238,29.0,17.0,52.0,1645443652.46875,P18,D05,1,1,1
1239,29.0,17.0,52.0,1645443652.5,P18,D05,1,1,1
1240,29.0,17.0,52.0,1645443652.53125,P18,D05,1,1,1
1241,29.0,17.0,52.0,1645443652.5625,P18,D05,1,1,1
1242,29.0,18.0,52.0,1645443652.59375,P18,D05,1,1,1
1243,29.0,17.0,52.0,1645443652.625,P18,D05,1,1,1
1244,29.0,17.0,52.0,1645443652.65625,P18,D05,1,1,1
1245,28.0,17.0,52.0,1645443652.6875,P18,D05,1,1,1
1246,28.0,17.0,52.0,1645443652.71875,P18,D05,1,1,1
1247,29.0,17.0,52.0,1645443652.75,P18,D05,1,1,1
1248,29.0,17.0,52.0,1645443652.78125,P18,D05,1,1,1
1249,29.0,17.0,52.0,1645443652.8125,P18,D05,1,1,1
1250,29.0,17.0,52.0,1645443652.84375,P18,D05,1,1,1
1251,29.0,17.0,52.0,1645443652.875,P18,D05,1,1,1
1252,29.0,17.0,52.0,1645443652.90625,P18,D05,1,1,1
1253,29.0,17.0,52.0,1645443652.9375,P18,D05,1,1,1
1254,29.0,17.0,52.0,1645443652.96875,P18,D05,1,1,1
1255,29.0,17.0,52.0,1645443653.0,P18,D05,1,1,1
1256,29.0,17.0,52.0,1645443653.03125,P18,D05,1,1,1
1257,28.0,17.0,52.0,1645443653.0625,P18,D05,1,1,1
1258,29.0,17.0,52.0,1645443653.09375,P18,D05,1,1,1
1259,29.0,17.0,52.0,1645443653.125,P18,D05,1,1,1
1260,29.0,17.0,52.0,1645443653.15625,P18,D05,1,1,1
1261,29.0,17.0,52.0,1645443653.1875,P18,D05,1,1,1
1262,29.0,17.0,52.0,1645443653.21875,P18,D05,1,1,1
1263,29.0,17.0,52.0,1645443653.25,P18,D05,1,1,1
1264,28.0,17.0,52.0,1645443653.28125,P18,D05,1,1,1
1265,29.0,17.0,52.0,1645443653.3125,P18,D05,1,1,1
1266,29.0,17.0,52.0,1645443653.34375,P18,D05,1,1,1
1267,29.0,17.0,52.0,1645443653.375,P18,D05,1,1,1
1268,29.0,17.0,52.0,1645443653.40625,P18,D05,1,1,1
1269,29.0,17.0,52.0,1645443653.4375,P18,D05,1,1,1
1270,29.0,17.0,52.0,1645443653.46875,P18,D05,1,1,1
1271,28.0,17.0,52.0,1645443653.5,P18,D05,1,1,1
1272,29.0,17.0,52.0,1645443653.53125,P18,D05,1,1,1
1273,28.0,17.0,52.0,1645443653.5625,P18,D05,1,1,1
1274,29.0,17.0,52.0,1645443653.59375,P18,D05,1,1,1
1275,29.0,17.0,52.0,1645443653.625,P18,D05,1,1,1
1276,28.0,17.0,52.0,1645443653.65625,P18,D05,1,1,1
1277,29.0,17.0,52.0,1645443653.6875,P18,D05,1,1,1
1278,29.0,17.0,52.0,1645443653.71875,P18,D05,1,1,1
1279,29.0,17.0,52.0,1645443653.75,P18,D05,1,1,1
1280,29.0,17.0,52.0,1645443653.78125,P18,D05,1,1,1
1281,29.0,17.0,52.0,1645443653.8125,P18,D05,1,1,1
1282,29.0,17.0,52.0,1645443653.84375,P18,D05,1,1,1
1283,28.0,17.0,52.0,1645443653.875,P18,D05,1,1,1
1284,29.0,17.0,52.0,1645443653.90625,P18,D05,1,1,1
1285,29.0,17.0,52.0,1645443653.9375,P18,D05,1,1,1
1286,29.0,17.0,52.0,1645443653.96875,P18,D05,1,1,1
1287,29.0,17.0,52.0,1645443654.0,P18,D05,1,1,1
1288,29.0,17.0,52.0,1645443654.03125,P18,D05,1,1,1
1289,29.0,17.0,52.0,1645443654.0625,P18,D05,1,1,1
1290,29.0,17.0,52.0,1645443654.09375,P18,D05,1,1,1
1291,29.0,17.0,52.0,1645443654.125,P18,D05,1,1,1
1292,29.0,17.0,52.0,1645443654.15625,P18,D05,1,1,1
1293,29.0,17.0,52.0,1645443654.1875,P18,D05,1,1,1
1294,29.0,17.0,52.0,1645443654.21875,P18,D05,1,1,1
1295,29.0,17.0,52.0,1645443654.25,P18,D05,1,1,1
1296,29.0,17.0,52.0,1645443654.28125,P18,D05,1,1,1
1297,29.0,17.0,52.0,1645443654.3125,P18,D05,1,1,1
1298,29.0,17.0,52.0,1645443654.34375,P18,D05,1,1,1
1299,29.0,17.0,52.0,1645443654.375,P18,D05,1,1,1
1300,29.0,17.0,52.0,1645443654.40625,P18,D05,1,1,1
1301,29.0,17.0,52.0,1645443654.4375,P18,D05,1,1,1
1302,29.0,17.0,52.0,1645443654.46875,P18,D05,1,1,1
1303,29.0,17.0,52.0,1645443654.5,P18,D05,1,1,1
1304,29.0,17.0,52.0,1645443654.53125,P18,D05,1,1,1
1305,29.0,17.0,52.0,1645443654.5625,P18,D05,1,1,1
1306,29.0,17.0,52.0,1645443654.59375,P18,D05,1,1,1
1307,29.0,17.0,52.0,1645443654.625,P18,D05,1,1,1
1308,29.0,17.0,52.0,1645443654.65625,P18,D05,1,1,1
1309,29.0,17.0,52.0,1645443654.6875,P18,D05,1,1,1
1310,29.0,17.0,52.0,1645443654.71875,P18,D05,1,1,1
1311,29.0,17.0,52.0,1645443654.75,P18,D05,1,1,1
1312,29.0,17.0,52.0,1645443654.78125,P18,D05,1,1,1
1313,29.0,17.0,52.0,1645443654.8125,P18,D05,1,1,1
1314,29.0,17.0,52.0,1645443654.84375,P18,D05,1,1,1
1315,29.0,17.0,52.0,1645443654.875,P18,D05,1,1,1
1316,29.0,17.0,52.0,1645443654.90625,P18,D05,1,1,1
1317,29.0,17.0,52.0,1645443654.9375,P18,D05,1,1,1
1318,29.0,17.0,52.0,1645443654.96875,P18,D05,1,1,1
1319,29.0,17.0,52.0,1645443655.0,P18,D05,1,1,1
1320,29.0,17.0,52.0,1645443655.03125,P18,D05,1,1,1
1321,29.0,17.0,52.0,1645443655.0625,P18,D05,1,1,1
1322,29.0,17.0,52.0,1645443655.09375,P18,D05,1,1,1
1323,29.0,17.0,52.0,1645443655.125,P18,D05,1,1,1
1324,29.0,17.0,52.0,1645443655.15625,P18,D05,1,1,1
1325,29.0,17.0,52.0,1645443655.1875,P18,D05,1,1,1
1326,29.0,17.0,52.0,1645443655.21875,P18,D05,1,1,1
1327,29.0,17.0,52.0,1645443655.25,P18,D05,1,1,1
1328,29.0,17.0,52.0,1645443655.28125,P18,D05,1,1,1
1329,29.0,17.0,52.0,1645443655.3125,P18,D05,1,1,1
1330,29.0,17.0,52.0,1645443655.34375,P18,D05,1,1,1
1331,29.0,17.0,52.0,1645443655.375,P18,D05,1,1,1
1332,29.0,17.0,52.0,1645443655.40625,P18,D05,1,1,1
1333,28.0,17.0,52.0,1645443655.4375,P18,D05,1,1,1
1334,29.0,17.0,52.0,1645443655.46875,P18,D05,1,1,1
1335,29.0,17.0,52.0,1645443655.5,P18,D05,1,1,1
1336,29.0,17.0,52.0,1645443655.53125,P18,D05,1,1,1
1337,29.0,17.0,52.0,1645443655.5625,P18,D05,1,1,1
1338,29.0,17.0,52.0,1645443655.59375,P18,D05,1,1,1
1339,29.0,17.0,53.0,1645443655.625,P18,D05,1,1,1
1340,29.0,17.0,52.0,1645443655.65625,P18,D05,1,1,1
1341,29.0,17.0,52.0,1645443655.6875,P18,D05,1,1,1
1342,29.0,17.0,52.0,1645443655.71875,P18,D05,1,1,1
1343,29.0,17.0,52.0,1645443655.75,P18,D05,1,1,1
1344,29.0,17.0,52.0,1645443655.78125,P18,D05,1,1,1
1345,29.0,17.0,52.0,1645443655.8125,P18,D05,1,1,1
1346,29.0,17.0,52.0,1645443655.84375,P18,D05,1,1,1
1347,29.0,17.0,52.0,1645443655.875,P18,D05,1,1,1
1348,29.0,17.0,52.0,1645443655.90625,P18,D05,1,1,1
1349,29.0,17.0,53.0,1645443655.9375,P18,D05,1,1,1
1350,29.0,17.0,52.0,1645443655.96875,P18,D05,1,1,1
1351,29.0,17.0,52.0,1645443656.0,P18,D05,1,1,1
1352,29.0,17.0,52.0,1645443656.03125,P18,D05,1,1,1
1353,29.0,17.0,52.0,1645443656.0625,P18,D05,1,1,1
1354,29.0,17.0,52.0,1645443656.09375,P18,D05,1,1,1
1355,29.0,17.0,52.0,1645443656.125,P18,D05,1,1,1
1356,29.0,17.0,52.0,1645443656.15625,P18,D05,1,1,1
1357,29.0,17.0,52.0,1645443656.1875,P18,D05,1,1,1
1358,29.0,17.0,52.0,1645443656.21875,P18,D05,1,1,1
1359,29.0,17.0,52.0,1645443656.25,P18,D05,1,1,1
1360,29.0,17.0,53.0,1645443656.28125,P18,D05,1,1,1
1361,29.0,17.0,52.0,1645443656.3125,P18,D05,1,1,1
1362,28.0,17.0,52.0,1645443656.34375,P18,D05,1,1,1
1363,29.0,17.0,52.0,1645443656.375,P18,D05,1,1,1
1364,29.0,17.0,52.0,1645443656.40625,P18,D05,1,1,1
1365,29.0,17.0,52.0,1645443656.4375,P18,D05,1,1,1
1366,29.0,17.0,52.0,1645443656.46875,P18,D05,1,1,1
1367,29.0,17.0,52.0,1645443656.5,P18,D05,1,1,1
1368,29.0,17.0,52.0,1645443656.53125,P18,D05,1,1,1
1369,29.0,17.0,52.0,1645443656.5625,P18,D05,1,1,1
1370,29.0,17.0,52.0,1645443656.59375,P18,D05,1,1,1
1371,29.0,17.0,52.0,1645443656.625,P18,D05,1,1,1
1372,30.0,17.0,53.0,1645443656.65625,P18,D05,1,1,1
1373,30.0,17.0,53.0,1645443656.6875,P18,D05,1,1,1
1374,29.0,17.0,52.0,1645443656.71875,P18,D05,1,1,1
1375,29.0,17.0,52.0,1645443656.75,P18,D05,1,1,1
1376,29.0,17.0,52.0,1645443656.78125,P18,D05,1,1,1
1377,29.0,17.0,52.0,1645443656.8125,P18,D05,1,1,1
1378,29.0,17.0,52.0,1645443656.84375,P18,D05,1,1,1
1379,28.0,17.0,51.0,1645443656.875,P18,D05,1,1,1
1380,29.0,17.0,51.0,1645443656.90625,P18,D05,1,1,1
1381,30.0,17.0,53.0,1645443656.9375,P18,D05,1,1,1
1382,29.0,17.0,53.0,1645443656.96875,P18,D05,1,1,1
1383,29.0,17.0,52.0,1645443657.0,P18,D05,1,1,1
1384,29.0,17.0,52.0,1645443657.03125,P18,D05,1,1,1
1385,29.0,17.0,52.0,1645443657.0625,P18,D05,1,1,1
1386,30.0,17.0,52.0,1645443657.09375,P18,D05,1,1,1
1387,29.0,17.0,52.0,1645443657.125,P18,D05,1,1,1
1388,29.0,17.0,52.0,1645443657.15625,P18,D05,1,1,1
1389,29.0,17.0,52.0,1645443657.1875,P18,D05,1,1,1
1390,30.0,17.0,53.0,1645443657.21875,P18,D05,1,1,1
1391,30.0,17.0,52.0,1645443657.25,P18,D05,1,1,1
1392,28.0,17.0,51.0,1645443657.28125,P18,D05,1,1,1
1393,28.0,17.0,51.0,1645443657.3125,P18,D05,1,1,1
1394,28.0,17.0,52.0,1645443657.34375,P18,D05,1,1,1
1395,28.0,17.0,52.0,1645443657.375,P18,D05,1,1,1
1396,29.0,17.0,52.0,1645443657.40625,P18,D05,1,1,1
1397,28.0,17.0,52.0,1645443657.4375,P18,D05,1,1,1
1398,29.0,17.0,53.0,1645443657.46875,P18,D05,1,1,1
1399,29.0,16.0,53.0,1645443657.5,P18,D05,1,1,1
1400,29.0,16.0,53.0,1645443657.53125,P18,D05,1,1,1
1401,29.0,17.0,52.0,1645443657.5625,P18,D05,1,1,1
1402,28.0,17.0,51.0,1645443657.59375,P18,D05,1,1,1
1403,27.0,18.0,50.0,1645443657.625,P18,D05,1,1,1
1404,27.0,17.0,51.0,1645443657.65625,P18,D05,1,1,1
1405,28.0,16.0,53.0,1645443657.6875,P18,D05,1,1,1
1406,30.0,16.0,54.0,1645443657.71875,P18,D05,1,1,1
1407,31.0,16.0,54.0,1645443657.75,P18,D05,1,1,1
1408,30.0,16.0,52.0,1645443657.78125,P18,D05,1,1,1
1409,29.0,16.0,53.0,1645443657.8125,P18,D05,1,1,1
1410,29.0,16.0,52.0,1645443657.84375,P18,D05,1,1,1
1411,28.0,17.0,52.0,1645443657.875,P18,D05,1,1,1
1412,29.0,17.0,52.0,1645443657.90625,P18,D05,1,1,1
1413,29.0,17.0,52.0,1645443657.9375,P18,D05,1,1,1
1414,28.0,17.0,52.0,1645443657.96875,P18,D05,1,1,1
1415,28.0,17.0,52.0,1645443658.0,P18,D05,1,1,1
1416,28.0,17.0,52.0,1645443658.03125,P18,D05,1,1,1
1417,28.0,17.0,52.0,1645443658.0625,P18,D05,1,1,1
1418,29.0,17.0,52.0,1645443658.09375,P18,D05,1,1,1
1419,28.0,17.0,52.0,1645443658.125,P18,D05,1,1,1
1420,28.0,17.0,52.0,1645443658.15625,P18,D05,1,1,1
1421,28.0,17.0,52.0,1645443658.1875,P18,D05,1,1,1
1422,28.0,17.0,53.0,1645443658.21875,P18,D05,1,1,1
1423,29.0,17.0,53.0,1645443658.25,P18,D05,1,1,1
1424,28.0,17.0,52.0,1645443658.28125,P18,D05,1,1,1
1425,28.0,17.0,52.0,1645443658.3125,P18,D05,1,1,1
1426,28.0,17.0,52.0,1645443658.34375,P18,D05,1,1,1
1427,29.0,17.0,53.0,1645443658.375,P18,D05,1,1,1
1428,29.0,17.0,53.0,1645443658.40625,P18,D05,1,1,1
1429,29.0,17.0,52.0,1645443658.4375,P18,D05,1,1,1
1430,29.0,17.0,52.0,1645443658.46875,P18,D05,1,1,1
1431,29.0,17.0,53.0,1645443658.5,P18,D05,1,1,1
1432,29.0,17.0,53.0,1645443658.53125,P18,D05,1,1,1
1433,29.0,17.0,52.0,1645443658.5625,P18,D05,1,1,1
1434,29.0,17.0,52.0,1645443658.59375,P18,D05,1,1,1
1435,29.0,17.0,52.0,1645443658.625,P18,D05,1,1,1
1436,30.0,17.0,53.0,1645443658.65625,P18,D05,1,1,1
1437,28.0,17.0,52.0,1645443658.6875,P18,D05,1,1,1
1438,28.0,17.0,52.0,1645443658.71875,P18,D05,1,1,1
1439,28.0,17.0,52.0,1645443658.75,P18,D05,1,1,1
1440,29.0,17.0,52.0,1645443658.78125,P18,D05,1,1,1
1441,29.0,17.0,53.0,1645443658.8125,P18,D05,1,1,1
1442,29.0,16.0,53.0,1645443658.84375,P18,D05,1,1,1
1443,29.0,17.0,53.0,1645443658.875,P18,D05,1,1,1
1444,28.0,17.0,52.0,1645443658.90625,P18,D05,1,1,1
1445,28.0,17.0,52.0,1645443658.9375,P18,D05,1,1,1
1446,28.0,17.0,52.0,1645443658.96875,P18,D05,1,1,1
1447,28.0,17.0,52.0,1645443659.0,P18,D05,1,1,1
1448,29.0,17.0,52.0,1645443659.03125,P18,D05,1,1,1
1449,28.0,17.0,52.0,1645443659.0625,P18,D05,1,1,1
1450,29.0,17.0,52.0,1645443659.09375,P18,D05,1,1,1
1451,28.0,17.0,52.0,1645443659.125,P18,D05,1,1,1
1452,28.0,17.0,52.0,1645443659.15625,P18,D05,1,1,1
1453,28.0,17.0,52.0,1645443659.1875,P18,D05,1,1,1
1454,29.0,17.0,53.0,1645443659.21875,P18,D05,1,1,1
1455,29.0,17.0,52.0,1645443659.25,P18,D05,1,1,1
1456,28.0,17.0,52.0,1645443659.28125,P18,D05,1,1,1
1457,28.0,17.0,52.0,1645443659.3125,P18,D05,1,1,1
1458,29.0,17.0,52.0,1645443659.34375,P18,D05,1,1,1
1459,29.0,17.0,52.0,1645443659.375,P18,D05,1,1,1
1460,28.0,17.0,52.0,1645443659.40625,P18,D05,1,1,1
1461,28.0,17.0,52.0,1645443659.4375,P18,D05,1,1,1
1462,28.0,17.0,52.0,1645443659.46875,P18,D05,1,1,1
1463,28.0,17.0,52.0,1645443659.5,P18,D05,1,1,1
1464,28.0,17.0,52.0,1645443659.53125,P18,D05,1,1,1
1465,29.0,17.0,52.0,1645443659.5625,P18,D05,1,1,1
1466,28.0,17.0,52.0,1645443659.59375,P18,D05,1,1,1
1467,29.0,17.0,52.0,1645443659.625,P18,D05,1,1,1
1468,28.0,17.0,52.0,1645443659.65625,P18,D05,1,1,1
1469,29.0,17.0,52.0,1645443659.6875,P18,D05,1,1,1
1470,29.0,17.0,52.0,1645443659.71875,P18,D05,1,1,1
1471,28.0,17.0,52.0,1645443659.75,P18,D05,1,1,1
1472,29.0,17.0,52.0,1645443659.78125,P18,D05,1,1,1
1473,29.0,17.0,52.0,1645443659.8125,P18,D05,1,1,1
1474,28.0,17.0,53.0,1645443659.84375,P18,D05,1,1,1
1475,29.0,17.0,52.0,1645443659.875,P18,D05,1,1,1
1476,29.0,17.0,53.0,1645443659.90625,P18,D05,1,1,1
1477,28.0,17.0,52.0,1645443659.9375,P18,D05,1,1,1
1478,28.0,17.0,52.0,1645443659.96875,P18,D05,1,1,1
1479,28.0,17.0,52.0,1645443660.0,P18,D05,1,1,1
1480,28.0,17.0,52.0,1645443660.03125,P18,D05,1,1,1
1481,28.0,17.0,52.0,1645443660.0625,P18,D05,1,1,1
1482,28.0,17.0,52.0,1645443660.09375,P18,D05,1,1,1
1483,28.0,17.0,52.0,1645443660.125,P18,D05,1,1,1
1484,29.0,17.0,52.0,1645443660.15625,P18,D05,1,1,1
1485,29.0,17.0,52.0,1645443660.1875,P18,D05,1,1,1
1486,29.0,17.0,53.0,1645443660.21875,P18,D05,1,1,1
1487,28.0,17.0,52.0,1645443660.25,P18,D05,1,1,1
1488,28.0,17.0,52.0,1645443660.28125,P18,D05,1,1,1
1489,28.0,17.0,53.0,1645443660.3125,P18,D05,1,1,1
1490,28.0,17.0,52.0,1645443660.34375,P18,D05,1,1,1
1491,28.0,17.0,52.0,1645443660.375,P18,D05,1,1,1
1492,28.0,17.0,52.0,1645443660.40625,P18,D05,1,1,1
1493,28.0,17.0,52.0,1645443660.4375,P18,D05,1,1,1
1494,28.0,17.0,53.0,1645443660.46875,P18,D05,1,1,1
1495,28.0,17.0,52.0,1645443660.5,P18,D05,1,1,1
1496,28.0,17.0,53.0,1645443660.53125,P18,D05,1,1,1
1497,28.0,17.0,52.0,1645443660.5625,P18,D05,1,1,1
1498,29.0,17.0,53.0,1645443660.59375,P18,D05,1,1,1
1499,29.0,17.0,53.0,1645443660.625,P18,D05,1,1,1
1500,28.0,17.0,52.0,1645443660.65625,P18,D05,1,1,1
1501,29.0,17.0,52.0,1645443660.6875,P18,D05,1,1,1
1502,28.0,17.0,52.0,1645443660.71875,P18,D05,1,1,1
1503,28.0,17.0,52.0,1645443660.75,P18,D05,1,1,1
1504,28.0,17.0,52.0,1645443660.78125,P18,D05,1,1,1
1505,28.0,17.0,52.0,1645443660.8125,P18,D05,1,1,1
1506,28.0,17.0,52.0,1645443660.84375,P18,D05,1,1,1
1507,29.0,17.0,53.0,1645443660.875,P18,D05,1,1,1
1508,28.0,17.0,53.0,1645443660.90625,P18,D05,1,1,1
1509,28.0,17.0,53.0,1645443660.9375,P18,D05,1,1,1
1510,28.0,17.0,52.0,1645443660.96875,P18,D05,1,1,1
1511,28.0,17.0,52.0,1645443661.0,P18,D05,1,1,1
1512,29.0,17.0,52.0,1645443661.03125,P18,D05,1,1,1
1513,28.0,17.0,53.0,1645443661.0625,P18,D05,1,1,1
1514,28.0,17.0,52.0,1645443661.09375,P18,D05,1,1,1
1515,28.0,17.0,52.0,1645443661.125,P18,D05,1,1,1
1516,28.0,17.0,53.0,1645443661.15625,P18,D05,1,1,1
1517,28.0,17.0,53.0,1645443661.1875,P18,D05,1,1,1
1518,29.0,17.0,53.0,1645443661.21875,P18,D05,1,1,1
1519,28.0,17.0,52.0,1645443661.25,P18,D05,1,1,1
1520,28.0,17.0,53.0,1645443661.28125,P18,D05,1,1,1
1521,29.0,17.0,52.0,1645443661.3125,P18,D05,1,1,1
1522,29.0,17.0,52.0,1645443661.34375,P18,D05,1,1,1
1523,28.0,17.0,52.0,1645443661.375,P18,D05,1,1,1
1524,28.0,17.0,52.0,1645443661.40625,P18,D05,1,1,1
1525,28.0,17.0,53.0,1645443661.4375,P18,D05,1,1,1
1526,28.0,17.0,53.0,1645443661.46875,P18,D05,1,1,1
1527,28.0,17.0,52.0,1645443661.5,P18,D05,1,1,1
1528,28.0,17.0,52.0,1645443661.53125,P18,D05,1,1,1
1529,29.0,17.0,53.0,1645443661.5625,P18,D05,1,1,1
1530,28.0,17.0,53.0,1645443661.59375,P18,D05,1,1,1
1531,29.0,17.0,53.0,1645443661.625,P18,D05,1,1,1
1532,28.0,17.0,53.0,1645443661.65625,P18,D05,1,1,1
1533,28.0,17.0,52.0,1645443661.6875,P18,D05,1,1,1
1534,28.0,17.0,52.0,1645443661.71875,P18,D05,1,1,1
1535,28.0,17.0,52.0,1645443661.75,P18,D05,1,1,1
1536,28.0,17.0,52.0,1645443661.78125,P18,D05,1,1,1
1537,28.0,17.0,52.0,1645443661.8125,P18,D05,1,1,1
1538,28.0,17.0,52.0,1645443661.84375,P18,D05,1,1,1
1539,28.0,17.0,52.0,1645443661.875,P18,D05,1,1,1
1540,28.0,17.0,53.0,1645443661.90625,P18,D05,1,1,1
1541,29.0,17.0,53.0,1645443661.9375,P18,D05,1,1,1
1542,29.0,17.0,52.0,1645443661.96875,P18,D05,1,1,1
1543,28.0,17.0,53.0,1645443662.0,P18,D05,1,1,1
1544,28.0,17.0,53.0,1645443662.03125,P18,D05,1,1,1
1545,28.0,17.0,52.0,1645443662.0625,P18,D05,1,1,1
1546,28.0,17.0,52.0,1645443662.09375,P18,D05,1,1,1
1547,29.0,17.0,52.0,1645443662.125,P18,D05,1,1,1
1548,28.0,17.0,52.0,1645443662.15625,P18,D05,1,1,1
1549,28.0,17.0,52.0,1645443662.1875,P18,D05,1,1,1
1550,28.0,17.0,52.0,1645443662.21875,P18,D05,1,1,1
1551,28.0,17.0,52.0,1645443662.25,P18,D05,1,1,1
1552,29.0,17.0,53.0,1645443662.28125,P18,D05,1,1,1
1553,29.0,17.0,53.0,1645443662.3125,P18,D05,1,1,1
1554,28.0,17.0,53.0,1645443662.34375,P18,D05,1,1,1
1555,28.0,17.0,52.0,1645443662.375,P18,D05,1,1,1
1556,28.0,17.0,52.0,1645443662.40625,P18,D05,1,1,1
1557,28.0,17.0,52.0,1645443662.4375,P18,D05,1,1,1
1558,28.0,17.0,53.0,1645443662.46875,P18,D05,1,1,1
1559,28.0,17.0,52.0,1645443662.5,P18,D05,1,1,1
1560,28.0,17.0,52.0,1645443662.53125,P18,D05,1,1,1
1561,28.0,17.0,52.0,1645443662.5625,P18,D05,1,1,1
1562,28.0,17.0,52.0,1645443662.59375,P18,D05,1,1,1
1563,29.0,17.0,52.0,1645443662.625,P18,D05,1,1,1
1564,29.0,17.0,53.0,1645443662.65625,P18,D05,1,1,1
1565,29.0,17.0,52.0,1645443662.6875,P18,D05,1,1,1
1566,28.0,17.0,52.0,1645443662.71875,P18,D05,1,1,1
1567,28.0,17.0,52.0,1645443662.75,P18,D05,1,1,1
1568,28.0,17.0,52.0,1645443662.78125,P18,D05,1,1,1
1569,28.0,17.0,52.0,1645443662.8125,P18,D05,1,1,1
1570,28.0,17.0,52.0,1645443662.84375,P18,D05,1,1,1
1571,28.0,17.0,52.0,1645443662.875,P18,D05,1,1,1
1572,29.0,17.0,53.0,1645443662.90625,P18,D05,1,1,1
1573,28.0,17.0,52.0,1645443662.9375,P18,D05,1,1,1
1574,28.0,17.0,53.0,1645443662.96875,P18,D05,1,1,1
1575,28.0,17.0,52.0,1645443663.0,P18,D05,1,1,1
1576,28.0,17.0,52.0,1645443663.03125,P18,D05,1,1,1
1577,29.0,17.0,53.0,1645443663.0625,P18,D05,1,1,1
1578,28.0,17.0,53.0,1645443663.09375,P18,D05,1,1,1
1579,28.0,17.0,52.0,1645443663.125,P18,D05,1,1,1
1580,28.0,17.0,52.0,1645443663.15625,P18,D05,1,1,1
1581,28.0,17.0,52.0,1645443663.1875,P18,D05,1,1,1
1582,28.0,17.0,52.0,1645443663.21875,P18,D05,1,1,1
1583,28.0,17.0,52.0,1645443663.25,P18,D05,1,1,1
1584,28.0,17.0,53.0,1645443663.28125,P18,D05,1,1,1
1585,28.0,17.0,53.0,1645443663.3125,P18,D05,1,1,1
1586,29.0,17.0,52.0,1645443663.34375,P18,D05,1,1,1
1587,28.0,17.0,52.0,1645443663.375,P18,D05,1,1,1
1588,28.0,17.0,52.0,1645443663.40625,P18,D05,1,1,1
1589,28.0,17.0,53.0,1645443663.4375,P18,D05,1,1,1
1590,28.0,17.0,53.0,1645443663.46875,P18,D05,1,1,1
1591,28.0,17.0,52.0,1645443663.5,P18,D05,1,1,1
1592,28.0,17.0,52.0,1645443663.53125,P18,D05,1,1,1
1593,28.0,17.0,52.0,1645443663.5625,P18,D05,1,1,1
1594,28.0,17.0,53.0,1645443663.59375,P18,D05,1,1,1
1595,28.0,17.0,53.0,1645443663.625,P18,D05,1,1,1
1596,28.0,17.0,52.0,1645443663.65625,P18,D05,1,1,1
1597,28.0,17.0,52.0,1645443663.6875,P18,D05,1,1,1
1598,28.0,17.0,53.0,1645443663.71875,P18,D05,1,1,1
1599,28.0,17.0,52.0,1645443663.75,P18,D05,1,1,1
1600,28.0,17.0,52.0,1645443663.78125,P18,D05,1,1,1
1601,28.0,17.0,52.0,1645443663.8125,P18,D05,1,1,1
1602,28.0,17.0,53.0,1645443663.84375,P18,D05,1,1,1
1603,28.0,17.0,52.0,1645443663.875,P18,D05,1,1,1
1604,28.0,17.0,52.0,1645443663.90625,P18,D05,1,1,1
1605,28.0,17.0,52.0,1645443663.9375,P18,D05,1,1,1
1606,28.0,17.0,53.0,1645443663.96875,P18,D05,1,1,1
1607,28.0,17.0,53.0,1645443664.0,P18,D05,1,1,1
1608,28.0,17.0,53.0,1645443664.03125,P18,D05,1,1,1
1609,28.0,17.0,53.0,1645443664.0625,P18,D05,1,1,1
1610,28.0,17.0,53.0,1645443664.09375,P18,D05,1,1,1
1611,28.0,17.0,53.0,1645443664.125,P18,D05,1,1,1
1612,28.0,17.0,53.0,1645443664.15625,P18,D05,1,1,1
1613,28.0,17.0,52.0,1645443664.1875,P18,D05,1,1,1
1614,28.0,17.0,52.0,1645443664.21875,P18,D05,1,1,1
1615,28.0,17.0,53.0,1645443664.25,P18,D05,1,1,1
1616,28.0,17.0,52.0,1645443664.28125,P18,D05,1,1,1
1617,28.0,17.0,52.0,1645443664.3125,P18,D05,1,1,1
1618,28.0,17.0,52.0,1645443664.34375,P18,D05,1,1,1
1619,28.0,17.0,52.0,1645443664.375,P18,D05,1,1,1
1620,28.0,17.0,53.0,1645443664.40625,P18,D05,1,1,1
1621,28.0,17.0,53.0,1645443664.4375,P18,D05,1,1,1
1622,28.0,17.0,52.0,1645443664.46875,P18,D05,1,1,1
1623,28.0,17.0,52.0,1645443664.5,P18,D05,1,1,1
1624,28.0,17.0,53.0,1645443664.53125,P18,D05,1,1,1
1625,28.0,17.0,52.0,1645443664.5625,P18,D05,1,1,1
1626,28.0,17.0,53.0,1645443664.59375,P18,D05,1,1,1
1627,28.0,17.0,52.0,1645443664.625,P18,D05,1,1,1
1628,28.0,17.0,53.0,1645443664.65625,P18,D05,1,1,1
1629,28.0,17.0,52.0,1645443664.6875,P18,D05,1,1,1
1630,28.0,17.0,52.0,1645443664.71875,P18,D05,1,1,1
1631,28.0,17.0,53.0,1645443664.75,P18,D05,1,1,1
1632,28.0,17.0,52.0,1645443664.78125,P18,D05,1,1,1
1633,28.0,17.0,52.0,1645443664.8125,P18,D05,1,1,1
1634,28.0,17.0,53.0,1645443664.84375,P18,D05,1,1,1
1635,28.0,17.0,52.0,1645443664.875,P18,D05,1,1,1
1636,28.0,17.0,53.0,1645443664.90625,P18,D05,1,1,1
1637,28.0,17.0,52.0,1645443664.9375,P18,D05,1,1,1
1638,28.0,17.0,53.0,1645443664.96875,P18,D05,1,1,1
1639,28.0,17.0,53.0,1645443665.0,P18,D05,1,1,1
1640,28.0,17.0,53.0,1645443665.03125,P18,D05,1,1,1
1641,28.0,17.0,52.0,1645443665.0625,P18,D05,1,1,1
1642,28.0,17.0,52.0,1645443665.09375,P18,D05,1,1,1
1643,28.0,17.0,52.0,1645443665.125,P18,D05,1,1,1
1644,28.0,17.0,53.0,1645443665.15625,P18,D05,1,1,1
1645,28.0,17.0,52.0,1645443665.1875,P18,D05,1,1,1
1646,28.0,17.0,53.0,1645443665.21875,P18,D05,1,1,1
1647,28.0,17.0,53.0,1645443665.25,P18,D05,1,1,1
1648,28.0,17.0,53.0,1645443665.28125,P18,D05,1,1,1
1649,28.0,17.0,52.0,1645443665.3125,P18,D05,1,1,1
1650,28.0,17.0,53.0,1645443665.34375,P18,D05,1,1,1
1651,28.0,17.0,52.0,1645443665.375,P18,D05,1,1,1
1652,28.0,17.0,53.0,1645443665.40625,P18,D05,1,1,1
1653,28.0,17.0,52.0,1645443665.4375,P18,D05,1,1,1
1654,28.0,17.0,52.0,1645443665.46875,P18,D05,1,1,1
1655,28.0,17.0,53.0,1645443665.5,P18,D05,1,1,1
1656,28.0,17.0,53.0,1645443665.53125,P18,D05,1,1,1
1657,28.0,17.0,53.0,1645443665.5625,P18,D05,1,1,1
1658,28.0,17.0,53.0,1645443665.59375,P18,D05,1,1,1
1659,28.0,17.0,53.0,1645443665.625,P18,D05,1,1,1
1660,28.0,17.0,53.0,1645443665.65625,P18,D05,1,1,1
1661,28.0,17.0,52.0,1645443665.6875,P18,D05,1,1,1
1662,28.0,17.0,53.0,1645443665.71875,P18,D05,1,1,1
1663,28.0,17.0,52.0,1645443665.75,P18,D05,1,1,1
1664,28.0,17.0,53.0,1645443665.78125,P18,D05,1,1,1
1665,28.0,17.0,53.0,1645443665.8125,P18,D05,1,1,1
1666,28.0,17.0,52.0,1645443665.84375,P18,D05,1,1,1
1667,28.0,17.0,53.0,1645443665.875,P18,D05,1,1,1
1668,28.0,17.0,53.0,1645443665.90625,P18,D05,1,1,1
1669,28.0,17.0,53.0,1645443665.9375,P18,D05,1,1,1
1670,28.0,17.0,52.0,1645443665.96875,P18,D05,1,1,1
1671,28.0,17.0,52.0,1645443666.0,P18,D05,1,1,1
1672,28.0,17.0,53.0,1645443666.03125,P18,D05,1,1,1
1673,28.0,17.0,53.0,1645443666.0625,P18,D05,1,1,1
1674,28.0,17.0,53.0,1645443666.09375,P18,D05,1,1,1
1675,28.0,17.0,53.0,1645443666.125,P18,D05,1,1,1
1676,28.0,17.0,52.0,1645443666.15625,P18,D05,1,1,1
1677,28.0,17.0,53.0,1645443666.1875,P18,D05,1,1,1
1678,28.0,17.0,52.0,1645443666.21875,P18,D05,1,1,1
1679,28.0,17.0,52.0,1645443666.25,P18,D05,1,1,1
1680,28.0,17.0,52.0,1645443666.28125,P18,D05,1,1,1
1681,28.0,17.0,53.0,1645443666.3125,P18,D05,1,1,1
1682,28.0,17.0,52.0,1645443666.34375,P18,D05,1,1,1
1683,28.0,17.0,52.0,1645443666.375,P18,D05,1,1,1
1684,28.0,17.0,52.0,1645443666.40625,P18,D05,1,1,1
1685,28.0,17.0,52.0,1645443666.4375,P18,D05,1,1,1
1686,28.0,17.0,53.0,1645443666.46875,P18,D05,1,1,1
1687,29.0,17.0,53.0,1645443666.5,P18,D05,1,1,1
1688,28.0,17.0,52.0,1645443666.53125,P18,D05,1,1,1
1689,28.0,17.0,52.0,1645443666.5625,P18,D05,1,1,1
1690,28.0,17.0,52.0,1645443666.59375,P18,D05,1,1,1
1691,28.0,17.0,52.0,1645443666.625,P18,D05,1,1,1
1692,28.0,17.0,52.0,1645443666.65625,P18,D05,1,1,1
1693,29.0,17.0,52.0,1645443666.6875,P18,D05,1,1,1
1694,29.0,17.0,54.0,1645443666.71875,P18,D05,1,1,1
1695,29.0,16.0,54.0,1645443666.75,P18,D05,1,1,1
1696,28.0,17.0,53.0,1645443666.78125,P18,D05,1,1,1
1697,29.0,17.0,53.0,1645443666.8125,P18,D05,1,1,1
1698,31.0,18.0,53.0,1645443666.84375,P18,D05,1,1,1
1699,32.0,19.0,46.0,1645443666.875,P18,D05,1,1,1
1700,32.0,19.0,46.0,1645443666.90625,P18,D05,1,1,1
1701,34.0,18.0,54.0,1645443666.9375,P18,D05,1,1,1
1702,32.0,17.0,53.0,1645443666.96875,P18,D05,1,1,1
1703,30.0,16.0,52.0,1645443667.0,P18,D05,1,1,1
1704,28.0,13.0,55.0,1645443667.03125,P18,D05,1,1,1
1705,18.0,15.0,62.0,1645443667.0625,P18,D05,1,1,1
1706,10.0,13.0,60.0,1645443667.09375,P18,D05,1,1,1
1707,16.0,16.0,62.0,1645443667.125,P18,D05,1,1,1
1708,15.0,16.0,58.0,1645443667.15625,P18,D05,1,1,1
1709,20.0,18.0,55.0,1645443667.1875,P18,D05,1,1,1
1710,27.0,22.0,51.0,1645443667.21875,P18,D05,1,1,1
1711,26.0,22.0,51.0,1645443667.25,P18,D05,1,1,1
1712,27.0,23.0,48.0,1645443667.28125,P18,D05,1,1,1
1713,26.0,23.0,47.0,1645443667.3125,P18,D05,1,1,1
1714,26.0,20.0,51.0,1645443667.34375,P18,D05,1,1,1
1715,22.0,22.0,53.0,1645443667.375,P18,D05,1,1,1
1716,21.0,21.0,52.0,1645443667.40625,P18,D05,1,1,1
1717,22.0,20.0,55.0,1645443667.4375,P18,D05,1,1,1
1718,21.0,20.0,56.0,1645443667.46875,P18,D05,1,1,1
1719,21.0,20.0,55.0,1645443667.5,P18,D05,1,1,1
1720,21.0,20.0,55.0,1645443667.53125,P18,D05,1,1,1
1721,22.0,19.0,54.0,1645443667.5625,P18,D05,1,1,1
1722,22.0,20.0,53.0,1645443667.59375,P18,D05,1,1,1
1723,22.0,20.0,54.0,1645443667.625,P18,D05,1,1,1
1724,22.0,20.0,54.0,1645443667.65625,P18,D05,1,1,1
1725,23.0,19.0,55.0,1645443667.6875,P18,D05,1,1,1
1726,23.0,19.0,56.0,1645443667.71875,P18,D05,1,1,1
1727,22.0,19.0,56.0,1645443667.75,P18,D05,1,1,1
1728,21.0,18.0,56.0,1645443667.78125,P18,D05,1,1,1
1729,20.0,18.0,57.0,1645443667.8125,P18,D05,1,1,1
1730,18.0,19.0,56.0,1645443667.84375,P18,D05,1,1,1
1731,17.0,19.0,56.0,1645443667.875,P18,D05,1,1,1
1732,17.0,18.0,56.0,1645443667.90625,P18,D05,1,1,1
1733,17.0,18.0,57.0,1645443667.9375,P18,D05,1,1,1
1734,18.0,19.0,57.0,1645443667.96875,P18,D05,1,1,1
1735,19.0,19.0,57.0,1645443668.0,P18,D05,1,1,1
1736,18.0,19.0,55.0,1645443668.03125,P18,D05,1,1,1
1737,18.0,20.0,55.0,1645443668.0625,P18,D05,1,1,1
1738,19.0,20.0,54.0,1645443668.09375,P18,D05,1,1,1
1739,20.0,20.0,54.0,1645443668.125,P18,D05,1,1,1
1740,20.0,19.0,55.0,1645443668.15625,P18,D05,1,1,1
1741,21.0,19.0,55.0,1645443668.1875,P18,D05,1,1,1
1742,20.0,19.0,56.0,1645443668.21875,P18,D05,1,1,1
1743,19.0,18.0,56.0,1645443668.25,P18,D05,1,1,1
1744,18.0,18.0,56.0,1645443668.28125,P18,D05,1,1,1
1745,18.0,18.0,57.0,1645443668.3125,P18,D05,1,1,1
1746,18.0,18.0,57.0,1645443668.34375,P18,D05,1,1,1
1747,18.0,17.0,57.0,1645443668.375,P18,D05,1,1,1
1748,18.0,17.0,57.0,1645443668.40625,P18,D05,1,1,1
1749,18.0,17.0,58.0,1645443668.4375,P18,D05,1,1,1
1750,18.0,17.0,58.0,1645443668.46875,P18,D05,1,1,1
1751,18.0,17.0,57.0,1645443668.5,P18,D05,1,1,1
1752,18.0,17.0,57.0,1645443668.53125,P18,D05,1,1,1
1753,17.0,17.0,57.0,1645443668.5625,P18,D05,1,1,1
1754,17.0,17.0,57.0,1645443668.59375,P18,D05,1,1,1
1755,17.0,17.0,57.0,1645443668.625,P18,D05,1,1,1
1756,18.0,17.0,57.0,1645443668.65625,P18,D05,1,1,1
1757,18.0,17.0,57.0,1645443668.6875,P18,D05,1,1,1
1758,18.0,17.0,57.0,1645443668.71875,P18,D05,1,1,1
1759,18.0,17.0,57.0,1645443668.75,P18,D05,1,1,1
1760,17.0,17.0,57.0,1645443668.78125,P18,D05,1,1,1
1761,18.0,18.0,57.0,1645443668.8125,P18,D05,1,1,1
1762,18.0,17.0,57.0,1645443668.84375,P18,D05,1,1,1
1763,18.0,17.0,57.0,1645443668.875,P18,D05,1,1,1
1764,18.0,18.0,57.0,1645443668.90625,P18,D05,1,1,1
1765,18.0,18.0,56.0,1645443668.9375,P18,D05,1,1,1
1766,18.0,18.0,56.0,1645443668.96875,P18,D05,1,1,1
1767,18.0,18.0,56.0,1645443669.0,P18,D05,1,1,1
1768,18.0,18.0,57.0,1645443669.03125,P18,D05,1,1,1
1769,18.0,18.0,57.0,1645443669.0625,P18,D05,1,1,1
1770,18.0,17.0,57.0,1645443669.09375,P18,D05,1,1,1
1771,17.0,18.0,58.0,1645443669.125,P18,D05,1,1,1
1772,17.0,17.0,57.0,1645443669.15625,P18,D05,1,1,1
1773,17.0,17.0,57.0,1645443669.1875,P18,D05,1,1,1
1774,17.0,18.0,57.0,1645443669.21875,P18,D05,1,1,1
1775,18.0,18.0,57.0,1645443669.25,P18,D05,1,1,1
1776,18.0,18.0,57.0,1645443669.28125,P18,D05,1,1,1
1777,18.0,18.0,57.0,1645443669.3125,P18,D05,1,1,1
1778,18.0,18.0,57.0,1645443669.34375,P18,D05,1,1,1
1779,17.0,18.0,57.0,1645443669.375,P18,D05,1,1,1
1780,17.0,18.0,57.0,1645443669.40625,P18,D05,1,1,1
1781,17.0,17.0,57.0,1645443669.4375,P18,D05,1,1,1
1782,18.0,17.0,58.0,1645443669.46875,P18,D05,1,1,1
1783,18.0,17.0,58.0,1645443669.5,P18,D05,1,1,1
1784,17.0,17.0,57.0,1645443669.53125,P18,D05,1,1,1
1785,17.0,18.0,57.0,1645443669.5625,P18,D05,1,1,1
1786,16.0,18.0,57.0,1645443669.59375,P18,D05,1,1,1
1787,17.0,18.0,57.0,1645443669.625,P18,D05,1,1,1
1788,17.0,18.0,57.0,1645443669.65625,P18,D05,1,1,1
1789,19.0,18.0,57.0,1645443669.6875,P18,D05,1,1,1
1790,18.0,18.0,57.0,1645443669.71875,P18,D05,1,1,1
1791,19.0,19.0,55.0,1645443669.75,P18,D05,1,1,1
1792,17.0,19.0,54.0,1645443669.78125,P18,D05,1,1,1
1793,15.0,18.0,54.0,1645443669.8125,P18,D05,1,1,1
1794,16.0,19.0,55.0,1645443669.84375,P18,D05,1,1,1
1795,16.0,18.0,54.0,1645443669.875,P18,D05,1,1,1
1796,20.0,16.0,57.0,1645443669.90625,P18,D05,1,1,1
1797,23.0,17.0,59.0,1645443669.9375,P18,D05,1,1,1
1798,26.0,17.0,58.0,1645443669.96875,P18,D05,1,1,1
1799,25.0,16.0,57.0,1645443670.0,P18,D05,1,1,1
1800,25.0,17.0,55.0,1645443670.03125,P18,D05,1,1,1
1801,25.0,18.0,53.0,1645443670.0625,P18,D05,1,1,1
1802,27.0,18.0,53.0,1645443670.09375,P18,D05,1,1,1
1803,28.0,18.0,51.0,1645443670.125,P18,D05,1,1,1
1804,6.0,19.0,49.0,1645443670.15625,P18,D05,1,1,1
1805,19.0,14.0,53.0,1645443670.1875,P18,D05,1,1,1
1806,39.0,23.0,49.0,1645443670.21875,P18,D05,1,1,1
1807,36.0,20.0,43.0,1645443670.25,P18,D05,1,1,1
1808,38.0,20.0,46.0,1645443670.28125,P18,D05,1,1,1
1809,34.0,20.0,50.0,1645443670.3125,P18,D05,1,1,1
1810,28.0,18.0,52.0,1645443670.34375,P18,D05,1,1,1
1811,31.0,19.0,57.0,1645443670.375,P18,D05,1,1,1
1812,21.0,17.0,56.0,1645443670.40625,P18,D05,1,1,1
1813,18.0,18.0,53.0,1645443670.4375,P18,D05,1,1,1
1814,13.0,17.0,56.0,1645443670.46875,P18,D05,1,1,1
1815,10.0,16.0,57.0,1645443670.5,P18,D05,1,1,1
1816,9.0,16.0,57.0,1645443670.53125,P18,D05,1,1,1
1817,9.0,17.0,57.0,1645443670.5625,P18,D05,1,1,1
1818,8.0,16.0,60.0,1645443670.59375,P18,D05,1,1,1
1819,8.0,14.0,59.0,1645443670.625,P18,D05,1,1,1
1820,11.0,16.0,55.0,1645443670.65625,P18,D05,1,1,1
1821,23.0,17.0,58.0,1645443670.6875,P18,D05,1,1,1
1822,17.0,14.0,60.0,1645443670.71875,P18,D05,1,1,1
1823,17.0,15.0,60.0,1645443670.75,P18,D05,1,1,1
1824,16.0,16.0,56.0,1645443670.78125,P18,D05,1,1,1
1825,17.0,16.0,57.0,1645443670.8125,P18,D05,1,1,1
1826,17.0,16.0,58.0,1645443670.84375,P18,D05,1,1,1
1827,18.0,16.0,58.0,1645443670.875,P18,D05,1,1,1
1828,18.0,16.0,57.0,1645443670.90625,P18,D05,1,1,1
1829,19.0,15.0,58.0,1645443670.9375,P18,D05,1,1,1
1830,19.0,15.0,57.0,1645443670.96875,P18,D05,1,1,1
1831,19.0,15.0,58.0,1645443671.0,P18,D05,1,1,1
1832,19.0,15.0,58.0,1645443671.03125,P18,D05,1,1,1
1833,18.0,16.0,57.0,1645443671.0625,P18,D05,1,1,1
1834,18.0,16.0,57.0,1645443671.09375,P18,D05,1,1,1
1835,19.0,16.0,57.0,1645443671.125,P18,D05,1,1,1
1836,19.0,16.0,57.0,1645443671.15625,P18,D05,1,1,1
1837,19.0,15.0,57.0,1645443671.1875,P18,D05,1,1,1
1838,19.0,16.0,58.0,1645443671.21875,P18,D05,1,1,1
1839,20.0,16.0,56.0,1645443671.25,P18,D05,1,1,1
1840,21.0,16.0,56.0,1645443671.28125,P18,D05,1,1,1
1841,20.0,15.0,57.0,1645443671.3125,P18,D05,1,1,1
1842,20.0,16.0,57.0,1645443671.34375,P18,D05,1,1,1
1843,21.0,16.0,56.0,1645443671.375,P18,D05,1,1,1
1844,21.0,16.0,56.0,1645443671.40625,P18,D05,1,1,1
1845,20.0,16.0,55.0,1645443671.4375,P18,D05,1,1,1
1846,22.0,16.0,56.0,1645443671.46875,P18,D05,1,1,1
1847,24.0,15.0,57.0,1645443671.5,P18,D05,1,1,1
1848,23.0,16.0,56.0,1645443671.53125,P18,D05,1,1,1
1849,24.0,16.0,56.0,1645443671.5625,P18,D05,1,1,1
1850,25.0,16.0,58.0,1645443671.59375,P18,D05,1,1,1
1851,27.0,15.0,60.0,1645443671.625,P18,D05,1,1,1
1852,17.0,15.0,57.0,1645443671.65625,P18,D05,1,1,1
1853,17.0,15.0,56.0,1645443671.6875,P18,D05,1,1,1
1854,15.0,16.0,57.0,1645443671.71875,P18,D05,1,1,1
1855,15.0,16.0,57.0,1645443671.75,P18,D05,1,1,1
1856,15.0,16.0,57.0,1645443671.78125,P18,D05,1,1,1
1857,15.0,16.0,57.0,1645443671.8125,P18,D05,1,1,1
1858,15.0,16.0,57.0,1645443671.84375,P18,D05,1,1,1
1859,16.0,16.0,57.0,1645443671.875,P18,D05,1,1,1
1860,17.0,16.0,57.0,1645443671.90625,P18,D05,1,1,1
1861,18.0,15.0,58.0,1645443671.9375,P18,D05,1,1,1
1862,18.0,15.0,58.0,1645443671.96875,P18,D05,1,1,1
1863,20.0,15.0,57.0,1645443672.0,P18,D05,1,1,1
1864,21.0,15.0,58.0,1645443672.03125,P18,D05,1,1,1
1865,21.0,15.0,58.0,1645443672.0625,P18,D05,1,1,1
1866,20.0,15.0,58.0,1645443672.09375,P18,D05,1,1,1
1867,21.0,16.0,57.0,1645443672.125,P18,D05,1,1,1
1868,23.0,15.0,56.0,1645443672.15625,P18,D05,1,1,1
1869,22.0,15.0,57.0,1645443672.1875,P18,D05,1,1,1
1870,20.0,16.0,57.0,1645443672.21875,P18,D05,1,1,1
1871,20.0,16.0,56.0,1645443672.25,P18,D05,1,1,1
1872,20.0,16.0,55.0,1645443672.28125,P18,D05,1,1,1
1873,20.0,16.0,54.0,1645443672.3125,P18,D05,1,1,1
1874,19.0,16.0,53.0,1645443672.34375,P18,D05,1,1,1
1875,20.0,16.0,54.0,1645443672.375,P18,D05,1,1,1
1876,23.0,15.0,58.0,1645443672.40625,P18,D05,1,1,1
1877,21.0,15.0,57.0,1645443672.4375,P18,D05,1,1,1
1878,23.0,15.0,57.0,1645443672.46875,P18,D05,1,1,1
1879,24.0,15.0,58.0,1645443672.5,P18,D05,1,1,1
1880,24.0,15.0,58.0,1645443672.53125,P18,D05,1,1,1
1881,23.0,15.0,57.0,1645443672.5625,P18,D05,1,1,1
1882,21.0,15.0,56.0,1645443672.59375,P18,D05,1,1,1
1883,19.0,15.0,56.0,1645443672.625,P18,D05,1,1,1
1884,20.0,15.0,56.0,1645443672.65625,P18,D05,1,1,1
1885,21.0,15.0,57.0,1645443672.6875,P18,D05,1,1,1
1886,21.0,16.0,57.0,1645443672.71875,P18,D05,1,1,1
1887,20.0,15.0,56.0,1645443672.75,P18,D05,1,1,1
1888,20.0,16.0,56.0,1645443672.78125,P18,D05,1,1,1
1889,20.0,16.0,57.0,1645443672.8125,P18,D05,1,1,1
1890,20.0,16.0,57.0,1645443672.84375,P18,D05,1,1,1
1891,20.0,16.0,56.0,1645443672.875,P18,D05,1,1,1
1892,20.0,16.0,56.0,1645443672.90625,P18,D05,1,1,1
1893,20.0,16.0,57.0,1645443672.9375,P18,D05,1,1,1
1894,20.0,16.0,57.0,1645443672.96875,P18,D05,1,1,1
1895,20.0,16.0,57.0,1645443673.0,P18,D05,1,1,1
1896,20.0,15.0,57.0,1645443673.03125,P18,D05,1,1,1
1897,20.0,16.0,57.0,1645443673.0625,P18,D05,1,1,1
1898,20.0,16.0,56.0,1645443673.09375,P18,D05,1,1,1
1899,20.0,16.0,56.0,1645443673.125,P18,D05,1,1,1
1900,20.0,16.0,57.0,1645443673.15625,P18,D05,1,1,1
1901,20.0,16.0,57.0,1645443673.1875,P18,D05,1,1,1
1902,21.0,16.0,55.0,1645443673.21875,P18,D05,1,1,1
1903,21.0,16.0,57.0,1645443673.25,P18,D05,1,1,1
1904,21.0,16.0,57.0,1645443673.28125,P18,D05,1,1,1
1905,20.0,16.0,57.0,1645443673.3125,P18,D05,1,1,1
1906,19.0,16.0,57.0,1645443673.34375,P18,D05,1,1,1
1907,17.0,16.0,56.0,1645443673.375,P18,D05,1,1,1
1908,17.0,16.0,56.0,1645443673.40625,P18,D05,1,1,1
1909,19.0,16.0,57.0,1645443673.4375,P18,D05,1,1,1
1910,20.0,16.0,58.0,1645443673.46875,P18,D05,1,1,1
1911,20.0,15.0,58.0,1645443673.5,P18,D05,1,1,1
1912,18.0,16.0,56.0,1645443673.53125,P18,D05,1,1,1
1913,18.0,15.0,57.0,1645443673.5625,P18,D05,1,1,1
1914,18.0,15.0,57.0,1645443673.59375,P18,D05,1,1,1
1915,19.0,15.0,58.0,1645443673.625,P18,D05,1,1,1
1916,18.0,15.0,59.0,1645443673.65625,P18,D05,1,1,1
1917,18.0,15.0,59.0,1645443673.6875,P18,D05,1,1,1
1918,19.0,15.0,59.0,1645443673.71875,P18,D05,1,1,1
1919,19.0,15.0,59.0,1645443673.75,P18,D05,1,1,1
1920,18.0,15.0,57.0,1645443673.78125,P18,D05,1,1,1
1921,17.0,16.0,55.0,1645443673.8125,P18,D05,1,1,1
1922,17.0,16.0,57.0,1645443673.84375,P18,D05,1,1,1
1923,17.0,16.0,57.0,1645443673.875,P18,D05,1,1,1
1924,19.0,16.0,58.0,1645443673.90625,P18,D05,1,1,1
1925,19.0,16.0,58.0,1645443673.9375,P18,D05,1,1,1
1926,18.0,15.0,57.0,1645443673.96875,P18,D05,1,1,1
1927,17.0,15.0,58.0,1645443674.0,P18,D05,1,1,1
1928,16.0,15.0,58.0,1645443674.03125,P18,D05,1,1,1
1929,17.0,15.0,57.0,1645443674.0625,P18,D05,1,1,1
1930,17.0,15.0,58.0,1645443674.09375,P18,D05,1,1,1
1931,17.0,15.0,57.0,1645443674.125,P18,D05,1,1,1
1932,17.0,15.0,57.0,1645443674.15625,P18,D05,1,1,1
1933,17.0,15.0,57.0,1645443674.1875,P18,D05,1,1,1
1934,16.0,15.0,56.0,1645443674.21875,P18,D05,1,1,1
1935,22.0,15.0,57.0,1645443674.25,P18,D05,1,1,1
1936,22.0,14.0,58.0,1645443674.28125,P18,D05,1,1,1
1937,23.0,14.0,58.0,1645443674.3125,P18,D05,1,1,1
1938,21.0,14.0,57.0,1645443674.34375,P18,D05,1,1,1
1939,22.0,14.0,57.0,1645443674.375,P18,D05,1,1,1
1940,22.0,14.0,57.0,1645443674.40625,P18,D05,1,1,1
1941,22.0,14.0,57.0,1645443674.4375,P18,D05,1,1,1
1942,22.0,14.0,56.0,1645443674.46875,P18,D05,1,1,1
1943,22.0,14.0,56.0,1645443674.5,P18,D05,1,1,1
1944,22.0,14.0,57.0,1645443674.53125,P18,D05,1,1,1
1945,22.0,13.0,57.0,1645443674.5625,P18,D05,1,1,1
1946,22.0,14.0,57.0,1645443674.59375,P18,D05,1,1,1
1947,22.0,14.0,56.0,1645443674.625,P18,D05,1,1,1
1948,22.0,14.0,55.0,1645443674.65625,P18,D05,1,1,1
1949,22.0,13.0,55.0,1645443674.6875,P18,D05,1,1,1
1950,22.0,14.0,57.0,1645443674.71875,P18,D05,1,1,1
1951,23.0,13.0,57.0,1645443674.75,P18,D05,1,1,1
1952,24.0,13.0,56.0,1645443674.78125,P18,D05,1,1,1
1953,25.0,14.0,55.0,1645443674.8125,P18,D05,1,1,1
1954,25.0,14.0,55.0,1645443674.84375,P18,D05,1,1,1
1955,23.0,13.0,56.0,1645443674.875,P18,D05,1,1,1
1956,24.0,13.0,56.0,1645443674.90625,P18,D05,1,1,1
1957,24.0,13.0,57.0,1645443674.9375,P18,D05,1,1,1
1958,24.0,14.0,57.0,1645443674.96875,P18,D05,1,1,1
1959,23.0,13.0,56.0,1645443675.0,P18,D05,1,1,1
1960,23.0,13.0,56.0,1645443675.03125,P18,D05,1,1,1
1961,23.0,14.0,55.0,1645443675.0625,P18,D05,1,1,1
1962,22.0,15.0,54.0,1645443675.09375,P18,D05,1,1,1
1963,23.0,14.0,55.0,1645443675.125,P18,D05,1,1,1
1964,24.0,13.0,57.0,1645443675.15625,P18,D05,1,1,1
1965,25.0,14.0,56.0,1645443675.1875,P18,D05,1,1,1
1966,25.0,13.0,54.0,1645443675.21875,P18,D05,1,1,1
1967,24.0,12.0,53.0,1645443675.25,P18,D05,1,1,1
1968,25.0,17.0,56.0,1645443675.28125,P18,D05,1,1,1
1969,25.0,16.0,55.0,1645443675.3125,P18,D05,1,1,1
1970,24.0,13.0,55.0,1645443675.34375,P18,D05,1,1,1
1971,23.0,12.0,57.0,1645443675.375,P18,D05,1,1,1
1972,24.0,13.0,57.0,1645443675.40625,P18,D05,1,1,1
1973,23.0,14.0,55.0,1645443675.4375,P18,D05,1,1,1
1974,24.0,14.0,54.0,1645443675.46875,P18,D05,1,1,1
1975,25.0,14.0,55.0,1645443675.5,P18,D05,1,1,1
1976,25.0,14.0,55.0,1645443675.53125,P18,D05,1,1,1
1977,25.0,13.0,56.0,1645443675.5625,P18,D05,1,1,1
1978,25.0,13.0,56.0,1645443675.59375,P18,D05,1,1,1
1979,24.0,13.0,55.0,1645443675.625,P18,D05,1,1,1
1980,25.0,13.0,55.0,1645443675.65625,P18,D05,1,1,1
1981,24.0,14.0,55.0,1645443675.6875,P18,D05,1,1,1
1982,23.0,13.0,54.0,1645443675.71875,P18,D05,1,1,1
1983,24.0,13.0,55.0,1645443675.75,P18,D05,1,1,1
1984,24.0,14.0,55.0,1645443675.78125,P18,D05,1,1,1
1985,25.0,14.0,55.0,1645443675.8125,P18,D05,1,1,1
1986,26.0,13.0,56.0,1645443675.84375,P18,D05,1,1,1
1987,26.0,13.0,56.0,1645443675.875,P18,D05,1,1,1
1988,25.0,12.0,56.0,1645443675.90625,P18,D05,1,1,1
1989,26.0,12.0,56.0,1645443675.9375,P18,D05,1,1,1
1990,26.0,13.0,55.0,1645443675.96875,P18,D05,1,1,1
1991,25.0,14.0,55.0,1645443676.0,P18,D05,1,1,1
1992,24.0,14.0,55.0,1645443676.03125,P18,D05,1,1,1
1993,21.0,15.0,53.0,1645443676.0625,P18,D05,1,1,1
1994,22.0,14.0,54.0,1645443676.09375,P18,D05,1,1,1
1995,22.0,13.0,57.0,1645443676.125,P18,D05,1,1,1
1996,23.0,13.0,57.0,1645443676.15625,P18,D05,1,1,1
1997,23.0,13.0,56.0,1645443676.1875,P18,D05,1,1,1
1998,23.0,12.0,57.0,1645443676.21875,P18,D05,1,1,1
1999,26.0,13.0,56.0,1645443676.25,P18,D05,1,1,1
2000,25.0,13.0,56.0,1645443676.28125,P18,D05,1,1,1
2001,23.0,14.0,55.0,1645443676.3125,P18,D05,1,1,1
2002,22.0,15.0,54.0,1645443676.34375,P18,D05,1,1,1
2003,22.0,13.0,55.0,1645443676.375,P18,D05,1,1,1
2004,22.0,13.0,56.0,1645443676.40625,P18,D05,1,1,1
2005,24.0,13.0,57.0,1645443676.4375,P18,D05,1,1,1
2006,22.0,13.0,56.0,1645443676.46875,P18,D05,1,1,1
2007,23.0,14.0,55.0,1645443676.5,P18,D05,1,1,1
2008,25.0,12.0,56.0,1645443676.53125,P18,D05,1,1,1
2009,21.0,14.0,57.0,1645443676.5625,P18,D05,1,1,1
2010,23.0,12.0,56.0,1645443676.59375,P18,D05,1,1,1
2011,23.0,12.0,57.0,1645443676.625,P18,D05,1,1,1
2012,24.0,13.0,56.0,1645443676.65625,P18,D05,1,1,1
2013,23.0,13.0,55.0,1645443676.6875,P18,D05,1,1,1
2014,23.0,13.0,56.0,1645443676.71875,P18,D05,1,1,1
2015,24.0,13.0,55.0,1645443676.75,P18,D05,1,1,1
2016,24.0,13.0,55.0,1645443676.78125,P18,D05,1,1,1
2017,24.0,13.0,55.0,1645443676.8125,P18,D05,1,1,1
2018,24.0,13.0,55.0,1645443676.84375,P18,D05,1,1,1
2019,24.0,12.0,57.0,1645443676.875,P18,D05,1,1,1
2020,23.0,12.0,57.0,1645443676.90625,P18,D05,1,1,1
2021,24.0,12.0,55.0,1645443676.9375,P18,D05,1,1,1
2022,25.0,13.0,56.0,1645443676.96875,P18,D05,1,1,1
2023,26.0,12.0,58.0,1645443677.0,P18,D05,1,1,1
2024,24.0,11.0,57.0,1645443677.03125,P18,D05,1,1,1
2025,22.0,12.0,55.0,1645443677.0625,P18,D05,1,1,1
2026,22.0,13.0,55.0,1645443677.09375,P18,D05,1,1,1
2027,23.0,13.0,55.0,1645443677.125,P18,D05,1,1,1
2028,24.0,13.0,55.0,1645443677.15625,P18,D05,1,1,1
2029,25.0,12.0,57.0,1645443677.1875,P18,D05,1,1,1
2030,26.0,11.0,58.0,1645443677.21875,P18,D05,1,1,1
2031,26.0,12.0,57.0,1645443677.25,P18,D05,1,1,1
2032,25.0,12.0,58.0,1645443677.28125,P18,D05,1,1,1
2033,25.0,12.0,58.0,1645443677.3125,P18,D05,1,1,1
2034,24.0,13.0,55.0,1645443677.34375,P18,D05,1,1,1
2035,22.0,13.0,54.0,1645443677.375,P18,D05,1,1,1
2036,19.0,15.0,53.0,1645443677.40625,P18,D05,1,1,1
2037,21.0,15.0,54.0,1645443677.4375,P18,D05,1,1,1
2038,22.0,13.0,55.0,1645443677.46875,P18,D05,1,1,1
2039,24.0,13.0,57.0,1645443677.5,P18,D05,1,1,1
2040,24.0,13.0,57.0,1645443677.53125,P18,D05,1,1,1
2041,23.0,13.0,57.0,1645443677.5625,P18,D05,1,1,1
2042,23.0,13.0,56.0,1645443677.59375,P18,D05,1,1,1
2043,23.0,13.0,56.0,1645443677.625,P18,D05,1,1,1
2044,23.0,13.0,56.0,1645443677.65625,P18,D05,1,1,1
2045,22.0,14.0,55.0,1645443677.6875,P18,D05,1,1,1
2046,22.0,14.0,55.0,1645443677.71875,P18,D05,1,1,1
2047,22.0,13.0,56.0,1645443677.75,P18,D05,1,1,1
2048,22.0,13.0,57.0,1645443677.78125,P18,D05,1,1,1
2049,23.0,13.0,56.0,1645443677.8125,P18,D05,1,1,1
2050,24.0,13.0,56.0,1645443677.84375,P18,D05,1,1,1
2051,24.0,13.0,57.0,1645443677.875,P18,D05,1,1,1
2052,24.0,13.0,57.0,1645443677.90625,P18,D05,1,1,1
2053,24.0,13.0,57.0,1645443677.9375,P18,D05,1,1,1
2054,22.0,13.0,56.0,1645443677.96875,P18,D05,1,1,1
2055,22.0,13.0,56.0,1645443678.0,P18,D05,1,1,1
2056,23.0,14.0,55.0,1645443678.03125,P18,D05,1,1,1
2057,22.0,14.0,55.0,1645443678.0625,P18,D05,1,1,1
2058,23.0,14.0,55.0,1645443678.09375,P18,D05,1,1,1
2059,23.0,14.0,56.0,1645443678.125,P18,D05,1,1,1
2060,22.0,14.0,56.0,1645443678.15625,P18,D05,1,1,1
2061,23.0,13.0,56.0,1645443678.1875,P18,D05,1,1,1
2062,23.0,13.0,56.0,1645443678.21875,P18,D05,1,1,1
2063,23.0,14.0,57.0,1645443678.25,P18,D05,1,1,1
2064,24.0,13.0,57.0,1645443678.28125,P18,D05,1,1,1
2065,23.0,13.0,56.0,1645443678.3125,P18,D05,1,1,1
2066,23.0,14.0,56.0,1645443678.34375,P18,D05,1,1,1
2067,22.0,14.0,56.0,1645443678.375,P18,D05,1,1,1
2068,22.0,14.0,56.0,1645443678.40625,P18,D05,1,1,1
2069,23.0,14.0,56.0,1645443678.4375,P18,D05,1,1,1
2070,23.0,14.0,56.0,1645443678.46875,P18,D05,1,1,1
2071,22.0,14.0,56.0,1645443678.5,P18,D05,1,1,1
2072,22.0,13.0,56.0,1645443678.53125,P18,D05,1,1,1
2073,22.0,14.0,56.0,1645443678.5625,P18,D05,1,1,1
2074,22.0,14.0,56.0,1645443678.59375,P18,D05,1,1,1
2075,22.0,14.0,57.0,1645443678.625,P18,D05,1,1,1
2076,22.0,13.0,57.0,1645443678.65625,P18,D05,1,1,1
2077,22.0,13.0,57.0,1645443678.6875,P18,D05,1,1,1
2078,23.0,13.0,58.0,1645443678.71875,P18,D05,1,1,1
2079,22.0,13.0,58.0,1645443678.75,P18,D05,1,1,1
2080,20.0,13.0,57.0,1645443678.78125,P18,D05,1,1,1
2081,21.0,13.0,58.0,1645443678.8125,P18,D05,1,1,1
2082,20.0,13.0,56.0,1645443678.84375,P18,D05,1,1,1
2083,20.0,14.0,56.0,1645443678.875,P18,D05,1,1,1
2084,19.0,14.0,57.0,1645443678.90625,P18,D05,1,1,1
2085,19.0,13.0,57.0,1645443678.9375,P18,D05,1,1,1
2086,19.0,13.0,57.0,1645443678.96875,P18,D05,1,1,1
2087,20.0,14.0,58.0,1645443679.0,P18,D05,1,1,1
2088,20.0,14.0,57.0,1645443679.03125,P18,D05,1,1,1
2089,21.0,13.0,57.0,1645443679.0625,P18,D05,1,1,1
2090,21.0,13.0,57.0,1645443679.09375,P18,D05,1,1,1
2091,20.0,14.0,57.0,1645443679.125,P18,D05,1,1,1
2092,21.0,14.0,57.0,1645443679.15625,P18,D05,1,1,1
2093,21.0,13.0,57.0,1645443679.1875,P18,D05,1,1,1
2094,21.0,13.0,57.0,1645443679.21875,P18,D05,1,1,1
2095,20.0,14.0,57.0,1645443679.25,P18,D05,1,1,1
2096,20.0,14.0,57.0,1645443679.28125,P18,D05,1,1,1
2097,20.0,14.0,57.0,1645443679.3125,P18,D05,1,1,1
2098,21.0,13.0,57.0,1645443679.34375,P18,D05,1,1,1
2099,21.0,13.0,57.0,1645443679.375,P18,D05,1,1,1
2100,20.0,14.0,57.0,1645443679.40625,P18,D05,1,1,1
2101,21.0,13.0,57.0,1645443679.4375,P18,D05,1,1,1
2102,21.0,14.0,57.0,1645443679.46875,P18,D05,1,1,1
2103,20.0,13.0,57.0,1645443679.5,P18,D05,1,1,1
2104,20.0,13.0,57.0,1645443679.53125,P18,D05,1,1,1
2105,20.0,13.0,57.0,1645443679.5625,P18,D05,1,1,1
2106,20.0,14.0,57.0,1645443679.59375,P18,D05,1,1,1
2107,21.0,13.0,57.0,1645443679.625,P18,D05,1,1,1
2108,20.0,13.0,57.0,1645443679.65625,P18,D05,1,1,1
2109,21.0,13.0,57.0,1645443679.6875,P18,D05,1,1,1
2110,21.0,13.0,57.0,1645443679.71875,P18,D05,1,1,1
2111,21.0,14.0,57.0,1645443679.75,P18,D05,1,1,1
2112,21.0,14.0,57.0,1645443679.78125,P18,D05,1,1,1
2113,21.0,13.0,57.0,1645443679.8125,P18,D05,1,1,1
2114,21.0,14.0,57.0,1645443679.84375,P18,D05,1,1,1
2115,21.0,13.0,57.0,1645443679.875,P18,D05,1,1,1
2116,21.0,14.0,57.0,1645443679.90625,P18,D05,1,1,1
2117,21.0,13.0,57.0,1645443679.9375,P18,D05,1,1,1
2118,21.0,14.0,57.0,1645443679.96875,P18,D05,1,1,1
2119,21.0,13.0,57.0,1645443680.0,P18,D05,1,1,1
2120,21.0,13.0,57.0,1645443680.03125,P18,D05,1,1,1
2121,21.0,13.0,57.0,1645443680.0625,P18,D05,1,1,1
2122,20.0,13.0,57.0,1645443680.09375,P18,D05,1,1,1
2123,21.0,13.0,57.0,1645443680.125,P18,D05,1,1,1
2124,21.0,13.0,57.0,1645443680.15625,P18,D05,1,1,1
2125,21.0,13.0,57.0,1645443680.1875,P18,D05,1,1,1
2126,21.0,13.0,57.0,1645443680.21875,P18,D05,1,1,1
2127,21.0,13.0,57.0,1645443680.25,P18,D05,1,1,1
2128,21.0,13.0,57.0,1645443680.28125,P18,D05,1,1,1
2129,21.0,13.0,57.0,1645443680.3125,P18,D05,1,1,1
2130,21.0,13.0,57.0,1645443680.34375,P18,D05,1,1,1
2131,21.0,13.0,57.0,1645443680.375,P18,D05,1,1,1
2132,21.0,13.0,57.0,1645443680.40625,P18,D05,1,1,1
2133,21.0,13.0,57.0,1645443680.4375,P18,D05,1,1,1
2134,21.0,13.0,57.0,1645443680.46875,P18,D05,1,1,1
2135,21.0,13.0,57.0,1645443680.5,P18,D05,1,1,1
2136,21.0,13.0,57.0,1645443680.53125,P18,D05,1,1,1
2137,21.0,13.0,57.0,1645443680.5625,P18,D05,1,1,1
2138,21.0,13.0,57.0,1645443680.59375,P18,D05,1,1,1
2139,21.0,13.0,57.0,1645443680.625,P18,D05,1,1,1
2140,21.0,13.0,57.0,1645443680.65625,P18,D05,1,1,1
2141,21.0,13.0,57.0,1645443680.6875,P18,D05,1,1,1
2142,21.0,13.0,57.0,1645443680.71875,P18,D05,1,1,1
2143,21.0,13.0,57.0,1645443680.75,P18,D05,1,1,1
2144,21.0,13.0,57.0,1645443680.78125,P18,D05,1,1,1
2145,21.0,14.0,57.0,1645443680.8125,P18,D05,1,1,1
2146,21.0,13.0,57.0,1645443680.84375,P18,D05,1,1,1
2147,21.0,13.0,57.0,1645443680.875,P18,D05,1,1,1
2148,21.0,13.0,57.0,1645443680.90625,P18,D05,1,1,1
2149,21.0,14.0,57.0,1645443680.9375,P18,D05,1,1,1
2150,21.0,13.0,57.0,1645443680.96875,P18,D05,1,1,1
2151,21.0,13.0,57.0,1645443681.0,P18,D05,1,1,1
2152,21.0,13.0,57.0,1645443681.03125,P18,D05,1,1,1
2153,21.0,13.0,57.0,1645443681.0625,P18,D05,1,1,1
2154,21.0,13.0,57.0,1645443681.09375,P18,D05,1,1,1
2155,21.0,13.0,57.0,1645443681.125,P18,D05,1,1,1
2156,21.0,13.0,57.0,1645443681.15625,P18,D05,1,1,1
2157,21.0,13.0,57.0,1645443681.1875,P18,D05,1,1,1
2158,21.0,14.0,57.0,1645443681.21875,P18,D05,1,1,1
2159,21.0,13.0,57.0,1645443681.25,P18,D05,1,1,1
2160,21.0,14.0,57.0,1645443681.28125,P18,D05,1,1,1
2161,21.0,13.0,57.0,1645443681.3125,P18,D05,1,1,1
2162,21.0,14.0,57.0,1645443681.34375,P18,D05,1,1,1
2163,21.0,13.0,57.0,1645443681.375,P18,D05,1,1,1
2164,21.0,14.0,57.0,1645443681.40625,P18,D05,1,1,1
2165,21.0,13.0,57.0,1645443681.4375,P18,D05,1,1,1
2166,21.0,13.0,57.0,1645443681.46875,P18,D05,1,1,1
2167,21.0,13.0,57.0,1645443681.5,P18,D05,1,1,1
2168,21.0,14.0,57.0,1645443681.53125,P18,D05,1,1,1
2169,21.0,13.0,57.0,1645443681.5625,P18,D05,1,1,1
2170,21.0,14.0,57.0,1645443681.59375,P18,D05,1,1,1
2171,21.0,13.0,57.0,1645443681.625,P18,D05,1,1,1
2172,21.0,13.0,57.0,1645443681.65625,P18,D05,1,1,1
2173,21.0,13.0,57.0,1645443681.6875,P18,D05,1,1,1
2174,21.0,13.0,57.0,1645443681.71875,P18,D05,1,1,1
2175,21.0,14.0,57.0,1645443681.75,P18,D05,1,1,1
2176,21.0,13.0,57.0,1645443681.78125,P18,D05,1,1,1
2177,21.0,14.0,57.0,1645443681.8125,P18,D05,1,1,1
2178,21.0,14.0,57.0,1645443681.84375,P18,D05,1,1,1
2179,21.0,13.0,57.0,1645443681.875,P18,D05,1,1,1
2180,21.0,13.0,56.0,1645443681.90625,P18,D05,1,1,1
2181,21.0,13.0,57.0,1645443681.9375,P18,D05,1,1,1
2182,21.0,14.0,57.0,1645443681.96875,P18,D05,1,1,1
2183,21.0,13.0,57.0,1645443682.0,P18,D05,1,1,1
2184,21.0,13.0,57.0,1645443682.03125,P18,D05,1,1,1
2185,21.0,14.0,57.0,1645443682.0625,P18,D05,1,1,1
2186,21.0,13.0,57.0,1645443682.09375,P18,D05,1,1,1
2187,21.0,13.0,57.0,1645443682.125,P18,D05,1,1,1
2188,21.0,13.0,57.0,1645443682.15625,P18,D05,1,1,1
2189,21.0,13.0,57.0,1645443682.1875,P18,D05,1,1,1
2190,21.0,14.0,57.0,1645443682.21875,P18,D05,1,1,1
2191,21.0,13.0,57.0,1645443682.25,P18,D05,1,1,1
2192,21.0,14.0,57.0,1645443682.28125,P18,D05,1,1,1
2193,21.0,14.0,57.0,1645443682.3125,P18,D05,1,1,1
2194,21.0,13.0,57.0,1645443682.34375,P18,D05,1,1,1
2195,21.0,13.0,57.0,1645443682.375,P18,D05,1,1,1
2196,21.0,13.0,57.0,1645443682.40625,P18,D05,1,1,1
2197,21.0,13.0,57.0,1645443682.4375,P18,D05,1,1,1
2198,21.0,13.0,57.0,1645443682.46875,P18,D05,1,1,1
2199,21.0,13.0,57.0,1645443682.5,P18,D05,1,1,1
2200,21.0,13.0,57.0,1645443682.53125,P18,D05,1,1,1
2201,21.0,14.0,57.0,1645443682.5625,P18,D05,1,1,1
2202,21.0,14.0,57.0,1645443682.59375,P18,D05,1,1,1
2203,21.0,13.0,57.0,1645443682.625,P18,D05,1,1,1
2204,21.0,13.0,57.0,1645443682.65625,P18,D05,1,1,1
2205,21.0,14.0,57.0,1645443682.6875,P18,D05,1,1,1
2206,21.0,13.0,57.0,1645443682.71875,P18,D05,1,1,1
2207,21.0,13.0,57.0,1645443682.75,P18,D05,1,1,1
2208,21.0,13.0,57.0,1645443682.78125,P18,D05,1,1,1
2209,21.0,13.0,57.0,1645443682.8125,P18,D05,1,1,1
2210,21.0,14.0,57.0,1645443682.84375,P18,D05,1,1,1
2211,21.0,14.0,57.0,1645443682.875,P18,D05,1,1,1
2212,21.0,13.0,57.0,1645443682.90625,P18,D05,1,1,1
2213,21.0,13.0,57.0,1645443682.9375,P18,D05,1,1,1
2214,21.0,14.0,57.0,1645443682.96875,P18,D05,1,1,1
2215,21.0,13.0,57.0,1645443683.0,P18,D05,1,1,1
2216,21.0,14.0,57.0,1645443683.03125,P18,D05,1,1,1
2217,21.0,13.0,57.0,1645443683.0625,P18,D05,1,1,1
2218,21.0,14.0,57.0,1645443683.09375,P18,D05,1,1,1
2219,21.0,13.0,57.0,1645443683.125,P18,D05,1,1,1
2220,21.0,14.0,57.0,1645443683.15625,P18,D05,1,1,1
2221,21.0,14.0,57.0,1645443683.1875,P18,D05,1,1,1
2222,21.0,14.0,57.0,1645443683.21875,P18,D05,1,1,1
2223,21.0,14.0,57.0,1645443683.25,P18,D05,1,1,1
2224,21.0,14.0,57.0,1645443683.28125,P18,D05,1,1,1
2225,21.0,14.0,57.0,1645443683.3125,P18,D05,1,1,1
2226,21.0,14.0,57.0,1645443683.34375,P18,D05,1,1,1
2227,21.0,14.0,57.0,1645443683.375,P18,D05,1,1,1
2228,21.0,14.0,57.0,1645443683.40625,P18,D05,1,1,1
2229,21.0,14.0,57.0,1645443683.4375,P18,D05,1,1,1
2230,21.0,14.0,57.0,1645443683.46875,P18,D05,1,1,1
2231,21.0,13.0,57.0,1645443683.5,P18,D05,1,1,1
2232,21.0,14.0,57.0,1645443683.53125,P18,D05,1,1,1
2233,21.0,14.0,57.0,1645443683.5625,P18,D05,1,1,1
2234,21.0,13.0,57.0,1645443683.59375,P18,D05,1,1,1
2235,21.0,13.0,57.0,1645443683.625,P18,D05,1,1,1
2236,21.0,13.0,57.0,1645443683.65625,P18,D05,1,1,1
2237,21.0,13.0,57.0,1645443683.6875,P18,D05,1,1,1
2238,21.0,13.0,57.0,1645443683.71875,P18,D05,1,1,1
2239,21.0,13.0,57.0,1645443683.75,P18,D05,1,1,1
2240,21.0,14.0,57.0,1645443683.78125,P18,D05,1,1,1
2241,21.0,14.0,57.0,1645443683.8125,P18,D05,1,1,1
2242,21.0,14.0,57.0,1645443683.84375,P18,D05,1,1,1
2243,21.0,14.0,57.0,1645443683.875,P18,D05,1,1,1
2244,21.0,14.0,57.0,1645443683.90625,P18,D05,1,1,1
2245,21.0,13.0,57.0,1645443683.9375,P18,D05,1,1,1
2246,20.0,14.0,57.0,1645443683.96875,P18,D05,1,1,1
2247,21.0,13.0,57.0,1645443684.0,P18,D05,1,1,1
2248,21.0,14.0,57.0,1645443684.03125,P18,D05,1,1,1
2249,21.0,13.0,57.0,1645443684.0625,P18,D05,1,1,1
2250,21.0,14.0,57.0,1645443684.09375,P18,D05,1,1,1
2251,21.0,14.0,57.0,1645443684.125,P18,D05,1,1,1
2252,21.0,14.0,57.0,1645443684.15625,P18,D05,1,1,1
2253,21.0,13.0,57.0,1645443684.1875,P18,D05,1,1,1
2254,21.0,13.0,57.0,1645443684.21875,P18,D05,1,1,1
2255,21.0,14.0,57.0,1645443684.25,P18,D05,1,1,1
2256,21.0,13.0,57.0,1645443684.28125,P18,D05,1,1,1
2257,21.0,14.0,57.0,1645443684.3125,P18,D05,1,1,1
2258,21.0,14.0,57.0,1645443684.34375,P18,D05,1,1,1
2259,21.0,14.0,57.0,1645443684.375,P18,D05,1,1,1
2260,21.0,14.0,57.0,1645443684.40625,P18,D05,1,1,1
2261,21.0,13.0,57.0,1645443684.4375,P18,D05,1,1,1
2262,21.0,14.0,57.0,1645443684.46875,P18,D05,1,1,1
2263,21.0,14.0,57.0,1645443684.5,P18,D05,1,1,1
2264,21.0,13.0,57.0,1645443684.53125,P18,D05,1,1,1
2265,21.0,14.0,57.0,1645443684.5625,P18,D05,1,1,1
2266,21.0,13.0,57.0,1645443684.59375,P18,D05,1,1,1
2267,21.0,14.0,57.0,1645443684.625,P18,D05,1,1,1
2268,21.0,13.0,57.0,1645443684.65625,P18,D05,1,1,1
2269,21.0,14.0,57.0,1645443684.6875,P18,D05,1,1,1
2270,21.0,14.0,57.0,1645443684.71875,P18,D05,1,1,1
2271,21.0,14.0,57.0,1645443684.75,P18,D05,1,1,1
2272,21.0,14.0,57.0,1645443684.78125,P18,D05,1,1,1
2273,20.0,14.0,57.0,1645443684.8125,P18,D05,1,1,1
2274,21.0,14.0,57.0,1645443684.84375,P18,D05,1,1,1
2275,21.0,14.0,57.0,1645443684.875,P18,D05,1,1,1
2276,21.0,14.0,57.0,1645443684.90625,P18,D05,1,1,1
2277,20.0,14.0,56.0,1645443684.9375,P18,D05,1,1,1
2278,21.0,14.0,57.0,1645443684.96875,P18,D05,1,1,1
2279,21.0,14.0,57.0,1645443685.0,P18,D05,1,1,1
2280,21.0,14.0,57.0,1645443685.03125,P18,D05,1,1,1
2281,21.0,14.0,57.0,1645443685.0625,P18,D05,1,1,1
2282,21.0,14.0,57.0,1645443685.09375,P18,D05,1,1,1
2283,21.0,14.0,57.0,1645443685.125,P18,D05,1,1,1
2284,21.0,14.0,57.0,1645443685.15625,P18,D05,1,1,1
2285,21.0,14.0,57.0,1645443685.1875,P18,D05,1,1,1
2286,20.0,14.0,57.0,1645443685.21875,P18,D05,1,1,1
2287,21.0,14.0,57.0,1645443685.25,P18,D05,1,1,1
2288,21.0,14.0,57.0,1645443685.28125,P18,D05,1,1,1
2289,21.0,14.0,57.0,1645443685.3125,P18,D05,1,1,1
2290,21.0,14.0,57.0,1645443685.34375,P18,D05,1,1,1
2291,21.0,14.0,57.0,1645443685.375,P18,D05,1,1,1
2292,21.0,14.0,57.0,1645443685.40625,P18,D05,1,1,1
2293,21.0,14.0,57.0,1645443685.4375,P18,D05,1,1,1
2294,21.0,14.0,57.0,1645443685.46875,P18,D05,1,1,1
2295,21.0,14.0,57.0,1645443685.5,P18,D05,1,1,1
2296,21.0,14.0,57.0,1645443685.53125,P18,D05,1,1,1
2297,21.0,14.0,57.0,1645443685.5625,P18,D05,1,1,1
2298,21.0,14.0,57.0,1645443685.59375,P18,D05,1,1,1
2299,21.0,14.0,57.0,1645443685.625,P18,D05,1,1,1
2300,20.0,14.0,57.0,1645443685.65625,P18,D05,1,1,1
2301,21.0,14.0,57.0,1645443685.6875,P18,D05,1,1,1
2302,21.0,14.0,57.0,1645443685.71875,P18,D05,1,1,1
2303,21.0,14.0,57.0,1645443685.75,P18,D05,1,1,1
2304,21.0,14.0,57.0,1645443685.78125,P18,D05,1,1,1
2305,21.0,14.0,57.0,1645443685.8125,P18,D05,1,1,1
2306,21.0,14.0,57.0,1645443685.84375,P18,D05,1,1,1
2307,21.0,14.0,57.0,1645443685.875,P18,D05,1,1,1
2308,20.0,13.0,57.0,1645443685.90625,P18,D05,1,1,1
2309,21.0,14.0,57.0,1645443685.9375,P18,D05,1,1,1
2310,21.0,14.0,57.0,1645443685.96875,P18,D05,1,1,1
2311,21.0,14.0,57.0,1645443686.0,P18,D05,1,1,1
2312,20.0,14.0,57.0,1645443686.03125,P18,D05,1,1,1
2313,20.0,14.0,57.0,1645443686.0625,P18,D05,1,1,1
2314,21.0,14.0,57.0,1645443686.09375,P18,D05,1,1,1
2315,21.0,14.0,57.0,1645443686.125,P18,D05,1,1,1
2316,21.0,14.0,57.0,1645443686.15625,P18,D05,1,1,1
2317,20.0,14.0,57.0,1645443686.1875,P18,D05,1,1,1
2318,20.0,14.0,57.0,1645443686.21875,P18,D05,1,1,1
2319,21.0,14.0,57.0,1645443686.25,P18,D05,1,1,1
2320,21.0,14.0,57.0,1645443686.28125,P18,D05,1,1,1
2321,21.0,14.0,57.0,1645443686.3125,P18,D05,1,1,1
2322,21.0,13.0,57.0,1645443686.34375,P18,D05,1,1,1
2323,21.0,14.0,57.0,1645443686.375,P18,D05,1,1,1
2324,20.0,14.0,57.0,1645443686.40625,P18,D05,1,1,1
2325,21.0,14.0,57.0,1645443686.4375,P18,D05,1,1,1
2326,21.0,14.0,57.0,1645443686.46875,P18,D05,1,1,1
2327,21.0,14.0,57.0,1645443686.5,P18,D05,1,1,1
2328,21.0,13.0,57.0,1645443686.53125,P18,D05,1,1,1
2329,21.0,13.0,57.0,1645443686.5625,P18,D05,1,1,1
2330,21.0,14.0,57.0,1645443686.59375,P18,D05,1,1,1
2331,21.0,14.0,57.0,1645443686.625,P18,D05,1,1,1
2332,21.0,14.0,57.0,1645443686.65625,P18,D05,1,1,1
2333,21.0,14.0,57.0,1645443686.6875,P18,D05,1,1,1
2334,21.0,14.0,57.0,1645443686.71875,P18,D05,1,1,1
2335,20.0,14.0,57.0,1645443686.75,P18,D05,1,1,1
2336,21.0,13.0,57.0,1645443686.78125,P18,D05,1,1,1
2337,21.0,13.0,57.0,1645443686.8125,P18,D05,1,1,1
2338,21.0,14.0,57.0,1645443686.84375,P18,D05,1,1,1
2339,21.0,14.0,57.0,1645443686.875,P18,D05,1,1,1
2340,21.0,14.0,57.0,1645443686.90625,P18,D05,1,1,1
2341,20.0,14.0,57.0,1645443686.9375,P18,D05,1,1,1
2342,21.0,14.0,57.0,1645443686.96875,P18,D05,1,1,1
2343,21.0,13.0,57.0,1645443687.0,P18,D05,1,1,1
2344,21.0,13.0,57.0,1645443687.03125,P18,D05,1,1,1
2345,21.0,13.0,57.0,1645443687.0625,P18,D05,1,1,1
2346,21.0,14.0,57.0,1645443687.09375,P18,D05,1,1,1
2347,21.0,14.0,57.0,1645443687.125,P18,D05,1,1,1
2348,21.0,14.0,57.0,1645443687.15625,P18,D05,1,1,1
2349,21.0,14.0,57.0,1645443687.1875,P18,D05,1,1,1
2350,21.0,14.0,57.0,1645443687.21875,P18,D05,1,1,1
2351,21.0,14.0,57.0,1645443687.25,P18,D05,1,1,1
2352,20.0,14.0,57.0,1645443687.28125,P18,D05,1,1,1
2353,21.0,14.0,57.0,1645443687.3125,P18,D05,1,1,1
2354,21.0,14.0,57.0,1645443687.34375,P18,D05,1,1,1
2355,21.0,14.0,57.0,1645443687.375,P18,D05,1,1,1
2356,21.0,13.0,57.0,1645443687.40625,P18,D05,1,1,1
2357,21.0,14.0,57.0,1645443687.4375,P18,D05,1,1,1
2358,21.0,14.0,57.0,1645443687.46875,P18,D05,1,1,1
2359,21.0,14.0,57.0,1645443687.5,P18,D05,1,1,1
2360,20.0,14.0,57.0,1645443687.53125,P18,D05,1,1,1
2361,21.0,14.0,57.0,1645443687.5625,P18,D05,1,1,1
2362,20.0,14.0,57.0,1645443687.59375,P18,D05,1,1,1
2363,21.0,14.0,57.0,1645443687.625,P18,D05,1,1,1
2364,21.0,14.0,57.0,1645443687.65625,P18,D05,1,1,1
2365,21.0,13.0,57.0,1645443687.6875,P18,D05,1,1,1
2366,21.0,14.0,57.0,1645443687.71875,P18,D05,1,1,1
2367,21.0,14.0,57.0,1645443687.75,P18,D05,1,1,1
2368,21.0,14.0,57.0,1645443687.78125,P18,D05,1,1,1
2369,20.0,14.0,57.0,1645443687.8125,P18,D05,1,1,1
2370,21.0,14.0,57.0,1645443687.84375,P18,D05,1,1,1
2371,21.0,14.0,57.0,1645443687.875,P18,D05,1,1,1
2372,21.0,14.0,57.0,1645443687.90625,P18,D05,1,1,1
2373,21.0,14.0,57.0,1645443687.9375,P18,D05,1,1,1
2374,21.0,14.0,57.0,1645443687.96875,P18,D05,1,1,1
2375,21.0,13.0,57.0,1645443688.0,P18,D05,1,1,1
2376,21.0,14.0,57.0,1645443688.03125,P18,D05,1,1,1
2377,21.0,14.0,57.0,1645443688.0625,P18,D05,1,1,1
2378,21.0,14.0,57.0,1645443688.09375,P18,D05,1,1,1
2379,21.0,14.0,57.0,1645443688.125,P18,D05,1,1,1
2380,21.0,14.0,57.0,1645443688.15625,P18,D05,1,1,1
2381,21.0,13.0,57.0,1645443688.1875,P18,D05,1,1,1
2382,21.0,13.0,57.0,1645443688.21875,P18,D05,1,1,1
2383,21.0,14.0,57.0,1645443688.25,P18,D05,1,1,1
2384,20.0,14.0,57.0,1645443688.28125,P18,D05,1,1,1
2385,21.0,14.0,57.0,1645443688.3125,P18,D05,1,1,1
2386,21.0,14.0,57.0,1645443688.34375,P18,D05,1,1,1
2387,21.0,14.0,57.0,1645443688.375,P18,D05,1,1,1
2388,21.0,14.0,57.0,1645443688.40625,P18,D05,1,1,1
2389,21.0,14.0,57.0,1645443688.4375,P18,D05,1,1,1
2390,21.0,14.0,57.0,1645443688.46875,P18,D05,1,1,1
2391,21.0,14.0,57.0,1645443688.5,P18,D05,1,1,1
2392,21.0,13.0,57.0,1645443688.53125,P18,D05,1,1,1
2393,21.0,14.0,57.0,1645443688.5625,P18,D05,1,1,1
2394,21.0,13.0,57.0,1645443688.59375,P18,D05,1,1,1
2395,21.0,14.0,57.0,1645443688.625,P18,D05,1,1,1
2396,21.0,14.0,57.0,1645443688.65625,P18,D05,1,1,1
2397,21.0,13.0,57.0,1645443688.6875,P18,D05,1,1,1
2398,21.0,14.0,57.0,1645443688.71875,P18,D05,1,1,1
2399,21.0,14.0,57.0,1645443688.75,P18,D05,1,1,1
2400,21.0,13.0,57.0,1645443688.78125,P18,D05,1,1,1
2401,21.0,14.0,57.0,1645443688.8125,P18,D05,1,1,1
2402,21.0,14.0,57.0,1645443688.84375,P18,D05,1,1,1
2403,21.0,14.0,57.0,1645443688.875,P18,D05,1,1,1
2404,21.0,14.0,57.0,1645443688.90625,P18,D05,1,1,1
2405,21.0,14.0,57.0,1645443688.9375,P18,D05,1,1,1
2406,21.0,13.0,57.0,1645443688.96875,P18,D05,1,1,1
2407,21.0,14.0,57.0,1645443689.0,P18,D05,1,1,1
2408,21.0,14.0,57.0,1645443689.03125,P18,D05,1,1,1
2409,21.0,14.0,57.0,1645443689.0625,P18,D05,1,1,1
2410,21.0,13.0,57.0,1645443689.09375,P18,D05,1,1,1
2411,21.0,13.0,57.0,1645443689.125,P18,D05,1,1,1
2412,20.0,14.0,57.0,1645443689.15625,P18,D05,1,1,1
2413,21.0,14.0,57.0,1645443689.1875,P18,D05,1,1,1
2414,21.0,14.0,57.0,1645443689.21875,P18,D05,1,1,1
2415,21.0,13.0,57.0,1645443689.25,P18,D05,1,1,1
2416,21.0,14.0,57.0,1645443689.28125,P18,D05,1,1,1
2417,21.0,14.0,57.0,1645443689.3125,P18,D05,1,1,1
2418,21.0,14.0,57.0,1645443689.34375,P18,D05,1,1,1
2419,21.0,14.0,57.0,1645443689.375,P18,D05,1,1,1
