,acc_x,acc_y,acc_z,timestamp,participant,document,val,arou,eng
0,-5.0,-6.0,62.0,1645448979.9375,P19,D06,1,1,1
1,-4.0,-6.0,62.0,1645448979.96875,P19,D06,1,1,1
2,-4.0,-6.0,62.0,1645448980.0,P19,D06,1,1,1
3,-5.0,-6.0,62.0,1645448980.03125,P19,D06,1,1,1
4,-5.0,-6.0,62.0,1645448980.0625,P19,D06,1,1,1
5,-5.0,-6.0,62.0,1645448980.09375,P19,D06,1,1,1
6,-4.0,-6.0,62.0,1645448980.125,P19,D06,1,1,1
7,-5.0,-6.0,62.0,1645448980.15625,P19,D06,1,1,1
8,-5.0,-6.0,62.0,1645448980.1875,P19,D06,1,1,1
9,-4.0,-6.0,62.0,1645448980.21875,P19,D06,1,1,1
10,-5.0,-6.0,62.0,1645448980.25,P19,D06,1,1,1
11,-5.0,-6.0,62.0,1645448980.28125,P19,D06,1,1,1
12,-4.0,-6.0,62.0,1645448980.3125,P19,D06,1,1,1
13,-5.0,-6.0,62.0,1645448980.34375,P19,D06,1,1,1
14,-4.0,-6.0,62.0,1645448980.375,P19,D06,1,1,1
15,-5.0,-6.0,62.0,1645448980.40625,P19,D06,1,1,1
16,-5.0,-6.0,62.0,1645448980.4375,P19,D06,1,1,1
17,-5.0,-6.0,62.0,1645448980.46875,P19,D06,1,1,1
18,-4.0,-6.0,62.0,1645448980.5,P19,D06,1,1,1
19,-5.0,-6.0,62.0,1645448980.53125,P19,D06,1,1,1
20,-5.0,-6.0,62.0,1645448980.5625,P19,D06,1,1,1
21,-5.0,-6.0,62.0,1645448980.59375,P19,D06,1,1,1
22,-5.0,-6.0,62.0,1645448980.625,P19,D06,1,1,1
23,-4.0,-6.0,62.0,1645448980.65625,P19,D06,1,1,1
24,-4.0,-6.0,62.0,1645448980.6875,P19,D06,1,1,1
25,-5.0,-6.0,62.0,1645448980.71875,P19,D06,1,1,1
26,-4.0,-6.0,62.0,1645448980.75,P19,D06,1,1,1
27,-5.0,-6.0,62.0,1645448980.78125,P19,D06,1,1,1
28,-5.0,-6.0,62.0,1645448980.8125,P19,D06,1,1,1
29,-5.0,-6.0,62.0,1645448980.84375,P19,D06,1,1,1
30,-5.0,-6.0,62.0,1645448980.875,P19,D06,1,1,1
31,-5.0,-6.0,62.0,1645448980.90625,P19,D06,1,1,1
32,-5.0,-6.0,62.0,1645448980.9375,P19,D06,1,1,1
33,-5.0,-6.0,62.0,1645448980.96875,P19,D06,1,1,1
34,-4.0,-6.0,62.0,1645448981.0,P19,D06,1,1,1
35,-5.0,-6.0,62.0,1645448981.03125,P19,D06,1,1,1
36,-5.0,-6.0,62.0,1645448981.0625,P19,D06,1,1,1
37,-5.0,-6.0,62.0,1645448981.09375,P19,D06,1,1,1
38,-4.0,-6.0,62.0,1645448981.125,P19,D06,1,1,1
39,-4.0,-6.0,62.0,1645448981.15625,P19,D06,1,1,1
40,-5.0,-6.0,62.0,1645448981.1875,P19,D06,1,1,1
41,-5.0,-6.0,62.0,1645448981.21875,P19,D06,1,1,1
42,-4.0,-6.0,62.0,1645448981.25,P19,D06,1,1,1
43,-5.0,-6.0,62.0,1645448981.28125,P19,D06,1,1,1
44,-5.0,-6.0,62.0,1645448981.3125,P19,D06,1,1,1
45,-5.0,-6.0,62.0,1645448981.34375,P19,D06,1,1,1
46,-5.0,-6.0,62.0,1645448981.375,P19,D06,1,1,1
47,-5.0,-6.0,62.0,1645448981.40625,P19,D06,1,1,1
48,-5.0,-6.0,62.0,1645448981.4375,P19,D06,1,1,1
49,-5.0,-6.0,62.0,1645448981.46875,P19,D06,1,1,1
50,-5.0,-6.0,62.0,1645448981.5,P19,D06,1,1,1
51,-5.0,-6.0,62.0,1645448981.53125,P19,D06,1,1,1
52,-5.0,-6.0,62.0,1645448981.5625,P19,D06,1,1,1
53,-5.0,-6.0,62.0,1645448981.59375,P19,D06,1,1,1
54,-5.0,-6.0,62.0,1645448981.625,P19,D06,1,1,1
55,-5.0,-6.0,62.0,1645448981.65625,P19,D06,1,1,1
56,-5.0,-6.0,62.0,1645448981.6875,P19,D06,1,1,1
57,-5.0,-6.0,62.0,1645448981.71875,P19,D06,1,1,1
58,-5.0,-6.0,62.0,1645448981.75,P19,D06,1,1,1
59,-5.0,-6.0,62.0,1645448981.78125,P19,D06,1,1,1
60,-5.0,-6.0,62.0,1645448981.8125,P19,D06,1,1,1
61,-5.0,-6.0,62.0,1645448981.84375,P19,D06,1,1,1
62,-5.0,-6.0,62.0,1645448981.875,P19,D06,1,1,1
63,-5.0,-6.0,62.0,1645448981.90625,P19,D06,1,1,1
64,-4.0,-6.0,62.0,1645448981.9375,P19,D06,1,1,1
65,-4.0,-6.0,62.0,1645448981.96875,P19,D06,1,1,1
66,-5.0,-6.0,62.0,1645448982.0,P19,D06,1,1,1
67,-5.0,-6.0,62.0,1645448982.03125,P19,D06,1,1,1
68,-5.0,-6.0,62.0,1645448982.0625,P19,D06,1,1,1
69,-5.0,-6.0,62.0,1645448982.09375,P19,D06,1,1,1
70,-5.0,-6.0,62.0,1645448982.125,P19,D06,1,1,1
71,-5.0,-6.0,62.0,1645448982.15625,P19,D06,1,1,1
72,-5.0,-6.0,62.0,1645448982.1875,P19,D06,1,1,1
73,-5.0,-6.0,62.0,1645448982.21875,P19,D06,1,1,1
74,-5.0,-6.0,62.0,1645448982.25,P19,D06,1,1,1
75,-5.0,-6.0,62.0,1645448982.28125,P19,D06,1,1,1
76,-5.0,-6.0,62.0,1645448982.3125,P19,D06,1,1,1
77,-5.0,-6.0,62.0,1645448982.34375,P19,D06,1,1,1
78,-5.0,-6.0,62.0,1645448982.375,P19,D06,1,1,1
79,-5.0,-6.0,62.0,1645448982.40625,P19,D06,1,1,1
80,-5.0,-6.0,62.0,1645448982.4375,P19,D06,1,1,1
81,-5.0,-6.0,62.0,1645448982.46875,P19,D06,1,1,1
82,-5.0,-6.0,62.0,1645448982.5,P19,D06,1,1,1
83,-5.0,-6.0,62.0,1645448982.53125,P19,D06,1,1,1
84,-5.0,-6.0,62.0,1645448982.5625,P19,D06,1,1,1
85,-5.0,-6.0,62.0,1645448982.59375,P19,D06,1,1,1
86,-6.0,-7.0,62.0,1645448982.625,P19,D06,1,1,1
87,-4.0,-7.0,62.0,1645448982.65625,P19,D06,1,1,1
88,-5.0,-6.0,62.0,1645448982.6875,P19,D06,1,1,1
89,-6.0,-7.0,62.0,1645448982.71875,P19,D06,1,1,1
90,-5.0,-6.0,62.0,1645448982.75,P19,D06,1,1,1
91,-5.0,-6.0,62.0,1645448982.78125,P19,D06,1,1,1
92,-5.0,-6.0,62.0,1645448982.8125,P19,D06,1,1,1
93,-5.0,-6.0,62.0,1645448982.84375,P19,D06,1,1,1
94,-5.0,-6.0,62.0,1645448982.875,P19,D06,1,1,1
95,-5.0,-6.0,62.0,1645448982.90625,P19,D06,1,1,1
96,-5.0,-6.0,62.0,1645448982.9375,P19,D06,1,1,1
97,-5.0,-6.0,62.0,1645448982.96875,P19,D06,1,1,1
98,-5.0,-6.0,62.0,1645448983.0,P19,D06,1,1,1
99,-5.0,-6.0,62.0,1645448983.03125,P19,D06,1,1,1
100,-5.0,-6.0,62.0,1645448983.0625,P19,D06,1,1,1
101,-5.0,-6.0,62.0,1645448983.09375,P19,D06,1,1,1
102,-6.0,-6.0,62.0,1645448983.125,P19,D06,1,1,1
103,-5.0,-6.0,62.0,1645448983.15625,P19,D06,1,1,1
104,-5.0,-6.0,62.0,1645448983.1875,P19,D06,1,1,1
105,-6.0,-6.0,62.0,1645448983.21875,P19,D06,1,1,1
106,-5.0,-7.0,62.0,1645448983.25,P19,D06,1,1,1
107,-4.0,-7.0,62.0,1645448983.28125,P19,D06,1,1,1
108,-5.0,-6.0,62.0,1645448983.3125,P19,D06,1,1,1
109,-5.0,-6.0,62.0,1645448983.34375,P19,D06,1,1,1
110,-4.0,-6.0,62.0,1645448983.375,P19,D06,1,1,1
111,-4.0,-6.0,62.0,1645448983.40625,P19,D06,1,1,1
112,-5.0,-6.0,62.0,1645448983.4375,P19,D06,1,1,1
113,-5.0,-6.0,62.0,1645448983.46875,P19,D06,1,1,1
114,-5.0,-6.0,62.0,1645448983.5,P19,D06,1,1,1
115,-5.0,-6.0,62.0,1645448983.53125,P19,D06,1,1,1
116,-5.0,-6.0,62.0,1645448983.5625,P19,D06,1,1,1
117,-5.0,-6.0,62.0,1645448983.59375,P19,D06,1,1,1
118,-5.0,-6.0,62.0,1645448983.625,P19,D06,1,1,1
119,-5.0,-6.0,62.0,1645448983.65625,P19,D06,1,1,1
120,-5.0,-6.0,62.0,1645448983.6875,P19,D06,1,1,1
121,-5.0,-6.0,62.0,1645448983.71875,P19,D06,1,1,1
122,-4.0,-6.0,62.0,1645448983.75,P19,D06,1,1,1
123,-5.0,-6.0,62.0,1645448983.78125,P19,D06,1,1,1
124,-6.0,-6.0,62.0,1645448983.8125,P19,D06,1,1,1
125,-5.0,-6.0,62.0,1645448983.84375,P19,D06,1,1,1
126,-5.0,-6.0,62.0,1645448983.875,P19,D06,1,1,1
127,-5.0,-6.0,62.0,1645448983.90625,P19,D06,1,1,1
128,-5.0,-6.0,62.0,1645448983.9375,P19,D06,1,1,1
129,-6.0,-6.0,62.0,1645448983.96875,P19,D06,1,1,1
130,-6.0,-6.0,62.0,1645448984.0,P19,D06,1,1,1
131,-5.0,-6.0,62.0,1645448984.03125,P19,D06,1,1,1
132,-4.0,-6.0,62.0,1645448984.0625,P19,D06,1,1,1
133,-5.0,-6.0,62.0,1645448984.09375,P19,D06,1,1,1
134,-6.0,-7.0,62.0,1645448984.125,P19,D06,1,1,1
135,-5.0,-6.0,62.0,1645448984.15625,P19,D06,1,1,1
136,-5.0,-6.0,62.0,1645448984.1875,P19,D06,1,1,1
137,-5.0,-6.0,62.0,1645448984.21875,P19,D06,1,1,1
138,-5.0,-6.0,62.0,1645448984.25,P19,D06,1,1,1
139,-6.0,-7.0,62.0,1645448984.28125,P19,D06,1,1,1
140,-5.0,-7.0,62.0,1645448984.3125,P19,D06,1,1,1
141,-5.0,-6.0,62.0,1645448984.34375,P19,D06,1,1,1
142,-5.0,-6.0,62.0,1645448984.375,P19,D06,1,1,1
143,-5.0,-7.0,62.0,1645448984.40625,P19,D06,1,1,1
144,-5.0,-7.0,62.0,1645448984.4375,P19,D06,1,1,1
145,-5.0,-6.0,62.0,1645448984.46875,P19,D06,1,1,1
146,-5.0,-6.0,62.0,1645448984.5,P19,D06,1,1,1
147,-5.0,-6.0,62.0,1645448984.53125,P19,D06,1,1,1
148,-5.0,-6.0,62.0,1645448984.5625,P19,D06,1,1,1
149,-5.0,-6.0,62.0,1645448984.59375,P19,D06,1,1,1
150,-5.0,-6.0,62.0,1645448984.625,P19,D06,1,1,1
151,-5.0,-6.0,62.0,1645448984.65625,P19,D06,1,1,1
152,-5.0,-7.0,62.0,1645448984.6875,P19,D06,1,1,1
153,-6.0,-6.0,62.0,1645448984.71875,P19,D06,1,1,1
154,-6.0,-6.0,62.0,1645448984.75,P19,D06,1,1,1
155,-5.0,-6.0,62.0,1645448984.78125,P19,D06,1,1,1
156,-5.0,-7.0,62.0,1645448984.8125,P19,D06,1,1,1
157,-6.0,-7.0,62.0,1645448984.84375,P19,D06,1,1,1
158,-5.0,-6.0,62.0,1645448984.875,P19,D06,1,1,1
159,-5.0,-6.0,62.0,1645448984.90625,P19,D06,1,1,1
160,-5.0,-6.0,62.0,1645448984.9375,P19,D06,1,1,1
161,-5.0,-7.0,62.0,1645448984.96875,P19,D06,1,1,1
162,-5.0,-6.0,62.0,1645448985.0,P19,D06,1,1,1
163,-6.0,-6.0,62.0,1645448985.03125,P19,D06,1,1,1
164,-6.0,-6.0,62.0,1645448985.0625,P19,D06,1,1,1
165,-5.0,-6.0,62.0,1645448985.09375,P19,D06,1,1,1
166,-5.0,-6.0,62.0,1645448985.125,P19,D06,1,1,1
167,-6.0,-6.0,62.0,1645448985.15625,P19,D06,1,1,1
168,-5.0,-6.0,62.0,1645448985.1875,P19,D06,1,1,1
169,-5.0,-6.0,62.0,1645448985.21875,P19,D06,1,1,1
170,-5.0,-6.0,62.0,1645448985.25,P19,D06,1,1,1
171,-5.0,-6.0,62.0,1645448985.28125,P19,D06,1,1,1
172,-5.0,-6.0,62.0,1645448985.3125,P19,D06,1,1,1
173,-6.0,-6.0,62.0,1645448985.34375,P19,D06,1,1,1
174,-6.0,-6.0,62.0,1645448985.375,P19,D06,1,1,1
175,-5.0,-6.0,62.0,1645448985.40625,P19,D06,1,1,1
176,-5.0,-6.0,62.0,1645448985.4375,P19,D06,1,1,1
177,-6.0,-6.0,62.0,1645448985.46875,P19,D06,1,1,1
178,-6.0,-6.0,62.0,1645448985.5,P19,D06,1,1,1
179,-5.0,-6.0,62.0,1645448985.53125,P19,D06,1,1,1
180,-5.0,-6.0,62.0,1645448985.5625,P19,D06,1,1,1
181,-6.0,-6.0,62.0,1645448985.59375,P19,D06,1,1,1
182,-5.0,-6.0,62.0,1645448985.625,P19,D06,1,1,1
183,-5.0,-6.0,62.0,1645448985.65625,P19,D06,1,1,1
184,-5.0,-6.0,62.0,1645448985.6875,P19,D06,1,1,1
185,-6.0,-6.0,62.0,1645448985.71875,P19,D06,1,1,1
186,-6.0,-6.0,62.0,1645448985.75,P19,D06,1,1,1
187,-5.0,-6.0,62.0,1645448985.78125,P19,D06,1,1,1
188,-5.0,-6.0,62.0,1645448985.8125,P19,D06,1,1,1
189,-6.0,-6.0,62.0,1645448985.84375,P19,D06,1,1,1
190,-6.0,-6.0,62.0,1645448985.875,P19,D06,1,1,1
191,-5.0,-7.0,62.0,1645448985.90625,P19,D06,1,1,1
192,-5.0,-7.0,62.0,1645448985.9375,P19,D06,1,1,1
193,-5.0,-6.0,62.0,1645448985.96875,P19,D06,1,1,1
194,-6.0,-6.0,62.0,1645448986.0,P19,D06,1,1,1
195,-6.0,-6.0,62.0,1645448986.03125,P19,D06,1,1,1
196,-8.0,-6.0,62.0,1645448986.0625,P19,D06,1,1,1
197,-7.0,-6.0,62.0,1645448986.09375,P19,D06,1,1,1
198,-5.0,-7.0,62.0,1645448986.125,P19,D06,1,1,1
199,-5.0,-6.0,62.0,1645448986.15625,P19,D06,1,1,1
200,-6.0,-6.0,62.0,1645448986.1875,P19,D06,1,1,1
201,-6.0,-6.0,62.0,1645448986.21875,P19,D06,1,1,1
202,-8.0,-6.0,62.0,1645448986.25,P19,D06,1,1,1
203,-7.0,-6.0,62.0,1645448986.28125,P19,D06,1,1,1
204,-6.0,-6.0,62.0,1645448986.3125,P19,D06,1,1,1
205,-6.0,-6.0,62.0,1645448986.34375,P19,D06,1,1,1
206,-7.0,-6.0,62.0,1645448986.375,P19,D06,1,1,1
207,-6.0,-6.0,62.0,1645448986.40625,P19,D06,1,1,1
208,-5.0,-6.0,62.0,1645448986.4375,P19,D06,1,1,1
209,-5.0,-7.0,62.0,1645448986.46875,P19,D06,1,1,1
210,-6.0,-6.0,62.0,1645448986.5,P19,D06,1,1,1
211,-5.0,-6.0,62.0,1645448986.53125,P19,D06,1,1,1
212,-4.0,-6.0,62.0,1645448986.5625,P19,D06,1,1,1
213,-6.0,-6.0,63.0,1645448986.59375,P19,D06,1,1,1
214,-6.0,-12.0,61.0,1645448986.625,P19,D06,1,1,1
215,-9.0,-6.0,61.0,1645448986.65625,P19,D06,1,1,1
216,-10.0,-4.0,61.0,1645448986.6875,P19,D06,1,1,1
217,-8.0,-6.0,62.0,1645448986.71875,P19,D06,1,1,1
218,-9.0,-6.0,61.0,1645448986.75,P19,D06,1,1,1
219,-7.0,-7.0,62.0,1645448986.78125,P19,D06,1,1,1
220,-6.0,-6.0,62.0,1645448986.8125,P19,D06,1,1,1
221,-6.0,-6.0,62.0,1645448986.84375,P19,D06,1,1,1
222,-7.0,-6.0,62.0,1645448986.875,P19,D06,1,1,1
223,-7.0,-6.0,62.0,1645448986.90625,P19,D06,1,1,1
224,-6.0,-6.0,62.0,1645448986.9375,P19,D06,1,1,1
225,-6.0,-7.0,62.0,1645448986.96875,P19,D06,1,1,1
226,-7.0,-6.0,62.0,1645448987.0,P19,D06,1,1,1
227,-7.0,-6.0,62.0,1645448987.03125,P19,D06,1,1,1
228,-7.0,-6.0,62.0,1645448987.0625,P19,D06,1,1,1
229,-7.0,-6.0,62.0,1645448987.09375,P19,D06,1,1,1
230,-7.0,-6.0,62.0,1645448987.125,P19,D06,1,1,1
231,-7.0,-6.0,62.0,1645448987.15625,P19,D06,1,1,1
232,-7.0,-6.0,62.0,1645448987.1875,P19,D06,1,1,1
233,-6.0,-6.0,62.0,1645448987.21875,P19,D06,1,1,1
234,-6.0,-6.0,62.0,1645448987.25,P19,D06,1,1,1
235,-7.0,-6.0,62.0,1645448987.28125,P19,D06,1,1,1
236,-7.0,-6.0,62.0,1645448987.3125,P19,D06,1,1,1
237,-7.0,-6.0,62.0,1645448987.34375,P19,D06,1,1,1
238,-6.0,-6.0,62.0,1645448987.375,P19,D06,1,1,1
239,-7.0,-6.0,62.0,1645448987.40625,P19,D06,1,1,1
240,-7.0,-6.0,62.0,1645448987.4375,P19,D06,1,1,1
241,-7.0,-6.0,62.0,1645448987.46875,P19,D06,1,1,1
242,-7.0,-6.0,62.0,1645448987.5,P19,D06,1,1,1
243,-7.0,-6.0,62.0,1645448987.53125,P19,D06,1,1,1
244,-6.0,-6.0,62.0,1645448987.5625,P19,D06,1,1,1
245,-7.0,-6.0,62.0,1645448987.59375,P19,D06,1,1,1
246,-6.0,-6.0,62.0,1645448987.625,P19,D06,1,1,1
247,-7.0,-6.0,62.0,1645448987.65625,P19,D06,1,1,1
248,-7.0,-6.0,62.0,1645448987.6875,P19,D06,1,1,1
249,-7.0,-6.0,62.0,1645448987.71875,P19,D06,1,1,1
250,-7.0,-6.0,62.0,1645448987.75,P19,D06,1,1,1
251,-6.0,-6.0,62.0,1645448987.78125,P19,D06,1,1,1
252,-6.0,-7.0,62.0,1645448987.8125,P19,D06,1,1,1
253,-6.0,-6.0,62.0,1645448987.84375,P19,D06,1,1,1
254,-5.0,-7.0,62.0,1645448987.875,P19,D06,1,1,1
255,-7.0,-6.0,62.0,1645448987.90625,P19,D06,1,1,1
256,-7.0,-7.0,62.0,1645448987.9375,P19,D06,1,1,1
257,-6.0,-6.0,62.0,1645448987.96875,P19,D06,1,1,1
258,-6.0,-6.0,62.0,1645448988.0,P19,D06,1,1,1
259,-7.0,-6.0,62.0,1645448988.03125,P19,D06,1,1,1
260,-7.0,-6.0,62.0,1645448988.0625,P19,D06,1,1,1
261,-6.0,-6.0,62.0,1645448988.09375,P19,D06,1,1,1
262,-6.0,-6.0,62.0,1645448988.125,P19,D06,1,1,1
263,-7.0,-7.0,62.0,1645448988.15625,P19,D06,1,1,1
264,-7.0,-6.0,62.0,1645448988.1875,P19,D06,1,1,1
265,-6.0,-6.0,62.0,1645448988.21875,P19,D06,1,1,1
266,-7.0,-7.0,62.0,1645448988.25,P19,D06,1,1,1
267,-7.0,-6.0,62.0,1645448988.28125,P19,D06,1,1,1
268,-7.0,-6.0,62.0,1645448988.3125,P19,D06,1,1,1
269,-7.0,-7.0,62.0,1645448988.34375,P19,D06,1,1,1
270,-6.0,-6.0,62.0,1645448988.375,P19,D06,1,1,1
271,-6.0,-6.0,62.0,1645448988.40625,P19,D06,1,1,1
272,-7.0,-6.0,62.0,1645448988.4375,P19,D06,1,1,1
273,-6.0,-7.0,62.0,1645448988.46875,P19,D06,1,1,1
274,-6.0,-6.0,62.0,1645448988.5,P19,D06,1,1,1
275,-7.0,-6.0,62.0,1645448988.53125,P19,D06,1,1,1
276,-6.0,-6.0,62.0,1645448988.5625,P19,D06,1,1,1
277,-7.0,-7.0,62.0,1645448988.59375,P19,D06,1,1,1
278,-7.0,-6.0,61.0,1645448988.625,P19,D06,1,1,1
279,-6.0,-6.0,62.0,1645448988.65625,P19,D06,1,1,1
280,-6.0,-6.0,62.0,1645448988.6875,P19,D06,1,1,1
281,-6.0,-7.0,62.0,1645448988.71875,P19,D06,1,1,1
282,-5.0,-6.0,62.0,1645448988.75,P19,D06,1,1,1
283,-5.0,-6.0,62.0,1645448988.78125,P19,D06,1,1,1
284,-6.0,-6.0,62.0,1645448988.8125,P19,D06,1,1,1
285,-6.0,-6.0,62.0,1645448988.84375,P19,D06,1,1,1
286,-6.0,-6.0,62.0,1645448988.875,P19,D06,1,1,1
287,-6.0,-6.0,62.0,1645448988.90625,P19,D06,1,1,1
288,-6.0,-6.0,62.0,1645448988.9375,P19,D06,1,1,1
289,-7.0,-6.0,62.0,1645448988.96875,P19,D06,1,1,1
290,-6.0,-6.0,62.0,1645448989.0,P19,D06,1,1,1
291,-6.0,-6.0,62.0,1645448989.03125,P19,D06,1,1,1
292,-7.0,-6.0,62.0,1645448989.0625,P19,D06,1,1,1
293,-6.0,-6.0,62.0,1645448989.09375,P19,D06,1,1,1
294,-7.0,-6.0,62.0,1645448989.125,P19,D06,1,1,1
295,-6.0,-6.0,62.0,1645448989.15625,P19,D06,1,1,1
296,-6.0,-6.0,62.0,1645448989.1875,P19,D06,1,1,1
297,-6.0,-6.0,62.0,1645448989.21875,P19,D06,1,1,1
298,-6.0,-6.0,62.0,1645448989.25,P19,D06,1,1,1
299,-7.0,-6.0,62.0,1645448989.28125,P19,D06,1,1,1
300,-6.0,-6.0,62.0,1645448989.3125,P19,D06,1,1,1
301,-6.0,-6.0,62.0,1645448989.34375,P19,D06,1,1,1
302,-7.0,-6.0,62.0,1645448989.375,P19,D06,1,1,1
303,-6.0,-6.0,62.0,1645448989.40625,P19,D06,1,1,1
304,-6.0,-6.0,62.0,1645448989.4375,P19,D06,1,1,1
305,-6.0,-6.0,62.0,1645448989.46875,P19,D06,1,1,1
306,-6.0,-6.0,62.0,1645448989.5,P19,D06,1,1,1
307,-6.0,-6.0,62.0,1645448989.53125,P19,D06,1,1,1
308,-6.0,-6.0,62.0,1645448989.5625,P19,D06,1,1,1
309,-6.0,-6.0,62.0,1645448989.59375,P19,D06,1,1,1
310,-6.0,-6.0,62.0,1645448989.625,P19,D06,1,1,1
311,-6.0,-6.0,62.0,1645448989.65625,P19,D06,1,1,1
312,-6.0,-6.0,62.0,1645448989.6875,P19,D06,1,1,1
313,-6.0,-6.0,62.0,1645448989.71875,P19,D06,1,1,1
314,-6.0,-6.0,62.0,1645448989.75,P19,D06,1,1,1
315,-6.0,-6.0,62.0,1645448989.78125,P19,D06,1,1,1
316,-6.0,-6.0,62.0,1645448989.8125,P19,D06,1,1,1
317,-6.0,-6.0,62.0,1645448989.84375,P19,D06,1,1,1
318,-7.0,-6.0,62.0,1645448989.875,P19,D06,1,1,1
319,-6.0,-6.0,62.0,1645448989.90625,P19,D06,1,1,1
320,-7.0,-6.0,62.0,1645448989.9375,P19,D06,1,1,1
321,-6.0,-6.0,62.0,1645448989.96875,P19,D06,1,1,1
322,-6.0,-6.0,62.0,1645448990.0,P19,D06,1,1,1
323,-6.0,-6.0,62.0,1645448990.03125,P19,D06,1,1,1
324,-6.0,-6.0,62.0,1645448990.0625,P19,D06,1,1,1
325,-6.0,-6.0,62.0,1645448990.09375,P19,D06,1,1,1
326,-6.0,-6.0,62.0,1645448990.125,P19,D06,1,1,1
327,-7.0,-6.0,62.0,1645448990.15625,P19,D06,1,1,1
328,-6.0,-7.0,62.0,1645448990.1875,P19,D06,1,1,1
329,-6.0,-6.0,62.0,1645448990.21875,P19,D06,1,1,1
330,-6.0,-6.0,62.0,1645448990.25,P19,D06,1,1,1
331,-6.0,-6.0,62.0,1645448990.28125,P19,D06,1,1,1
332,-6.0,-6.0,62.0,1645448990.3125,P19,D06,1,1,1
333,-6.0,-6.0,62.0,1645448990.34375,P19,D06,1,1,1
334,-6.0,-6.0,62.0,1645448990.375,P19,D06,1,1,1
335,-6.0,-6.0,62.0,1645448990.40625,P19,D06,1,1,1
336,-6.0,-6.0,62.0,1645448990.4375,P19,D06,1,1,1
337,-6.0,-6.0,62.0,1645448990.46875,P19,D06,1,1,1
338,-7.0,-6.0,62.0,1645448990.5,P19,D06,1,1,1
339,-6.0,-6.0,61.0,1645448990.53125,P19,D06,1,1,1
340,-6.0,-6.0,62.0,1645448990.5625,P19,D06,1,1,1
341,-7.0,-6.0,62.0,1645448990.59375,P19,D06,1,1,1
342,-6.0,-6.0,62.0,1645448990.625,P19,D06,1,1,1
343,-6.0,-6.0,62.0,1645448990.65625,P19,D06,1,1,1
344,-7.0,-6.0,62.0,1645448990.6875,P19,D06,1,1,1
345,-6.0,-6.0,62.0,1645448990.71875,P19,D06,1,1,1
346,-6.0,-7.0,62.0,1645448990.75,P19,D06,1,1,1
347,-6.0,-6.0,62.0,1645448990.78125,P19,D06,1,1,1
348,-6.0,-6.0,62.0,1645448990.8125,P19,D06,1,1,1
349,-6.0,-6.0,62.0,1645448990.84375,P19,D06,1,1,1
350,-6.0,-6.0,62.0,1645448990.875,P19,D06,1,1,1
351,-7.0,-6.0,62.0,1645448990.90625,P19,D06,1,1,1
352,-6.0,-6.0,62.0,1645448990.9375,P19,D06,1,1,1
353,-6.0,-6.0,62.0,1645448990.96875,P19,D06,1,1,1
354,-6.0,-6.0,62.0,1645448991.0,P19,D06,1,1,1
355,-6.0,-6.0,62.0,1645448991.03125,P19,D06,1,1,1
356,-6.0,-6.0,62.0,1645448991.0625,P19,D06,1,1,1
357,-6.0,-6.0,62.0,1645448991.09375,P19,D06,1,1,1
358,-6.0,-6.0,62.0,1645448991.125,P19,D06,1,1,1
359,-6.0,-6.0,62.0,1645448991.15625,P19,D06,1,1,1
360,-6.0,-6.0,62.0,1645448991.1875,P19,D06,1,1,1
361,-6.0,-6.0,62.0,1645448991.21875,P19,D06,1,1,1
362,-6.0,-7.0,62.0,1645448991.25,P19,D06,1,1,1
363,-6.0,-6.0,62.0,1645448991.28125,P19,D06,1,1,1
364,-6.0,-6.0,62.0,1645448991.3125,P19,D06,1,1,1
365,-6.0,-6.0,62.0,1645448991.34375,P19,D06,1,1,1
366,-6.0,-6.0,62.0,1645448991.375,P19,D06,1,1,1
367,-6.0,-6.0,62.0,1645448991.40625,P19,D06,1,1,1
368,-6.0,-6.0,62.0,1645448991.4375,P19,D06,1,1,1
369,-6.0,-6.0,62.0,1645448991.46875,P19,D06,1,1,1
370,-6.0,-6.0,62.0,1645448991.5,P19,D06,1,1,1
371,-6.0,-6.0,62.0,1645448991.53125,P19,D06,1,1,1
372,-6.0,-6.0,62.0,1645448991.5625,P19,D06,1,1,1
373,-6.0,-6.0,62.0,1645448991.59375,P19,D06,1,1,1
374,-6.0,-6.0,62.0,1645448991.625,P19,D06,1,1,1
375,-6.0,-6.0,62.0,1645448991.65625,P19,D06,1,1,1
376,-6.0,-6.0,62.0,1645448991.6875,P19,D06,1,1,1
377,-6.0,-6.0,62.0,1645448991.71875,P19,D06,1,1,1
378,-6.0,-6.0,62.0,1645448991.75,P19,D06,1,1,1
379,-6.0,-6.0,62.0,1645448991.78125,P19,D06,1,1,1
380,-6.0,-6.0,62.0,1645448991.8125,P19,D06,1,1,1
381,-6.0,-7.0,62.0,1645448991.84375,P19,D06,1,1,1
382,-6.0,-6.0,62.0,1645448991.875,P19,D06,1,1,1
383,-6.0,-6.0,62.0,1645448991.90625,P19,D06,1,1,1
384,-6.0,-6.0,62.0,1645448991.9375,P19,D06,1,1,1
385,-6.0,-6.0,62.0,1645448991.96875,P19,D06,1,1,1
386,-6.0,-6.0,62.0,1645448992.0,P19,D06,1,1,1
387,-6.0,-6.0,62.0,1645448992.03125,P19,D06,1,1,1
388,-6.0,-6.0,62.0,1645448992.0625,P19,D06,1,1,1
389,-6.0,-6.0,62.0,1645448992.09375,P19,D06,1,1,1
390,-6.0,-6.0,62.0,1645448992.125,P19,D06,1,1,1
391,-6.0,-6.0,62.0,1645448992.15625,P19,D06,1,1,1
392,-6.0,-6.0,62.0,1645448992.1875,P19,D06,1,1,1
393,-6.0,-6.0,62.0,1645448992.21875,P19,D06,1,1,1
394,-6.0,-6.0,62.0,1645448992.25,P19,D06,1,1,1
395,-6.0,-6.0,62.0,1645448992.28125,P19,D06,1,1,1
396,-6.0,-6.0,62.0,1645448992.3125,P19,D06,1,1,1
397,-6.0,-6.0,62.0,1645448992.34375,P19,D06,1,1,1
398,-6.0,-6.0,62.0,1645448992.375,P19,D06,1,1,1
399,-6.0,-7.0,62.0,1645448992.40625,P19,D06,1,1,1
400,-6.0,-6.0,62.0,1645448992.4375,P19,D06,1,1,1
401,-5.0,-6.0,62.0,1645448992.46875,P19,D06,1,1,1
402,-6.0,-6.0,62.0,1645448992.5,P19,D06,1,1,1
403,-6.0,-6.0,62.0,1645448992.53125,P19,D06,1,1,1
404,-6.0,-6.0,62.0,1645448992.5625,P19,D06,1,1,1
405,-6.0,-6.0,62.0,1645448992.59375,P19,D06,1,1,1
406,-6.0,-7.0,62.0,1645448992.625,P19,D06,1,1,1
407,-6.0,-7.0,62.0,1645448992.65625,P19,D06,1,1,1
408,-6.0,-6.0,62.0,1645448992.6875,P19,D06,1,1,1
409,-6.0,-6.0,62.0,1645448992.71875,P19,D06,1,1,1
410,-6.0,-6.0,62.0,1645448992.75,P19,D06,1,1,1
411,-6.0,-6.0,62.0,1645448992.78125,P19,D06,1,1,1
412,-6.0,-7.0,62.0,1645448992.8125,P19,D06,1,1,1
413,-6.0,-6.0,62.0,1645448992.84375,P19,D06,1,1,1
414,-6.0,-6.0,62.0,1645448992.875,P19,D06,1,1,1
415,-6.0,-7.0,62.0,1645448992.90625,P19,D06,1,1,1
416,-6.0,-7.0,62.0,1645448992.9375,P19,D06,1,1,1
417,-6.0,-6.0,62.0,1645448992.96875,P19,D06,1,1,1
418,-6.0,-6.0,62.0,1645448993.0,P19,D06,1,1,1
419,-5.0,-7.0,62.0,1645448993.03125,P19,D06,1,1,1
420,-5.0,-7.0,62.0,1645448993.0625,P19,D06,1,1,1
421,-6.0,-7.0,62.0,1645448993.09375,P19,D06,1,1,1
422,-6.0,-6.0,62.0,1645448993.125,P19,D06,1,1,1
423,-6.0,-6.0,62.0,1645448993.15625,P19,D06,1,1,1
424,-5.0,-6.0,62.0,1645448993.1875,P19,D06,1,1,1
425,-6.0,-6.0,62.0,1645448993.21875,P19,D06,1,1,1
426,-6.0,-6.0,62.0,1645448993.25,P19,D06,1,1,1
427,-6.0,-6.0,62.0,1645448993.28125,P19,D06,1,1,1
428,-6.0,-6.0,62.0,1645448993.3125,P19,D06,1,1,1
429,-6.0,-6.0,62.0,1645448993.34375,P19,D06,1,1,1
430,-5.0,-6.0,62.0,1645448993.375,P19,D06,1,1,1
431,-6.0,-6.0,62.0,1645448993.40625,P19,D06,1,1,1
432,-6.0,-7.0,62.0,1645448993.4375,P19,D06,1,1,1
433,-5.0,-7.0,62.0,1645448993.46875,P19,D06,1,1,1
434,-6.0,-6.0,62.0,1645448993.5,P19,D06,1,1,1
435,-6.0,-7.0,62.0,1645448993.53125,P19,D06,1,1,1
436,-6.0,-7.0,62.0,1645448993.5625,P19,D06,1,1,1
437,-6.0,-6.0,62.0,1645448993.59375,P19,D06,1,1,1
438,-6.0,-6.0,62.0,1645448993.625,P19,D06,1,1,1
439,-6.0,-6.0,62.0,1645448993.65625,P19,D06,1,1,1
440,-6.0,-6.0,62.0,1645448993.6875,P19,D06,1,1,1
441,-6.0,-6.0,62.0,1645448993.71875,P19,D06,1,1,1
442,-6.0,-7.0,62.0,1645448993.75,P19,D06,1,1,1
443,-5.0,-6.0,62.0,1645448993.78125,P19,D06,1,1,1
444,-6.0,-6.0,62.0,1645448993.8125,P19,D06,1,1,1
445,-6.0,-6.0,62.0,1645448993.84375,P19,D06,1,1,1
446,-6.0,-6.0,62.0,1645448993.875,P19,D06,1,1,1
447,-6.0,-7.0,62.0,1645448993.90625,P19,D06,1,1,1
448,-6.0,-6.0,62.0,1645448993.9375,P19,D06,1,1,1
449,-6.0,-6.0,62.0,1645448993.96875,P19,D06,1,1,1
450,-6.0,-6.0,62.0,1645448994.0,P19,D06,1,1,1
451,-6.0,-6.0,62.0,1645448994.03125,P19,D06,1,1,1
452,-6.0,-7.0,62.0,1645448994.0625,P19,D06,1,1,1
453,-6.0,-7.0,62.0,1645448994.09375,P19,D06,1,1,1
454,-6.0,-6.0,62.0,1645448994.125,P19,D06,1,1,1
455,-6.0,-6.0,62.0,1645448994.15625,P19,D06,1,1,1
456,-6.0,-6.0,62.0,1645448994.1875,P19,D06,1,1,1
457,-6.0,-6.0,62.0,1645448994.21875,P19,D06,1,1,1
458,-6.0,-6.0,62.0,1645448994.25,P19,D06,1,1,1
459,-6.0,-6.0,62.0,1645448994.28125,P19,D06,1,1,1
460,-6.0,-6.0,62.0,1645448994.3125,P19,D06,1,1,1
461,-6.0,-6.0,62.0,1645448994.34375,P19,D06,1,1,1
462,-6.0,-6.0,62.0,1645448994.375,P19,D06,1,1,1
463,-6.0,-6.0,62.0,1645448994.40625,P19,D06,1,1,1
464,-5.0,-6.0,62.0,1645448994.4375,P19,D06,1,1,1
465,-6.0,-6.0,62.0,1645448994.46875,P19,D06,1,1,1
466,-6.0,-6.0,62.0,1645448994.5,P19,D06,1,1,1
467,-6.0,-6.0,62.0,1645448994.53125,P19,D06,1,1,1
468,-6.0,-6.0,62.0,1645448994.5625,P19,D06,1,1,1
469,-6.0,-6.0,62.0,1645448994.59375,P19,D06,1,1,1
470,-6.0,-6.0,62.0,1645448994.625,P19,D06,1,1,1
471,-6.0,-6.0,62.0,1645448994.65625,P19,D06,1,1,1
472,-6.0,-6.0,62.0,1645448994.6875,P19,D06,1,1,1
473,-6.0,-6.0,62.0,1645448994.71875,P19,D06,1,1,1
474,-4.0,-7.0,62.0,1645448994.75,P19,D06,1,1,1
475,-4.0,-6.0,62.0,1645448994.78125,P19,D06,1,1,1
476,-5.0,-7.0,62.0,1645448994.8125,P19,D06,1,1,1
477,-4.0,-6.0,62.0,1645448994.84375,P19,D06,1,1,1
478,-4.0,-7.0,62.0,1645448994.875,P19,D06,1,1,1
479,-7.0,-6.0,61.0,1645448994.90625,P19,D06,1,1,1
480,-1.0,-7.0,63.0,1645448994.9375,P19,D06,1,1,1
481,-4.0,-7.0,62.0,1645448994.96875,P19,D06,1,1,1
482,-5.0,-6.0,62.0,1645448995.0,P19,D06,1,1,1
483,-4.0,-6.0,62.0,1645448995.03125,P19,D06,1,1,1
484,-4.0,-6.0,62.0,1645448995.0625,P19,D06,1,1,1
485,-4.0,-7.0,62.0,1645448995.09375,P19,D06,1,1,1
486,-5.0,-7.0,62.0,1645448995.125,P19,D06,1,1,1
487,-7.0,-7.0,62.0,1645448995.15625,P19,D06,1,1,1
488,-6.0,-7.0,61.0,1645448995.1875,P19,D06,1,1,1
489,-6.0,-7.0,62.0,1645448995.21875,P19,D06,1,1,1
490,-6.0,-7.0,62.0,1645448995.25,P19,D06,1,1,1
491,-6.0,-7.0,62.0,1645448995.28125,P19,D06,1,1,1
492,-5.0,-6.0,62.0,1645448995.3125,P19,D06,1,1,1
493,-5.0,-6.0,62.0,1645448995.34375,P19,D06,1,1,1
494,-6.0,-7.0,62.0,1645448995.375,P19,D06,1,1,1
495,-5.0,-7.0,62.0,1645448995.40625,P19,D06,1,1,1
496,-5.0,-7.0,62.0,1645448995.4375,P19,D06,1,1,1
497,-5.0,-7.0,62.0,1645448995.46875,P19,D06,1,1,1
498,-6.0,-7.0,62.0,1645448995.5,P19,D06,1,1,1
499,-5.0,-7.0,62.0,1645448995.53125,P19,D06,1,1,1
500,-5.0,-7.0,62.0,1645448995.5625,P19,D06,1,1,1
501,-4.0,-7.0,62.0,1645448995.59375,P19,D06,1,1,1
502,-6.0,-7.0,62.0,1645448995.625,P19,D06,1,1,1
503,-5.0,-7.0,62.0,1645448995.65625,P19,D06,1,1,1
504,-5.0,-7.0,62.0,1645448995.6875,P19,D06,1,1,1
505,-5.0,-7.0,62.0,1645448995.71875,P19,D06,1,1,1
506,-5.0,-7.0,62.0,1645448995.75,P19,D06,1,1,1
507,-5.0,-7.0,62.0,1645448995.78125,P19,D06,1,1,1
508,-5.0,-7.0,62.0,1645448995.8125,P19,D06,1,1,1
509,-5.0,-7.0,62.0,1645448995.84375,P19,D06,1,1,1
510,-5.0,-7.0,62.0,1645448995.875,P19,D06,1,1,1
511,-5.0,-7.0,62.0,1645448995.90625,P19,D06,1,1,1
512,-5.0,-7.0,62.0,1645448995.9375,P19,D06,1,1,1
513,-5.0,-7.0,62.0,1645448995.96875,P19,D06,1,1,1
514,-5.0,-7.0,62.0,1645448996.0,P19,D06,1,1,1
515,-5.0,-7.0,62.0,1645448996.03125,P19,D06,1,1,1
516,-5.0,-7.0,62.0,1645448996.0625,P19,D06,1,1,1
517,-5.0,-7.0,62.0,1645448996.09375,P19,D06,1,1,1
518,-5.0,-7.0,62.0,1645448996.125,P19,D06,1,1,1
519,-5.0,-7.0,62.0,1645448996.15625,P19,D06,1,1,1
520,-5.0,-7.0,62.0,1645448996.1875,P19,D06,1,1,1
521,-5.0,-7.0,62.0,1645448996.21875,P19,D06,1,1,1
522,-5.0,-7.0,62.0,1645448996.25,P19,D06,1,1,1
523,-4.0,-6.0,62.0,1645448996.28125,P19,D06,1,1,1
524,-4.0,-6.0,62.0,1645448996.3125,P19,D06,1,1,1
525,-5.0,-6.0,62.0,1645448996.34375,P19,D06,1,1,1
526,-5.0,-7.0,62.0,1645448996.375,P19,D06,1,1,1
527,-5.0,-6.0,62.0,1645448996.40625,P19,D06,1,1,1
528,-5.0,-7.0,62.0,1645448996.4375,P19,D06,1,1,1
529,-4.0,-7.0,62.0,1645448996.46875,P19,D06,1,1,1
530,-5.0,-7.0,62.0,1645448996.5,P19,D06,1,1,1
531,-5.0,-7.0,62.0,1645448996.53125,P19,D06,1,1,1
532,-5.0,-7.0,62.0,1645448996.5625,P19,D06,1,1,1
533,-5.0,-7.0,62.0,1645448996.59375,P19,D06,1,1,1
534,-5.0,-7.0,62.0,1645448996.625,P19,D06,1,1,1
535,-5.0,-7.0,62.0,1645448996.65625,P19,D06,1,1,1
536,-5.0,-7.0,62.0,1645448996.6875,P19,D06,1,1,1
537,-5.0,-7.0,62.0,1645448996.71875,P19,D06,1,1,1
538,-5.0,-7.0,62.0,1645448996.75,P19,D06,1,1,1
539,-5.0,-7.0,62.0,1645448996.78125,P19,D06,1,1,1
540,-5.0,-7.0,62.0,1645448996.8125,P19,D06,1,1,1
541,-5.0,-7.0,62.0,1645448996.84375,P19,D06,1,1,1
542,-4.0,-7.0,62.0,1645448996.875,P19,D06,1,1,1
543,-4.0,-7.0,62.0,1645448996.90625,P19,D06,1,1,1
544,-5.0,-7.0,62.0,1645448996.9375,P19,D06,1,1,1
545,-5.0,-7.0,62.0,1645448996.96875,P19,D06,1,1,1
546,-4.0,-7.0,62.0,1645448997.0,P19,D06,1,1,1
547,-5.0,-7.0,62.0,1645448997.03125,P19,D06,1,1,1
548,-5.0,-7.0,62.0,1645448997.0625,P19,D06,1,1,1
549,-5.0,-7.0,62.0,1645448997.09375,P19,D06,1,1,1
550,-5.0,-7.0,62.0,1645448997.125,P19,D06,1,1,1
551,-5.0,-7.0,62.0,1645448997.15625,P19,D06,1,1,1
552,-5.0,-7.0,62.0,1645448997.1875,P19,D06,1,1,1
553,-4.0,-7.0,62.0,1645448997.21875,P19,D06,1,1,1
554,-6.0,-7.0,61.0,1645448997.25,P19,D06,1,1,1
555,-5.0,-7.0,62.0,1645448997.28125,P19,D06,1,1,1
556,-5.0,-7.0,62.0,1645448997.3125,P19,D06,1,1,1
557,-5.0,-7.0,62.0,1645448997.34375,P19,D06,1,1,1
558,-5.0,-7.0,62.0,1645448997.375,P19,D06,1,1,1
559,-5.0,-7.0,62.0,1645448997.40625,P19,D06,1,1,1
560,-5.0,-7.0,62.0,1645448997.4375,P19,D06,1,1,1
561,-4.0,-7.0,62.0,1645448997.46875,P19,D06,1,1,1
562,-4.0,-7.0,62.0,1645448997.5,P19,D06,1,1,1
563,-5.0,-6.0,62.0,1645448997.53125,P19,D06,1,1,1
564,-5.0,-7.0,62.0,1645448997.5625,P19,D06,1,1,1
565,-4.0,-7.0,62.0,1645448997.59375,P19,D06,1,1,1
566,-4.0,-7.0,62.0,1645448997.625,P19,D06,1,1,1
567,-5.0,-7.0,62.0,1645448997.65625,P19,D06,1,1,1
568,-4.0,-7.0,62.0,1645448997.6875,P19,D06,1,1,1
569,-5.0,-7.0,62.0,1645448997.71875,P19,D06,1,1,1
570,-5.0,-7.0,62.0,1645448997.75,P19,D06,1,1,1
571,-5.0,-7.0,62.0,1645448997.78125,P19,D06,1,1,1
572,-6.0,-7.0,62.0,1645448997.8125,P19,D06,1,1,1
573,-5.0,-7.0,62.0,1645448997.84375,P19,D06,1,1,1
574,-5.0,-7.0,62.0,1645448997.875,P19,D06,1,1,1
575,-6.0,-7.0,62.0,1645448997.90625,P19,D06,1,1,1
576,-6.0,-7.0,62.0,1645448997.9375,P19,D06,1,1,1
577,-5.0,-7.0,62.0,1645448997.96875,P19,D06,1,1,1
578,-6.0,-7.0,62.0,1645448998.0,P19,D06,1,1,1
579,-5.0,-7.0,62.0,1645448998.03125,P19,D06,1,1,1
580,-6.0,-6.0,62.0,1645448998.0625,P19,D06,1,1,1
581,-6.0,-7.0,62.0,1645448998.09375,P19,D06,1,1,1
582,-5.0,-7.0,62.0,1645448998.125,P19,D06,1,1,1
583,-6.0,-7.0,62.0,1645448998.15625,P19,D06,1,1,1
584,-6.0,-7.0,62.0,1645448998.1875,P19,D06,1,1,1
585,-5.0,-6.0,62.0,1645448998.21875,P19,D06,1,1,1
586,-5.0,-6.0,62.0,1645448998.25,P19,D06,1,1,1
587,-5.0,-7.0,62.0,1645448998.28125,P19,D06,1,1,1
588,-5.0,-7.0,62.0,1645448998.3125,P19,D06,1,1,1
589,-5.0,-7.0,62.0,1645448998.34375,P19,D06,1,1,1
590,-5.0,-7.0,62.0,1645448998.375,P19,D06,1,1,1
591,-5.0,-7.0,62.0,1645448998.40625,P19,D06,1,1,1
592,-5.0,-7.0,62.0,1645448998.4375,P19,D06,1,1,1
593,-5.0,-7.0,62.0,1645448998.46875,P19,D06,1,1,1
594,-5.0,-7.0,62.0,1645448998.5,P19,D06,1,1,1
595,-6.0,-6.0,62.0,1645448998.53125,P19,D06,1,1,1
596,-6.0,-6.0,62.0,1645448998.5625,P19,D06,1,1,1
597,-5.0,-7.0,62.0,1645448998.59375,P19,D06,1,1,1
598,-5.0,-7.0,62.0,1645448998.625,P19,D06,1,1,1
599,-6.0,-6.0,62.0,1645448998.65625,P19,D06,1,1,1
600,-5.0,-7.0,62.0,1645448998.6875,P19,D06,1,1,1
601,-5.0,-7.0,62.0,1645448998.71875,P19,D06,1,1,1
602,-6.0,-6.0,62.0,1645448998.75,P19,D06,1,1,1
603,-5.0,-6.0,62.0,1645448998.78125,P19,D06,1,1,1
604,-5.0,-7.0,62.0,1645448998.8125,P19,D06,1,1,1
605,-5.0,-6.0,62.0,1645448998.84375,P19,D06,1,1,1
606,-6.0,-7.0,62.0,1645448998.875,P19,D06,1,1,1
607,-5.0,-6.0,62.0,1645448998.90625,P19,D06,1,1,1
608,-4.0,-7.0,62.0,1645448998.9375,P19,D06,1,1,1
609,-5.0,-7.0,62.0,1645448998.96875,P19,D06,1,1,1
610,-6.0,-7.0,62.0,1645448999.0,P19,D06,1,1,1
611,-5.0,-7.0,62.0,1645448999.03125,P19,D06,1,1,1
612,-5.0,-7.0,61.0,1645448999.0625,P19,D06,1,1,1
613,-5.0,-6.0,62.0,1645448999.09375,P19,D06,1,1,1
614,-5.0,-7.0,62.0,1645448999.125,P19,D06,1,1,1
615,-5.0,-7.0,62.0,1645448999.15625,P19,D06,1,1,1
616,-5.0,-7.0,62.0,1645448999.1875,P19,D06,1,1,1
617,-6.0,-7.0,62.0,1645448999.21875,P19,D06,1,1,1
618,-6.0,-7.0,62.0,1645448999.25,P19,D06,1,1,1
619,-5.0,-7.0,62.0,1645448999.28125,P19,D06,1,1,1
620,-5.0,-6.0,62.0,1645448999.3125,P19,D06,1,1,1
621,-6.0,-7.0,62.0,1645448999.34375,P19,D06,1,1,1
622,-6.0,-7.0,62.0,1645448999.375,P19,D06,1,1,1
623,-5.0,-7.0,62.0,1645448999.40625,P19,D06,1,1,1
624,-4.0,-7.0,62.0,1645448999.4375,P19,D06,1,1,1
625,-5.0,-7.0,62.0,1645448999.46875,P19,D06,1,1,1
626,-5.0,-7.0,62.0,1645448999.5,P19,D06,1,1,1
627,-4.0,-7.0,62.0,1645448999.53125,P19,D06,1,1,1
628,-5.0,-7.0,62.0,1645448999.5625,P19,D06,1,1,1
629,-5.0,-7.0,62.0,1645448999.59375,P19,D06,1,1,1
630,-5.0,-7.0,62.0,1645448999.625,P19,D06,1,1,1
631,-6.0,-7.0,62.0,1645448999.65625,P19,D06,1,1,1
632,-5.0,-7.0,62.0,1645448999.6875,P19,D06,1,1,1
633,-5.0,-7.0,62.0,1645448999.71875,P19,D06,1,1,1
634,-5.0,-7.0,62.0,1645448999.75,P19,D06,1,1,1
635,-5.0,-7.0,62.0,1645448999.78125,P19,D06,1,1,1
636,-5.0,-7.0,62.0,1645448999.8125,P19,D06,1,1,1
637,-5.0,-7.0,62.0,1645448999.84375,P19,D06,1,1,1
638,-5.0,-7.0,62.0,1645448999.875,P19,D06,1,1,1
639,-4.0,-7.0,62.0,1645448999.90625,P19,D06,1,1,1
640,-5.0,-7.0,62.0,1645448999.9375,P19,D06,1,1,1
641,-6.0,-7.0,62.0,1645448999.96875,P19,D06,1,1,1
642,-5.0,-7.0,62.0,1645449000.0,P19,D06,1,1,1
643,-5.0,-7.0,62.0,1645449000.03125,P19,D06,1,1,1
644,-6.0,-6.0,62.0,1645449000.0625,P19,D06,1,1,1
645,-5.0,-7.0,62.0,1645449000.09375,P19,D06,1,1,1
646,-5.0,-7.0,62.0,1645449000.125,P19,D06,1,1,1
647,-5.0,-7.0,62.0,1645449000.15625,P19,D06,1,1,1
648,-5.0,-6.0,62.0,1645449000.1875,P19,D06,1,1,1
649,-5.0,-7.0,62.0,1645449000.21875,P19,D06,1,1,1
650,-5.0,-7.0,62.0,1645449000.25,P19,D06,1,1,1
651,-5.0,-7.0,62.0,1645449000.28125,P19,D06,1,1,1
652,-5.0,-7.0,62.0,1645449000.3125,P19,D06,1,1,1
653,-5.0,-7.0,62.0,1645449000.34375,P19,D06,1,1,1
654,-5.0,-7.0,62.0,1645449000.375,P19,D06,1,1,1
655,-5.0,-7.0,62.0,1645449000.40625,P19,D06,1,1,1
656,-5.0,-7.0,62.0,1645449000.4375,P19,D06,1,1,1
657,-5.0,-7.0,62.0,1645449000.46875,P19,D06,1,1,1
658,-5.0,-7.0,62.0,1645449000.5,P19,D06,1,1,1
659,-5.0,-7.0,62.0,1645449000.53125,P19,D06,1,1,1
660,-5.0,-7.0,62.0,1645449000.5625,P19,D06,1,1,1
661,-5.0,-7.0,62.0,1645449000.59375,P19,D06,1,1,1
662,-5.0,-7.0,62.0,1645449000.625,P19,D06,1,1,1
663,-5.0,-7.0,62.0,1645449000.65625,P19,D06,1,1,1
664,-5.0,-7.0,62.0,1645449000.6875,P19,D06,1,1,1
665,-5.0,-7.0,62.0,1645449000.71875,P19,D06,1,1,1
666,-5.0,-7.0,62.0,1645449000.75,P19,D06,1,1,1
667,-5.0,-7.0,62.0,1645449000.78125,P19,D06,1,1,1
668,-5.0,-7.0,62.0,1645449000.8125,P19,D06,1,1,1
669,-5.0,-7.0,62.0,1645449000.84375,P19,D06,1,1,1
670,-5.0,-7.0,62.0,1645449000.875,P19,D06,1,1,1
671,-5.0,-7.0,62.0,1645449000.90625,P19,D06,1,1,1
672,-5.0,-7.0,62.0,1645449000.9375,P19,D06,1,1,1
673,-5.0,-7.0,62.0,1645449000.96875,P19,D06,1,1,1
674,-6.0,-6.0,62.0,1645449001.0,P19,D06,1,1,1
675,-5.0,-6.0,62.0,1645449001.03125,P19,D06,1,1,1
676,-5.0,-7.0,62.0,1645449001.0625,P19,D06,1,1,1
677,-5.0,-7.0,62.0,1645449001.09375,P19,D06,1,1,1
678,-5.0,-7.0,62.0,1645449001.125,P19,D06,1,1,1
679,-5.0,-7.0,62.0,1645449001.15625,P19,D06,1,1,1
680,-5.0,-7.0,62.0,1645449001.1875,P19,D06,1,1,1
681,-5.0,-6.0,62.0,1645449001.21875,P19,D06,1,1,1
682,-5.0,-7.0,62.0,1645449001.25,P19,D06,1,1,1
683,-5.0,-7.0,62.0,1645449001.28125,P19,D06,1,1,1
684,-5.0,-7.0,62.0,1645449001.3125,P19,D06,1,1,1
685,-5.0,-7.0,62.0,1645449001.34375,P19,D06,1,1,1
686,-5.0,-7.0,62.0,1645449001.375,P19,D06,1,1,1
687,-5.0,-7.0,62.0,1645449001.40625,P19,D06,1,1,1
688,-5.0,-7.0,62.0,1645449001.4375,P19,D06,1,1,1
689,-5.0,-7.0,62.0,1645449001.46875,P19,D06,1,1,1
690,-6.0,-7.0,62.0,1645449001.5,P19,D06,1,1,1
691,-5.0,-7.0,62.0,1645449001.53125,P19,D06,1,1,1
692,-5.0,-7.0,62.0,1645449001.5625,P19,D06,1,1,1
693,-5.0,-7.0,62.0,1645449001.59375,P19,D06,1,1,1
694,-5.0,-7.0,62.0,1645449001.625,P19,D06,1,1,1
695,-5.0,-7.0,62.0,1645449001.65625,P19,D06,1,1,1
696,-5.0,-6.0,62.0,1645449001.6875,P19,D06,1,1,1
697,-5.0,-7.0,62.0,1645449001.71875,P19,D06,1,1,1
698,-5.0,-7.0,62.0,1645449001.75,P19,D06,1,1,1
699,-5.0,-7.0,62.0,1645449001.78125,P19,D06,1,1,1
700,-5.0,-7.0,62.0,1645449001.8125,P19,D06,1,1,1
701,-5.0,-6.0,62.0,1645449001.84375,P19,D06,1,1,1
702,-5.0,-7.0,62.0,1645449001.875,P19,D06,1,1,1
703,-5.0,-7.0,62.0,1645449001.90625,P19,D06,1,1,1
704,-5.0,-7.0,62.0,1645449001.9375,P19,D06,1,1,1
705,-5.0,-7.0,62.0,1645449001.96875,P19,D06,1,1,1
706,-5.0,-6.0,62.0,1645449002.0,P19,D06,1,1,1
707,-5.0,-7.0,62.0,1645449002.03125,P19,D06,1,1,1
708,-5.0,-7.0,62.0,1645449002.0625,P19,D06,1,1,1
709,-5.0,-7.0,62.0,1645449002.09375,P19,D06,1,1,1
710,-5.0,-7.0,62.0,1645449002.125,P19,D06,1,1,1
711,-5.0,-7.0,62.0,1645449002.15625,P19,D06,1,1,1
712,-6.0,-7.0,62.0,1645449002.1875,P19,D06,1,1,1
713,-5.0,-7.0,62.0,1645449002.21875,P19,D06,1,1,1
714,-5.0,-7.0,62.0,1645449002.25,P19,D06,1,1,1
715,-6.0,-7.0,62.0,1645449002.28125,P19,D06,1,1,1
716,-6.0,-7.0,62.0,1645449002.3125,P19,D06,1,1,1
717,-5.0,-7.0,62.0,1645449002.34375,P19,D06,1,1,1
718,-5.0,-7.0,62.0,1645449002.375,P19,D06,1,1,1
719,-5.0,-7.0,62.0,1645449002.40625,P19,D06,1,1,1
720,-5.0,-7.0,62.0,1645449002.4375,P19,D06,1,1,1
721,-5.0,-7.0,62.0,1645449002.46875,P19,D06,1,1,1
722,-5.0,-7.0,62.0,1645449002.5,P19,D06,1,1,1
723,-5.0,-7.0,62.0,1645449002.53125,P19,D06,1,1,1
724,-5.0,-7.0,62.0,1645449002.5625,P19,D06,1,1,1
725,-5.0,-7.0,62.0,1645449002.59375,P19,D06,1,1,1
726,-6.0,-7.0,62.0,1645449002.625,P19,D06,1,1,1
727,-5.0,-6.0,62.0,1645449002.65625,P19,D06,1,1,1
728,-5.0,-7.0,62.0,1645449002.6875,P19,D06,1,1,1
729,-5.0,-7.0,62.0,1645449002.71875,P19,D06,1,1,1
730,-5.0,-7.0,62.0,1645449002.75,P19,D06,1,1,1
731,-6.0,-6.0,62.0,1645449002.78125,P19,D06,1,1,1
732,-5.0,-7.0,62.0,1645449002.8125,P19,D06,1,1,1
733,-5.0,-7.0,62.0,1645449002.84375,P19,D06,1,1,1
734,-5.0,-7.0,62.0,1645449002.875,P19,D06,1,1,1
735,-5.0,-7.0,62.0,1645449002.90625,P19,D06,1,1,1
736,-5.0,-7.0,62.0,1645449002.9375,P19,D06,1,1,1
737,-5.0,-7.0,62.0,1645449002.96875,P19,D06,1,1,1
738,-6.0,-7.0,62.0,1645449003.0,P19,D06,1,1,1
739,-5.0,-7.0,62.0,1645449003.03125,P19,D06,1,1,1
740,-5.0,-7.0,62.0,1645449003.0625,P19,D06,1,1,1
741,-5.0,-7.0,62.0,1645449003.09375,P19,D06,1,1,1
742,-5.0,-7.0,62.0,1645449003.125,P19,D06,1,1,1
743,-5.0,-7.0,62.0,1645449003.15625,P19,D06,1,1,1
744,-5.0,-7.0,62.0,1645449003.1875,P19,D06,1,1,1
745,-6.0,-7.0,62.0,1645449003.21875,P19,D06,1,1,1
746,-5.0,-7.0,62.0,1645449003.25,P19,D06,1,1,1
747,-5.0,-7.0,62.0,1645449003.28125,P19,D06,1,1,1
748,-5.0,-7.0,62.0,1645449003.3125,P19,D06,1,1,1
749,-5.0,-7.0,62.0,1645449003.34375,P19,D06,1,1,1
750,-5.0,-7.0,62.0,1645449003.375,P19,D06,1,1,1
751,-5.0,-7.0,62.0,1645449003.40625,P19,D06,1,1,1
752,-5.0,-7.0,62.0,1645449003.4375,P19,D06,1,1,1
753,-5.0,-7.0,62.0,1645449003.46875,P19,D06,1,1,1
754,-5.0,-7.0,62.0,1645449003.5,P19,D06,1,1,1
755,-5.0,-7.0,62.0,1645449003.53125,P19,D06,1,1,1
756,-5.0,-7.0,62.0,1645449003.5625,P19,D06,1,1,1
757,-5.0,-7.0,62.0,1645449003.59375,P19,D06,1,1,1
758,-5.0,-7.0,62.0,1645449003.625,P19,D06,1,1,1
759,-6.0,-7.0,62.0,1645449003.65625,P19,D06,1,1,1
760,-6.0,-7.0,62.0,1645449003.6875,P19,D06,1,1,1
761,-4.0,-7.0,62.0,1645449003.71875,P19,D06,1,1,1
762,-6.0,-7.0,62.0,1645449003.75,P19,D06,1,1,1
763,-6.0,-7.0,62.0,1645449003.78125,P19,D06,1,1,1
764,-5.0,-6.0,62.0,1645449003.8125,P19,D06,1,1,1
765,-5.0,-7.0,62.0,1645449003.84375,P19,D06,1,1,1
766,-5.0,-7.0,62.0,1645449003.875,P19,D06,1,1,1
767,-6.0,-7.0,62.0,1645449003.90625,P19,D06,1,1,1
768,-5.0,-6.0,62.0,1645449003.9375,P19,D06,1,1,1
769,-5.0,-7.0,62.0,1645449003.96875,P19,D06,1,1,1
770,-5.0,-7.0,62.0,1645449004.0,P19,D06,1,1,1
771,-5.0,-7.0,62.0,1645449004.03125,P19,D06,1,1,1
772,-5.0,-7.0,62.0,1645449004.0625,P19,D06,1,1,1
773,-5.0,-7.0,62.0,1645449004.09375,P19,D06,1,1,1
774,-5.0,-7.0,62.0,1645449004.125,P19,D06,1,1,1
775,-5.0,-7.0,62.0,1645449004.15625,P19,D06,1,1,1
776,-5.0,-7.0,62.0,1645449004.1875,P19,D06,1,1,1
777,-6.0,-7.0,62.0,1645449004.21875,P19,D06,1,1,1
778,-6.0,-7.0,62.0,1645449004.25,P19,D06,1,1,1
779,-5.0,-7.0,62.0,1645449004.28125,P19,D06,1,1,1
780,-5.0,-6.0,62.0,1645449004.3125,P19,D06,1,1,1
781,-5.0,-7.0,62.0,1645449004.34375,P19,D06,1,1,1
782,-5.0,-7.0,62.0,1645449004.375,P19,D06,1,1,1
783,-6.0,-7.0,62.0,1645449004.40625,P19,D06,1,1,1
784,-6.0,-6.0,62.0,1645449004.4375,P19,D06,1,1,1
785,-5.0,-7.0,62.0,1645449004.46875,P19,D06,1,1,1
786,-6.0,-7.0,62.0,1645449004.5,P19,D06,1,1,1
787,-5.0,-7.0,62.0,1645449004.53125,P19,D06,1,1,1
788,-5.0,-7.0,62.0,1645449004.5625,P19,D06,1,1,1
789,-5.0,-6.0,62.0,1645449004.59375,P19,D06,1,1,1
790,-5.0,-7.0,62.0,1645449004.625,P19,D06,1,1,1
791,-5.0,-7.0,62.0,1645449004.65625,P19,D06,1,1,1
792,-5.0,-7.0,62.0,1645449004.6875,P19,D06,1,1,1
793,-5.0,-7.0,62.0,1645449004.71875,P19,D06,1,1,1
794,-5.0,-7.0,62.0,1645449004.75,P19,D06,1,1,1
795,-6.0,-7.0,62.0,1645449004.78125,P19,D06,1,1,1
796,-5.0,-7.0,62.0,1645449004.8125,P19,D06,1,1,1
797,-5.0,-7.0,62.0,1645449004.84375,P19,D06,1,1,1
798,-5.0,-7.0,62.0,1645449004.875,P19,D06,1,1,1
799,-5.0,-6.0,62.0,1645449004.90625,P19,D06,1,1,1
800,-5.0,-7.0,62.0,1645449004.9375,P19,D06,1,1,1
801,-5.0,-7.0,62.0,1645449004.96875,P19,D06,1,1,1
802,-5.0,-7.0,62.0,1645449005.0,P19,D06,1,1,1
803,-5.0,-7.0,62.0,1645449005.03125,P19,D06,1,1,1
804,-5.0,-7.0,62.0,1645449005.0625,P19,D06,1,1,1
805,-5.0,-7.0,62.0,1645449005.09375,P19,D06,1,1,1
806,-5.0,-7.0,62.0,1645449005.125,P19,D06,1,1,1
807,-5.0,-7.0,62.0,1645449005.15625,P19,D06,1,1,1
808,-5.0,-7.0,62.0,1645449005.1875,P19,D06,1,1,1
809,-5.0,-7.0,62.0,1645449005.21875,P19,D06,1,1,1
810,-5.0,-7.0,62.0,1645449005.25,P19,D06,1,1,1
811,-5.0,-7.0,62.0,1645449005.28125,P19,D06,1,1,1
812,-5.0,-7.0,62.0,1645449005.3125,P19,D06,1,1,1
813,-5.0,-7.0,62.0,1645449005.34375,P19,D06,1,1,1
814,-5.0,-7.0,62.0,1645449005.375,P19,D06,1,1,1
815,-5.0,-7.0,62.0,1645449005.40625,P19,D06,1,1,1
816,-6.0,-7.0,62.0,1645449005.4375,P19,D06,1,1,1
817,-5.0,-7.0,62.0,1645449005.46875,P19,D06,1,1,1
818,-5.0,-7.0,62.0,1645449005.5,P19,D06,1,1,1
819,-5.0,-7.0,62.0,1645449005.53125,P19,D06,1,1,1
820,-5.0,-7.0,62.0,1645449005.5625,P19,D06,1,1,1
821,-5.0,-7.0,62.0,1645449005.59375,P19,D06,1,1,1
822,-5.0,-7.0,62.0,1645449005.625,P19,D06,1,1,1
823,-6.0,-7.0,62.0,1645449005.65625,P19,D06,1,1,1
824,-5.0,-7.0,62.0,1645449005.6875,P19,D06,1,1,1
825,-5.0,-7.0,62.0,1645449005.71875,P19,D06,1,1,1
826,-6.0,-7.0,62.0,1645449005.75,P19,D06,1,1,1
827,-5.0,-7.0,62.0,1645449005.78125,P19,D06,1,1,1
828,-5.0,-7.0,62.0,1645449005.8125,P19,D06,1,1,1
829,-5.0,-7.0,62.0,1645449005.84375,P19,D06,1,1,1
830,-6.0,-7.0,62.0,1645449005.875,P19,D06,1,1,1
831,-5.0,-7.0,62.0,1645449005.90625,P19,D06,1,1,1
832,-3.0,-7.0,62.0,1645449005.9375,P19,D06,1,1,1
833,-5.0,-7.0,62.0,1645449005.96875,P19,D06,1,1,1
834,-6.0,-7.0,61.0,1645449006.0,P19,D06,1,1,1
835,-4.0,-7.0,62.0,1645449006.03125,P19,D06,1,1,1
836,-4.0,-7.0,62.0,1645449006.0625,P19,D06,1,1,1
837,-5.0,-7.0,62.0,1645449006.09375,P19,D06,1,1,1
838,-6.0,-7.0,61.0,1645449006.125,P19,D06,1,1,1
839,-5.0,-7.0,62.0,1645449006.15625,P19,D06,1,1,1
840,-5.0,-7.0,62.0,1645449006.1875,P19,D06,1,1,1
841,-5.0,-7.0,62.0,1645449006.21875,P19,D06,1,1,1
842,-6.0,-7.0,61.0,1645449006.25,P19,D06,1,1,1
843,-5.0,-7.0,62.0,1645449006.28125,P19,D06,1,1,1
844,-5.0,-7.0,62.0,1645449006.3125,P19,D06,1,1,1
845,-5.0,-7.0,61.0,1645449006.34375,P19,D06,1,1,1
846,-5.0,-7.0,62.0,1645449006.375,P19,D06,1,1,1
847,-4.0,-7.0,62.0,1645449006.40625,P19,D06,1,1,1
848,-5.0,-7.0,62.0,1645449006.4375,P19,D06,1,1,1
849,-5.0,-7.0,62.0,1645449006.46875,P19,D06,1,1,1
850,-5.0,-7.0,62.0,1645449006.5,P19,D06,1,1,1
851,-5.0,-7.0,62.0,1645449006.53125,P19,D06,1,1,1
852,-5.0,-7.0,62.0,1645449006.5625,P19,D06,1,1,1
853,-5.0,-7.0,62.0,1645449006.59375,P19,D06,1,1,1
854,-5.0,-7.0,62.0,1645449006.625,P19,D06,1,1,1
855,-5.0,-7.0,62.0,1645449006.65625,P19,D06,1,1,1
856,-5.0,-7.0,62.0,1645449006.6875,P19,D06,1,1,1
857,-5.0,-7.0,62.0,1645449006.71875,P19,D06,1,1,1
858,-5.0,-7.0,62.0,1645449006.75,P19,D06,1,1,1
859,-5.0,-7.0,62.0,1645449006.78125,P19,D06,1,1,1
860,-5.0,-7.0,62.0,1645449006.8125,P19,D06,1,1,1
861,-5.0,-7.0,62.0,1645449006.84375,P19,D06,1,1,1
862,-5.0,-7.0,62.0,1645449006.875,P19,D06,1,1,1
863,-5.0,-7.0,62.0,1645449006.90625,P19,D06,1,1,1
864,-5.0,-7.0,62.0,1645449006.9375,P19,D06,1,1,1
865,-5.0,-7.0,62.0,1645449006.96875,P19,D06,1,1,1
866,-6.0,-7.0,62.0,1645449007.0,P19,D06,1,1,1
867,-5.0,-7.0,62.0,1645449007.03125,P19,D06,1,1,1
868,-4.0,-7.0,62.0,1645449007.0625,P19,D06,1,1,1
869,-5.0,-7.0,62.0,1645449007.09375,P19,D06,1,1,1
870,-5.0,-7.0,62.0,1645449007.125,P19,D06,1,1,1
871,-5.0,-7.0,62.0,1645449007.15625,P19,D06,1,1,1
872,-5.0,-7.0,62.0,1645449007.1875,P19,D06,1,1,1
873,-5.0,-7.0,62.0,1645449007.21875,P19,D06,1,1,1
874,-5.0,-7.0,62.0,1645449007.25,P19,D06,1,1,1
875,-5.0,-7.0,62.0,1645449007.28125,P19,D06,1,1,1
876,-5.0,-7.0,62.0,1645449007.3125,P19,D06,1,1,1
877,-5.0,-7.0,62.0,1645449007.34375,P19,D06,1,1,1
878,-5.0,-7.0,62.0,1645449007.375,P19,D06,1,1,1
879,-5.0,-7.0,62.0,1645449007.40625,P19,D06,1,1,1
880,-5.0,-7.0,62.0,1645449007.4375,P19,D06,1,1,1
881,-5.0,-7.0,62.0,1645449007.46875,P19,D06,1,1,1
882,-5.0,-7.0,62.0,1645449007.5,P19,D06,1,1,1
883,-5.0,-7.0,62.0,1645449007.53125,P19,D06,1,1,1
884,-5.0,-7.0,62.0,1645449007.5625,P19,D06,1,1,1
885,-5.0,-7.0,62.0,1645449007.59375,P19,D06,1,1,1
886,-5.0,-7.0,62.0,1645449007.625,P19,D06,1,1,1
887,-5.0,-7.0,62.0,1645449007.65625,P19,D06,1,1,1
888,-5.0,-7.0,62.0,1645449007.6875,P19,D06,1,1,1
889,-5.0,-7.0,62.0,1645449007.71875,P19,D06,1,1,1
890,-5.0,-7.0,62.0,1645449007.75,P19,D06,1,1,1
891,-5.0,-7.0,62.0,1645449007.78125,P19,D06,1,1,1
892,-5.0,-7.0,62.0,1645449007.8125,P19,D06,1,1,1
893,-5.0,-7.0,62.0,1645449007.84375,P19,D06,1,1,1
894,-5.0,-7.0,62.0,1645449007.875,P19,D06,1,1,1
895,-5.0,-7.0,62.0,1645449007.90625,P19,D06,1,1,1
896,-5.0,-7.0,62.0,1645449007.9375,P19,D06,1,1,1
897,-5.0,-7.0,62.0,1645449007.96875,P19,D06,1,1,1
898,-4.0,-7.0,62.0,1645449008.0,P19,D06,1,1,1
899,-4.0,-7.0,62.0,1645449008.03125,P19,D06,1,1,1
900,-4.0,-7.0,62.0,1645449008.0625,P19,D06,1,1,1
901,-5.0,-7.0,62.0,1645449008.09375,P19,D06,1,1,1
902,-6.0,-7.0,62.0,1645449008.125,P19,D06,1,1,1
903,-5.0,-7.0,62.0,1645449008.15625,P19,D06,1,1,1
904,-4.0,-7.0,62.0,1645449008.1875,P19,D06,1,1,1
905,-5.0,-7.0,62.0,1645449008.21875,P19,D06,1,1,1
906,-5.0,-7.0,62.0,1645449008.25,P19,D06,1,1,1
907,-5.0,-7.0,62.0,1645449008.28125,P19,D06,1,1,1
908,-5.0,-7.0,62.0,1645449008.3125,P19,D06,1,1,1
909,-5.0,-7.0,62.0,1645449008.34375,P19,D06,1,1,1
910,-5.0,-7.0,62.0,1645449008.375,P19,D06,1,1,1
911,-5.0,-7.0,62.0,1645449008.40625,P19,D06,1,1,1
912,-5.0,-7.0,62.0,1645449008.4375,P19,D06,1,1,1
913,-5.0,-7.0,62.0,1645449008.46875,P19,D06,1,1,1
914,-5.0,-7.0,62.0,1645449008.5,P19,D06,1,1,1
915,-5.0,-7.0,62.0,1645449008.53125,P19,D06,1,1,1
916,-5.0,-7.0,62.0,1645449008.5625,P19,D06,1,1,1
917,-4.0,-7.0,62.0,1645449008.59375,P19,D06,1,1,1
918,-5.0,-7.0,62.0,1645449008.625,P19,D06,1,1,1
919,-5.0,-7.0,62.0,1645449008.65625,P19,D06,1,1,1
920,-4.0,-7.0,62.0,1645449008.6875,P19,D06,1,1,1
921,-5.0,-6.0,62.0,1645449008.71875,P19,D06,1,1,1
922,-5.0,-7.0,62.0,1645449008.75,P19,D06,1,1,1
923,-5.0,-7.0,62.0,1645449008.78125,P19,D06,1,1,1
924,-4.0,-7.0,62.0,1645449008.8125,P19,D06,1,1,1
925,-5.0,-6.0,62.0,1645449008.84375,P19,D06,1,1,1
926,-5.0,-7.0,62.0,1645449008.875,P19,D06,1,1,1
927,-5.0,-7.0,62.0,1645449008.90625,P19,D06,1,1,1
928,-5.0,-7.0,62.0,1645449008.9375,P19,D06,1,1,1
929,-5.0,-7.0,62.0,1645449008.96875,P19,D06,1,1,1
930,-5.0,-7.0,62.0,1645449009.0,P19,D06,1,1,1
931,-5.0,-7.0,62.0,1645449009.03125,P19,D06,1,1,1
932,-5.0,-7.0,62.0,1645449009.0625,P19,D06,1,1,1
933,-4.0,-7.0,62.0,1645449009.09375,P19,D06,1,1,1
934,-5.0,-6.0,62.0,1645449009.125,P19,D06,1,1,1
935,-5.0,-7.0,62.0,1645449009.15625,P19,D06,1,1,1
936,-4.0,-7.0,62.0,1645449009.1875,P19,D06,1,1,1
937,-4.0,-7.0,62.0,1645449009.21875,P19,D06,1,1,1
938,-4.0,-7.0,62.0,1645449009.25,P19,D06,1,1,1
939,-5.0,-6.0,62.0,1645449009.28125,P19,D06,1,1,1
940,-5.0,-7.0,62.0,1645449009.3125,P19,D06,1,1,1
941,-4.0,-7.0,62.0,1645449009.34375,P19,D06,1,1,1
942,-4.0,-7.0,62.0,1645449009.375,P19,D06,1,1,1
943,-4.0,-6.0,62.0,1645449009.40625,P19,D06,1,1,1
944,-5.0,-7.0,62.0,1645449009.4375,P19,D06,1,1,1
945,-4.0,-7.0,62.0,1645449009.46875,P19,D06,1,1,1
946,-4.0,-7.0,62.0,1645449009.5,P19,D06,1,1,1
947,-4.0,-7.0,62.0,1645449009.53125,P19,D06,1,1,1
948,-5.0,-7.0,62.0,1645449009.5625,P19,D06,1,1,1
949,-5.0,-7.0,62.0,1645449009.59375,P19,D06,1,1,1
950,-4.0,-7.0,62.0,1645449009.625,P19,D06,1,1,1
951,-5.0,-7.0,62.0,1645449009.65625,P19,D06,1,1,1
952,-4.0,-7.0,62.0,1645449009.6875,P19,D06,1,1,1
953,-4.0,-7.0,62.0,1645449009.71875,P19,D06,1,1,1
954,-4.0,-7.0,62.0,1645449009.75,P19,D06,1,1,1
955,-4.0,-7.0,62.0,1645449009.78125,P19,D06,1,1,1
956,-4.0,-7.0,62.0,1645449009.8125,P19,D06,1,1,1
957,-4.0,-7.0,62.0,1645449009.84375,P19,D06,1,1,1
958,-4.0,-7.0,62.0,1645449009.875,P19,D06,1,1,1
959,-5.0,-7.0,62.0,1645449009.90625,P19,D06,1,1,1
960,-5.0,-7.0,62.0,1645449009.9375,P19,D06,1,1,1
961,-4.0,-7.0,62.0,1645449009.96875,P19,D06,1,1,1
962,-5.0,-7.0,62.0,1645449010.0,P19,D06,1,1,1
963,-4.0,-7.0,62.0,1645449010.03125,P19,D06,1,1,1
964,-4.0,-7.0,62.0,1645449010.0625,P19,D06,1,1,1
965,-5.0,-7.0,62.0,1645449010.09375,P19,D06,1,1,1
966,-4.0,-7.0,62.0,1645449010.125,P19,D06,1,1,1
967,-5.0,-7.0,62.0,1645449010.15625,P19,D06,1,1,1
968,-5.0,-7.0,62.0,1645449010.1875,P19,D06,1,1,1
969,-4.0,-7.0,62.0,1645449010.21875,P19,D06,1,1,1
970,-5.0,-7.0,62.0,1645449010.25,P19,D06,1,1,1
971,-5.0,-7.0,62.0,1645449010.28125,P19,D06,1,1,1
972,-4.0,-7.0,62.0,1645449010.3125,P19,D06,1,1,1
973,-4.0,-7.0,62.0,1645449010.34375,P19,D06,1,1,1
974,-5.0,-7.0,62.0,1645449010.375,P19,D06,1,1,1
975,-5.0,-7.0,62.0,1645449010.40625,P19,D06,1,1,1
976,-4.0,-7.0,62.0,1645449010.4375,P19,D06,1,1,1
977,-4.0,-7.0,62.0,1645449010.46875,P19,D06,1,1,1
978,-5.0,-7.0,62.0,1645449010.5,P19,D06,1,1,1
979,-4.0,-7.0,62.0,1645449010.53125,P19,D06,1,1,1
980,-5.0,-7.0,62.0,1645449010.5625,P19,D06,1,1,1
981,-4.0,-7.0,62.0,1645449010.59375,P19,D06,1,1,1
982,-4.0,-7.0,62.0,1645449010.625,P19,D06,1,1,1
983,-5.0,-7.0,62.0,1645449010.65625,P19,D06,1,1,1
984,-5.0,-7.0,62.0,1645449010.6875,P19,D06,1,1,1
985,-4.0,-7.0,62.0,1645449010.71875,P19,D06,1,1,1
986,-4.0,-7.0,62.0,1645449010.75,P19,D06,1,1,1
987,-4.0,-7.0,62.0,1645449010.78125,P19,D06,1,1,1
988,-5.0,-7.0,62.0,1645449010.8125,P19,D06,1,1,1
989,-5.0,-7.0,62.0,1645449010.84375,P19,D06,1,1,1
990,-4.0,-7.0,62.0,1645449010.875,P19,D06,1,1,1
991,-5.0,-7.0,62.0,1645449010.90625,P19,D06,1,1,1
992,-5.0,-7.0,62.0,1645449010.9375,P19,D06,1,1,1
993,-4.0,-7.0,62.0,1645449010.96875,P19,D06,1,1,1
994,-4.0,-7.0,62.0,1645449011.0,P19,D06,1,1,1
995,-5.0,-7.0,62.0,1645449011.03125,P19,D06,1,1,1
996,-5.0,-7.0,62.0,1645449011.0625,P19,D06,1,1,1
997,-5.0,-7.0,62.0,1645449011.09375,P19,D06,1,1,1
998,-5.0,-7.0,62.0,1645449011.125,P19,D06,1,1,1
999,-5.0,-7.0,62.0,1645449011.15625,P19,D06,1,1,1
1000,-4.0,-7.0,62.0,1645449011.1875,P19,D06,1,1,1
1001,-4.0,-7.0,62.0,1645449011.21875,P19,D06,1,1,1
1002,-4.0,-7.0,62.0,1645449011.25,P19,D06,1,1,1
1003,-5.0,-7.0,62.0,1645449011.28125,P19,D06,1,1,1
1004,-4.0,-7.0,62.0,1645449011.3125,P19,D06,1,1,1
1005,-4.0,-7.0,62.0,1645449011.34375,P19,D06,1,1,1
1006,-4.0,-7.0,62.0,1645449011.375,P19,D06,1,1,1
1007,-7.0,-7.0,61.0,1645449011.40625,P19,D06,1,1,1
1008,-5.0,-7.0,62.0,1645449011.4375,P19,D06,1,1,1
1009,-4.0,-7.0,62.0,1645449011.46875,P19,D06,1,1,1
1010,-5.0,-7.0,62.0,1645449011.5,P19,D06,1,1,1
1011,-5.0,-7.0,62.0,1645449011.53125,P19,D06,1,1,1
1012,-5.0,-7.0,62.0,1645449011.5625,P19,D06,1,1,1
1013,-5.0,-7.0,62.0,1645449011.59375,P19,D06,1,1,1
1014,-5.0,-7.0,62.0,1645449011.625,P19,D06,1,1,1
1015,-5.0,-7.0,62.0,1645449011.65625,P19,D06,1,1,1
1016,-5.0,-7.0,62.0,1645449011.6875,P19,D06,1,1,1
1017,-5.0,-7.0,62.0,1645449011.71875,P19,D06,1,1,1
1018,-5.0,-7.0,62.0,1645449011.75,P19,D06,1,1,1
1019,-5.0,-7.0,62.0,1645449011.78125,P19,D06,1,1,1
1020,-4.0,-7.0,62.0,1645449011.8125,P19,D06,1,1,1
1021,-5.0,-7.0,62.0,1645449011.84375,P19,D06,1,1,1
1022,-5.0,-7.0,62.0,1645449011.875,P19,D06,1,1,1
1023,-5.0,-7.0,62.0,1645449011.90625,P19,D06,1,1,1
1024,-5.0,-7.0,62.0,1645449011.9375,P19,D06,1,1,1
1025,-5.0,-7.0,62.0,1645449011.96875,P19,D06,1,1,1
1026,-5.0,-7.0,62.0,1645449012.0,P19,D06,1,1,1
1027,-5.0,-7.0,62.0,1645449012.03125,P19,D06,1,1,1
1028,-5.0,-7.0,62.0,1645449012.0625,P19,D06,1,1,1
1029,-5.0,-7.0,62.0,1645449012.09375,P19,D06,1,1,1
1030,-5.0,-7.0,62.0,1645449012.125,P19,D06,1,1,1
1031,-5.0,-7.0,62.0,1645449012.15625,P19,D06,1,1,1
1032,-5.0,-7.0,62.0,1645449012.1875,P19,D06,1,1,1
1033,-4.0,-7.0,62.0,1645449012.21875,P19,D06,1,1,1
1034,-4.0,-7.0,62.0,1645449012.25,P19,D06,1,1,1
1035,-4.0,-7.0,62.0,1645449012.28125,P19,D06,1,1,1
1036,-5.0,-7.0,62.0,1645449012.3125,P19,D06,1,1,1
1037,-5.0,-7.0,62.0,1645449012.34375,P19,D06,1,1,1
1038,-4.0,-7.0,62.0,1645449012.375,P19,D06,1,1,1
1039,-4.0,-7.0,62.0,1645449012.40625,P19,D06,1,1,1
1040,-5.0,-7.0,62.0,1645449012.4375,P19,D06,1,1,1
1041,-5.0,-7.0,62.0,1645449012.46875,P19,D06,1,1,1
1042,-4.0,-7.0,62.0,1645449012.5,P19,D06,1,1,1
1043,-5.0,-7.0,62.0,1645449012.53125,P19,D06,1,1,1
1044,-5.0,-7.0,62.0,1645449012.5625,P19,D06,1,1,1
1045,-5.0,-7.0,62.0,1645449012.59375,P19,D06,1,1,1
1046,-5.0,-7.0,62.0,1645449012.625,P19,D06,1,1,1
1047,-4.0,-7.0,62.0,1645449012.65625,P19,D06,1,1,1
1048,-5.0,-7.0,62.0,1645449012.6875,P19,D06,1,1,1
1049,-5.0,-7.0,62.0,1645449012.71875,P19,D06,1,1,1
1050,-4.0,-7.0,62.0,1645449012.75,P19,D06,1,1,1
1051,-5.0,-7.0,62.0,1645449012.78125,P19,D06,1,1,1
1052,-6.0,-7.0,62.0,1645449012.8125,P19,D06,1,1,1
1053,-5.0,-7.0,62.0,1645449012.84375,P19,D06,1,1,1
1054,-4.0,-7.0,62.0,1645449012.875,P19,D06,1,1,1
1055,-5.0,-7.0,62.0,1645449012.90625,P19,D06,1,1,1
1056,-5.0,-7.0,62.0,1645449012.9375,P19,D06,1,1,1
1057,-5.0,-7.0,62.0,1645449012.96875,P19,D06,1,1,1
1058,-5.0,-7.0,62.0,1645449013.0,P19,D06,1,1,1
1059,-5.0,-7.0,62.0,1645449013.03125,P19,D06,1,1,1
1060,-5.0,-7.0,62.0,1645449013.0625,P19,D06,1,1,1
1061,-4.0,-7.0,62.0,1645449013.09375,P19,D06,1,1,1
1062,-4.0,-7.0,62.0,1645449013.125,P19,D06,1,1,1
1063,-5.0,-7.0,62.0,1645449013.15625,P19,D06,1,1,1
1064,-5.0,-7.0,62.0,1645449013.1875,P19,D06,1,1,1
1065,-5.0,-7.0,62.0,1645449013.21875,P19,D06,1,1,1
1066,-5.0,-7.0,62.0,1645449013.25,P19,D06,1,1,1
1067,-5.0,-7.0,62.0,1645449013.28125,P19,D06,1,1,1
1068,-5.0,-7.0,62.0,1645449013.3125,P19,D06,1,1,1
1069,-5.0,-7.0,62.0,1645449013.34375,P19,D06,1,1,1
1070,-5.0,-7.0,62.0,1645449013.375,P19,D06,1,1,1
1071,-5.0,-7.0,61.0,1645449013.40625,P19,D06,1,1,1
1072,-4.0,-7.0,62.0,1645449013.4375,P19,D06,1,1,1
1073,-5.0,-7.0,62.0,1645449013.46875,P19,D06,1,1,1
1074,-5.0,-7.0,62.0,1645449013.5,P19,D06,1,1,1
1075,-5.0,-7.0,62.0,1645449013.53125,P19,D06,1,1,1
1076,-5.0,-7.0,62.0,1645449013.5625,P19,D06,1,1,1
1077,-5.0,-7.0,62.0,1645449013.59375,P19,D06,1,1,1
1078,-5.0,-7.0,62.0,1645449013.625,P19,D06,1,1,1
1079,-5.0,-7.0,62.0,1645449013.65625,P19,D06,1,1,1
1080,-5.0,-7.0,62.0,1645449013.6875,P19,D06,1,1,1
1081,-4.0,-7.0,62.0,1645449013.71875,P19,D06,1,1,1
1082,-5.0,-7.0,62.0,1645449013.75,P19,D06,1,1,1
1083,-6.0,-7.0,62.0,1645449013.78125,P19,D06,1,1,1
1084,-4.0,-7.0,62.0,1645449013.8125,P19,D06,1,1,1
1085,-4.0,-7.0,62.0,1645449013.84375,P19,D06,1,1,1
1086,-5.0,-7.0,62.0,1645449013.875,P19,D06,1,1,1
1087,-5.0,-7.0,62.0,1645449013.90625,P19,D06,1,1,1
1088,-5.0,-7.0,62.0,1645449013.9375,P19,D06,1,1,1
1089,-5.0,-7.0,62.0,1645449013.96875,P19,D06,1,1,1
1090,-5.0,-7.0,62.0,1645449014.0,P19,D06,1,1,1
1091,-5.0,-7.0,62.0,1645449014.03125,P19,D06,1,1,1
1092,-5.0,-7.0,62.0,1645449014.0625,P19,D06,1,1,1
1093,-5.0,-7.0,62.0,1645449014.09375,P19,D06,1,1,1
1094,-5.0,-7.0,62.0,1645449014.125,P19,D06,1,1,1
1095,-5.0,-7.0,62.0,1645449014.15625,P19,D06,1,1,1
1096,-5.0,-7.0,62.0,1645449014.1875,P19,D06,1,1,1
1097,-5.0,-7.0,62.0,1645449014.21875,P19,D06,1,1,1
1098,-5.0,-7.0,62.0,1645449014.25,P19,D06,1,1,1
1099,-5.0,-7.0,62.0,1645449014.28125,P19,D06,1,1,1
1100,-5.0,-7.0,62.0,1645449014.3125,P19,D06,1,1,1
1101,-5.0,-7.0,62.0,1645449014.34375,P19,D06,1,1,1
1102,-5.0,-7.0,62.0,1645449014.375,P19,D06,1,1,1
1103,-5.0,-7.0,62.0,1645449014.40625,P19,D06,1,1,1
1104,-5.0,-7.0,62.0,1645449014.4375,P19,D06,1,1,1
1105,-5.0,-7.0,62.0,1645449014.46875,P19,D06,1,1,1
1106,-5.0,-7.0,62.0,1645449014.5,P19,D06,1,1,1
1107,-5.0,-7.0,62.0,1645449014.53125,P19,D06,1,1,1
1108,-5.0,-7.0,62.0,1645449014.5625,P19,D06,1,1,1
1109,-5.0,-7.0,62.0,1645449014.59375,P19,D06,1,1,1
1110,-5.0,-7.0,62.0,1645449014.625,P19,D06,1,1,1
1111,-5.0,-7.0,62.0,1645449014.65625,P19,D06,1,1,1
1112,-5.0,-7.0,62.0,1645449014.6875,P19,D06,1,1,1
1113,-5.0,-7.0,62.0,1645449014.71875,P19,D06,1,1,1
1114,-5.0,-7.0,62.0,1645449014.75,P19,D06,1,1,1
1115,-5.0,-7.0,62.0,1645449014.78125,P19,D06,1,1,1
1116,-6.0,-6.0,62.0,1645449014.8125,P19,D06,1,1,1
1117,-5.0,-7.0,62.0,1645449014.84375,P19,D06,1,1,1
1118,-5.0,-7.0,62.0,1645449014.875,P19,D06,1,1,1
1119,-5.0,-7.0,62.0,1645449014.90625,P19,D06,1,1,1
1120,-6.0,-6.0,62.0,1645449014.9375,P19,D06,1,1,1
1121,-5.0,-7.0,62.0,1645449014.96875,P19,D06,1,1,1
1122,-5.0,-7.0,62.0,1645449015.0,P19,D06,1,1,1
1123,-5.0,-7.0,62.0,1645449015.03125,P19,D06,1,1,1
1124,-5.0,-7.0,62.0,1645449015.0625,P19,D06,1,1,1
1125,-5.0,-7.0,62.0,1645449015.09375,P19,D06,1,1,1
1126,-5.0,-7.0,62.0,1645449015.125,P19,D06,1,1,1
1127,-5.0,-7.0,62.0,1645449015.15625,P19,D06,1,1,1
1128,-5.0,-7.0,62.0,1645449015.1875,P19,D06,1,1,1
1129,-5.0,-7.0,62.0,1645449015.21875,P19,D06,1,1,1
1130,-5.0,-7.0,62.0,1645449015.25,P19,D06,1,1,1
1131,-5.0,-7.0,62.0,1645449015.28125,P19,D06,1,1,1
1132,-5.0,-7.0,62.0,1645449015.3125,P19,D06,1,1,1
1133,-5.0,-7.0,62.0,1645449015.34375,P19,D06,1,1,1
1134,-5.0,-7.0,62.0,1645449015.375,P19,D06,1,1,1
1135,-6.0,-6.0,62.0,1645449015.40625,P19,D06,1,1,1
1136,-5.0,-7.0,62.0,1645449015.4375,P19,D06,1,1,1
1137,-5.0,-7.0,62.0,1645449015.46875,P19,D06,1,1,1
1138,-6.0,-7.0,62.0,1645449015.5,P19,D06,1,1,1
1139,-5.0,-7.0,62.0,1645449015.53125,P19,D06,1,1,1
1140,-5.0,-7.0,62.0,1645449015.5625,P19,D06,1,1,1
1141,-5.0,-7.0,62.0,1645449015.59375,P19,D06,1,1,1
1142,-5.0,-7.0,62.0,1645449015.625,P19,D06,1,1,1
1143,-6.0,-7.0,62.0,1645449015.65625,P19,D06,1,1,1
1144,-5.0,-7.0,62.0,1645449015.6875,P19,D06,1,1,1
1145,-5.0,-7.0,62.0,1645449015.71875,P19,D06,1,1,1
1146,-6.0,-7.0,62.0,1645449015.75,P19,D06,1,1,1
1147,-5.0,-7.0,62.0,1645449015.78125,P19,D06,1,1,1
1148,-5.0,-7.0,62.0,1645449015.8125,P19,D06,1,1,1
1149,-5.0,-7.0,62.0,1645449015.84375,P19,D06,1,1,1
1150,-5.0,-7.0,62.0,1645449015.875,P19,D06,1,1,1
1151,-5.0,-7.0,62.0,1645449015.90625,P19,D06,1,1,1
1152,-5.0,-7.0,62.0,1645449015.9375,P19,D06,1,1,1
1153,-5.0,-7.0,62.0,1645449015.96875,P19,D06,1,1,1
1154,-5.0,-7.0,62.0,1645449016.0,P19,D06,1,1,1
1155,-5.0,-7.0,62.0,1645449016.03125,P19,D06,1,1,1
1156,-5.0,-7.0,62.0,1645449016.0625,P19,D06,1,1,1
1157,-5.0,-7.0,62.0,1645449016.09375,P19,D06,1,1,1
1158,-6.0,-7.0,62.0,1645449016.125,P19,D06,1,1,1
1159,-5.0,-7.0,62.0,1645449016.15625,P19,D06,1,1,1
1160,-5.0,-7.0,62.0,1645449016.1875,P19,D06,1,1,1
1161,-6.0,-7.0,62.0,1645449016.21875,P19,D06,1,1,1
1162,-5.0,-7.0,62.0,1645449016.25,P19,D06,1,1,1
1163,-5.0,-7.0,62.0,1645449016.28125,P19,D06,1,1,1
1164,-5.0,-7.0,62.0,1645449016.3125,P19,D06,1,1,1
1165,-5.0,-7.0,62.0,1645449016.34375,P19,D06,1,1,1
1166,-5.0,-7.0,62.0,1645449016.375,P19,D06,1,1,1
1167,-5.0,-7.0,62.0,1645449016.40625,P19,D06,1,1,1
1168,-5.0,-7.0,62.0,1645449016.4375,P19,D06,1,1,1
1169,-5.0,-7.0,62.0,1645449016.46875,P19,D06,1,1,1
1170,-6.0,-7.0,62.0,1645449016.5,P19,D06,1,1,1
1171,-5.0,-7.0,62.0,1645449016.53125,P19,D06,1,1,1
1172,-5.0,-7.0,62.0,1645449016.5625,P19,D06,1,1,1
1173,-6.0,-7.0,62.0,1645449016.59375,P19,D06,1,1,1
1174,-6.0,-7.0,62.0,1645449016.625,P19,D06,1,1,1
1175,-5.0,-7.0,62.0,1645449016.65625,P19,D06,1,1,1
1176,-5.0,-7.0,62.0,1645449016.6875,P19,D06,1,1,1
1177,-5.0,-7.0,62.0,1645449016.71875,P19,D06,1,1,1
1178,-6.0,-7.0,62.0,1645449016.75,P19,D06,1,1,1
1179,-5.0,-7.0,62.0,1645449016.78125,P19,D06,1,1,1
1180,-5.0,-7.0,62.0,1645449016.8125,P19,D06,1,1,1
1181,-5.0,-7.0,62.0,1645449016.84375,P19,D06,1,1,1
1182,-5.0,-7.0,62.0,1645449016.875,P19,D06,1,1,1
1183,-5.0,-7.0,62.0,1645449016.90625,P19,D06,1,1,1
1184,-5.0,-7.0,62.0,1645449016.9375,P19,D06,1,1,1
1185,-5.0,-7.0,62.0,1645449016.96875,P19,D06,1,1,1
1186,-5.0,-7.0,62.0,1645449017.0,P19,D06,1,1,1
1187,-5.0,-7.0,62.0,1645449017.03125,P19,D06,1,1,1
1188,-5.0,-7.0,62.0,1645449017.0625,P19,D06,1,1,1
1189,-6.0,-7.0,62.0,1645449017.09375,P19,D06,1,1,1
1190,-5.0,-7.0,62.0,1645449017.125,P19,D06,1,1,1
1191,-5.0,-7.0,62.0,1645449017.15625,P19,D06,1,1,1
1192,-5.0,-7.0,62.0,1645449017.1875,P19,D06,1,1,1
1193,-5.0,-7.0,62.0,1645449017.21875,P19,D06,1,1,1
1194,-5.0,-7.0,62.0,1645449017.25,P19,D06,1,1,1
1195,-5.0,-7.0,62.0,1645449017.28125,P19,D06,1,1,1
1196,-6.0,-7.0,61.0,1645449017.3125,P19,D06,1,1,1
1197,-6.0,-7.0,62.0,1645449017.34375,P19,D06,1,1,1
1198,-5.0,-7.0,62.0,1645449017.375,P19,D06,1,1,1
1199,-6.0,-7.0,62.0,1645449017.40625,P19,D06,1,1,1
1200,-5.0,-7.0,62.0,1645449017.4375,P19,D06,1,1,1
1201,-5.0,-7.0,62.0,1645449017.46875,P19,D06,1,1,1
1202,-5.0,-7.0,62.0,1645449017.5,P19,D06,1,1,1
1203,-5.0,-7.0,62.0,1645449017.53125,P19,D06,1,1,1
1204,-5.0,-7.0,62.0,1645449017.5625,P19,D06,1,1,1
1205,-5.0,-7.0,62.0,1645449017.59375,P19,D06,1,1,1
1206,-5.0,-7.0,62.0,1645449017.625,P19,D06,1,1,1
1207,-5.0,-7.0,62.0,1645449017.65625,P19,D06,1,1,1
1208,-5.0,-7.0,62.0,1645449017.6875,P19,D06,1,1,1
1209,-5.0,-7.0,62.0,1645449017.71875,P19,D06,1,1,1
1210,-6.0,-7.0,62.0,1645449017.75,P19,D06,1,1,1
1211,-6.0,-7.0,62.0,1645449017.78125,P19,D06,1,1,1
1212,-5.0,-7.0,62.0,1645449017.8125,P19,D06,1,1,1
1213,-6.0,-7.0,62.0,1645449017.84375,P19,D06,1,1,1
1214,-5.0,-7.0,62.0,1645449017.875,P19,D06,1,1,1
1215,-5.0,-7.0,62.0,1645449017.90625,P19,D06,1,1,1
1216,-5.0,-7.0,62.0,1645449017.9375,P19,D06,1,1,1
1217,-5.0,-7.0,62.0,1645449017.96875,P19,D06,1,1,1
1218,-5.0,-7.0,62.0,1645449018.0,P19,D06,1,1,1
1219,-6.0,-7.0,62.0,1645449018.03125,P19,D06,1,1,1
1220,-5.0,-7.0,62.0,1645449018.0625,P19,D06,1,1,1
1221,-5.0,-7.0,62.0,1645449018.09375,P19,D06,1,1,1
1222,-5.0,-7.0,62.0,1645449018.125,P19,D06,1,1,1
1223,-5.0,-7.0,62.0,1645449018.15625,P19,D06,1,1,1
1224,-6.0,-7.0,62.0,1645449018.1875,P19,D06,1,1,1
1225,-5.0,-7.0,62.0,1645449018.21875,P19,D06,1,1,1
1226,-5.0,-7.0,62.0,1645449018.25,P19,D06,1,1,1
1227,-5.0,-7.0,62.0,1645449018.28125,P19,D06,1,1,1
1228,-5.0,-7.0,62.0,1645449018.3125,P19,D06,1,1,1
1229,-5.0,-7.0,62.0,1645449018.34375,P19,D06,1,1,1
1230,-5.0,-7.0,62.0,1645449018.375,P19,D06,1,1,1
1231,-6.0,-7.0,62.0,1645449018.40625,P19,D06,1,1,1
1232,-5.0,-7.0,62.0,1645449018.4375,P19,D06,1,1,1
1233,-5.0,-7.0,62.0,1645449018.46875,P19,D06,1,1,1
1234,-5.0,-7.0,62.0,1645449018.5,P19,D06,1,1,1
1235,-6.0,-7.0,62.0,1645449018.53125,P19,D06,1,1,1
1236,-5.0,-7.0,62.0,1645449018.5625,P19,D06,1,1,1
1237,-5.0,-7.0,62.0,1645449018.59375,P19,D06,1,1,1
1238,-6.0,-7.0,62.0,1645449018.625,P19,D06,1,1,1
1239,-6.0,-7.0,62.0,1645449018.65625,P19,D06,1,1,1
1240,-5.0,-7.0,62.0,1645449018.6875,P19,D06,1,1,1
1241,-5.0,-7.0,62.0,1645449018.71875,P19,D06,1,1,1
1242,-5.0,-7.0,62.0,1645449018.75,P19,D06,1,1,1
1243,-6.0,-7.0,62.0,1645449018.78125,P19,D06,1,1,1
1244,-5.0,-7.0,62.0,1645449018.8125,P19,D06,1,1,1
1245,-5.0,-7.0,62.0,1645449018.84375,P19,D06,1,1,1
1246,-5.0,-7.0,62.0,1645449018.875,P19,D06,1,1,1
1247,-5.0,-7.0,62.0,1645449018.90625,P19,D06,1,1,1
1248,-5.0,-7.0,62.0,1645449018.9375,P19,D06,1,1,1
1249,-5.0,-7.0,62.0,1645449018.96875,P19,D06,1,1,1
1250,-5.0,-7.0,62.0,1645449019.0,P19,D06,1,1,1
1251,-5.0,-7.0,62.0,1645449019.03125,P19,D06,1,1,1
1252,-5.0,-7.0,62.0,1645449019.0625,P19,D06,1,1,1
1253,-5.0,-7.0,62.0,1645449019.09375,P19,D06,1,1,1
1254,-5.0,-7.0,62.0,1645449019.125,P19,D06,1,1,1
1255,-5.0,-7.0,62.0,1645449019.15625,P19,D06,1,1,1
1256,-5.0,-7.0,62.0,1645449019.1875,P19,D06,1,1,1
1257,-5.0,-7.0,62.0,1645449019.21875,P19,D06,1,1,1
1258,-5.0,-7.0,62.0,1645449019.25,P19,D06,1,1,1
1259,-6.0,-7.0,62.0,1645449019.28125,P19,D06,1,1,1
1260,-5.0,-7.0,62.0,1645449019.3125,P19,D06,1,1,1
1261,-5.0,-7.0,62.0,1645449019.34375,P19,D06,1,1,1
1262,-6.0,-7.0,61.0,1645449019.375,P19,D06,1,1,1
1263,-6.0,-7.0,62.0,1645449019.40625,P19,D06,1,1,1
1264,-4.0,-7.0,62.0,1645449019.4375,P19,D06,1,1,1
1265,-5.0,-7.0,62.0,1645449019.46875,P19,D06,1,1,1
1266,-6.0,-7.0,62.0,1645449019.5,P19,D06,1,1,1
1267,-5.0,-7.0,62.0,1645449019.53125,P19,D06,1,1,1
1268,-4.0,-7.0,62.0,1645449019.5625,P19,D06,1,1,1
1269,-6.0,-7.0,62.0,1645449019.59375,P19,D06,1,1,1
1270,-5.0,-7.0,62.0,1645449019.625,P19,D06,1,1,1
1271,-5.0,-7.0,62.0,1645449019.65625,P19,D06,1,1,1
1272,-5.0,-7.0,62.0,1645449019.6875,P19,D06,1,1,1
1273,-6.0,-7.0,62.0,1645449019.71875,P19,D06,1,1,1
1274,-5.0,-7.0,62.0,1645449019.75,P19,D06,1,1,1
1275,-5.0,-7.0,62.0,1645449019.78125,P19,D06,1,1,1
1276,-5.0,-7.0,62.0,1645449019.8125,P19,D06,1,1,1
1277,-5.0,-7.0,62.0,1645449019.84375,P19,D06,1,1,1
1278,-5.0,-7.0,62.0,1645449019.875,P19,D06,1,1,1
1279,-6.0,-7.0,62.0,1645449019.90625,P19,D06,1,1,1
1280,-5.0,-7.0,62.0,1645449019.9375,P19,D06,1,1,1
1281,-5.0,-7.0,62.0,1645449019.96875,P19,D06,1,1,1
1282,-6.0,-7.0,62.0,1645449020.0,P19,D06,1,1,1
1283,-6.0,-7.0,61.0,1645449020.03125,P19,D06,1,1,1
1284,-5.0,-7.0,62.0,1645449020.0625,P19,D06,1,1,1
1285,-5.0,-7.0,62.0,1645449020.09375,P19,D06,1,1,1
1286,-6.0,-7.0,62.0,1645449020.125,P19,D06,1,1,1
1287,-5.0,-7.0,62.0,1645449020.15625,P19,D06,1,1,1
1288,-5.0,-7.0,62.0,1645449020.1875,P19,D06,1,1,1
1289,-5.0,-7.0,62.0,1645449020.21875,P19,D06,1,1,1
1290,-5.0,-7.0,62.0,1645449020.25,P19,D06,1,1,1
1291,-5.0,-7.0,62.0,1645449020.28125,P19,D06,1,1,1
1292,-5.0,-7.0,62.0,1645449020.3125,P19,D06,1,1,1
1293,-5.0,-7.0,62.0,1645449020.34375,P19,D06,1,1,1
1294,-6.0,-7.0,62.0,1645449020.375,P19,D06,1,1,1
1295,-5.0,-7.0,62.0,1645449020.40625,P19,D06,1,1,1
1296,-5.0,-7.0,62.0,1645449020.4375,P19,D06,1,1,1
1297,-6.0,-7.0,62.0,1645449020.46875,P19,D06,1,1,1
1298,-6.0,-7.0,61.0,1645449020.5,P19,D06,1,1,1
1299,-5.0,-7.0,62.0,1645449020.53125,P19,D06,1,1,1
1300,-5.0,-7.0,62.0,1645449020.5625,P19,D06,1,1,1
1301,-5.0,-7.0,62.0,1645449020.59375,P19,D06,1,1,1
1302,-5.0,-7.0,62.0,1645449020.625,P19,D06,1,1,1
1303,-5.0,-7.0,62.0,1645449020.65625,P19,D06,1,1,1
1304,-5.0,-7.0,62.0,1645449020.6875,P19,D06,1,1,1
1305,-5.0,-7.0,62.0,1645449020.71875,P19,D06,1,1,1
1306,-5.0,-7.0,62.0,1645449020.75,P19,D06,1,1,1
1307,-5.0,-7.0,62.0,1645449020.78125,P19,D06,1,1,1
1308,-5.0,-6.0,62.0,1645449020.8125,P19,D06,1,1,1
1309,-4.0,-7.0,62.0,1645449020.84375,P19,D06,1,1,1
1310,-6.0,-7.0,62.0,1645449020.875,P19,D06,1,1,1
1311,-6.0,-7.0,62.0,1645449020.90625,P19,D06,1,1,1
1312,-5.0,-7.0,62.0,1645449020.9375,P19,D06,1,1,1
1313,-4.0,-7.0,62.0,1645449020.96875,P19,D06,1,1,1
1314,-5.0,-7.0,62.0,1645449021.0,P19,D06,1,1,1
1315,-5.0,-7.0,62.0,1645449021.03125,P19,D06,1,1,1
1316,-5.0,-7.0,62.0,1645449021.0625,P19,D06,1,1,1
1317,-5.0,-7.0,62.0,1645449021.09375,P19,D06,1,1,1
1318,-5.0,-7.0,62.0,1645449021.125,P19,D06,1,1,1
1319,-6.0,-7.0,62.0,1645449021.15625,P19,D06,1,1,1
1320,-5.0,-7.0,62.0,1645449021.1875,P19,D06,1,1,1
1321,-5.0,-7.0,62.0,1645449021.21875,P19,D06,1,1,1
1322,-5.0,-7.0,62.0,1645449021.25,P19,D06,1,1,1
1323,-5.0,-7.0,62.0,1645449021.28125,P19,D06,1,1,1
1324,-5.0,-7.0,62.0,1645449021.3125,P19,D06,1,1,1
1325,-5.0,-7.0,62.0,1645449021.34375,P19,D06,1,1,1
1326,-5.0,-7.0,62.0,1645449021.375,P19,D06,1,1,1
1327,-5.0,-7.0,62.0,1645449021.40625,P19,D06,1,1,1
1328,-5.0,-7.0,62.0,1645449021.4375,P19,D06,1,1,1
1329,-6.0,-7.0,62.0,1645449021.46875,P19,D06,1,1,1
1330,-5.0,-6.0,62.0,1645449021.5,P19,D06,1,1,1
1331,-4.0,-7.0,62.0,1645449021.53125,P19,D06,1,1,1
1332,-6.0,-7.0,62.0,1645449021.5625,P19,D06,1,1,1
1333,-6.0,-7.0,62.0,1645449021.59375,P19,D06,1,1,1
1334,-4.0,-7.0,62.0,1645449021.625,P19,D06,1,1,1
1335,-5.0,-7.0,62.0,1645449021.65625,P19,D06,1,1,1
1336,-5.0,-7.0,62.0,1645449021.6875,P19,D06,1,1,1
1337,-5.0,-7.0,62.0,1645449021.71875,P19,D06,1,1,1
1338,-5.0,-7.0,62.0,1645449021.75,P19,D06,1,1,1
1339,-5.0,-7.0,62.0,1645449021.78125,P19,D06,1,1,1
1340,-5.0,-7.0,62.0,1645449021.8125,P19,D06,1,1,1
1341,-5.0,-7.0,62.0,1645449021.84375,P19,D06,1,1,1
1342,-5.0,-7.0,62.0,1645449021.875,P19,D06,1,1,1
1343,-5.0,-7.0,62.0,1645449021.90625,P19,D06,1,1,1
1344,-5.0,-7.0,62.0,1645449021.9375,P19,D06,1,1,1
1345,-5.0,-7.0,62.0,1645449021.96875,P19,D06,1,1,1
1346,-5.0,-7.0,62.0,1645449022.0,P19,D06,1,1,1
1347,-5.0,-7.0,62.0,1645449022.03125,P19,D06,1,1,1
1348,-5.0,-7.0,62.0,1645449022.0625,P19,D06,1,1,1
1349,-6.0,-7.0,62.0,1645449022.09375,P19,D06,1,1,1
1350,-5.0,-7.0,62.0,1645449022.125,P19,D06,1,1,1
1351,-5.0,-7.0,62.0,1645449022.15625,P19,D06,1,1,1
1352,-5.0,-7.0,62.0,1645449022.1875,P19,D06,1,1,1
1353,-5.0,-7.0,62.0,1645449022.21875,P19,D06,1,1,1
1354,-5.0,-7.0,62.0,1645449022.25,P19,D06,1,1,1
1355,-5.0,-7.0,62.0,1645449022.28125,P19,D06,1,1,1
1356,-5.0,-7.0,62.0,1645449022.3125,P19,D06,1,1,1
1357,-5.0,-7.0,62.0,1645449022.34375,P19,D06,1,1,1
1358,-6.0,-7.0,62.0,1645449022.375,P19,D06,1,1,1
1359,-5.0,-7.0,62.0,1645449022.40625,P19,D06,1,1,1
1360,-5.0,-7.0,62.0,1645449022.4375,P19,D06,1,1,1
1361,-5.0,-7.0,62.0,1645449022.46875,P19,D06,1,1,1
1362,-5.0,-7.0,62.0,1645449022.5,P19,D06,1,1,1
1363,-5.0,-7.0,62.0,1645449022.53125,P19,D06,1,1,1
1364,-6.0,-7.0,62.0,1645449022.5625,P19,D06,1,1,1
1365,-5.0,-7.0,62.0,1645449022.59375,P19,D06,1,1,1
1366,-5.0,-7.0,62.0,1645449022.625,P19,D06,1,1,1
1367,-5.0,-7.0,62.0,1645449022.65625,P19,D06,1,1,1
1368,-5.0,-7.0,62.0,1645449022.6875,P19,D06,1,1,1
1369,-5.0,-7.0,62.0,1645449022.71875,P19,D06,1,1,1
1370,-5.0,-7.0,62.0,1645449022.75,P19,D06,1,1,1
1371,-5.0,-7.0,62.0,1645449022.78125,P19,D06,1,1,1
1372,-5.0,-7.0,62.0,1645449022.8125,P19,D06,1,1,1
1373,-6.0,-7.0,62.0,1645449022.84375,P19,D06,1,1,1
1374,-5.0,-7.0,62.0,1645449022.875,P19,D06,1,1,1
1375,-5.0,-7.0,62.0,1645449022.90625,P19,D06,1,1,1
1376,-5.0,-7.0,62.0,1645449022.9375,P19,D06,1,1,1
1377,-6.0,-7.0,62.0,1645449022.96875,P19,D06,1,1,1
1378,-5.0,-7.0,62.0,1645449023.0,P19,D06,1,1,1
1379,-5.0,-7.0,62.0,1645449023.03125,P19,D06,1,1,1
1380,-5.0,-7.0,62.0,1645449023.0625,P19,D06,1,1,1
1381,-6.0,-7.0,62.0,1645449023.09375,P19,D06,1,1,1
1382,-5.0,-7.0,62.0,1645449023.125,P19,D06,1,1,1
1383,-5.0,-7.0,62.0,1645449023.15625,P19,D06,1,1,1
1384,-5.0,-7.0,62.0,1645449023.1875,P19,D06,1,1,1
1385,-5.0,-7.0,62.0,1645449023.21875,P19,D06,1,1,1
1386,-5.0,-7.0,62.0,1645449023.25,P19,D06,1,1,1
1387,-5.0,-7.0,62.0,1645449023.28125,P19,D06,1,1,1
1388,-5.0,-7.0,62.0,1645449023.3125,P19,D06,1,1,1
1389,-5.0,-7.0,62.0,1645449023.34375,P19,D06,1,1,1
1390,-5.0,-7.0,62.0,1645449023.375,P19,D06,1,1,1
1391,-5.0,-7.0,62.0,1645449023.40625,P19,D06,1,1,1
1392,-5.0,-7.0,62.0,1645449023.4375,P19,D06,1,1,1
1393,-5.0,-7.0,62.0,1645449023.46875,P19,D06,1,1,1
1394,-5.0,-7.0,62.0,1645449023.5,P19,D06,1,1,1
1395,-6.0,-7.0,62.0,1645449023.53125,P19,D06,1,1,1
1396,-5.0,-7.0,62.0,1645449023.5625,P19,D06,1,1,1
1397,-5.0,-7.0,62.0,1645449023.59375,P19,D06,1,1,1
1398,-5.0,-7.0,62.0,1645449023.625,P19,D06,1,1,1
1399,-5.0,-7.0,62.0,1645449023.65625,P19,D06,1,1,1
1400,-5.0,-7.0,62.0,1645449023.6875,P19,D06,1,1,1
1401,-5.0,-7.0,62.0,1645449023.71875,P19,D06,1,1,1
1402,-5.0,-7.0,62.0,1645449023.75,P19,D06,1,1,1
1403,-5.0,-7.0,62.0,1645449023.78125,P19,D06,1,1,1
1404,-5.0,-7.0,62.0,1645449023.8125,P19,D06,1,1,1
1405,-5.0,-7.0,62.0,1645449023.84375,P19,D06,1,1,1
1406,-5.0,-7.0,62.0,1645449023.875,P19,D06,1,1,1
1407,-5.0,-7.0,62.0,1645449023.90625,P19,D06,1,1,1
1408,-5.0,-7.0,62.0,1645449023.9375,P19,D06,1,1,1
1409,-5.0,-7.0,62.0,1645449023.96875,P19,D06,1,1,1
1410,-5.0,-7.0,62.0,1645449024.0,P19,D06,1,1,1
1411,-5.0,-7.0,62.0,1645449024.03125,P19,D06,1,1,1
1412,-5.0,-7.0,62.0,1645449024.0625,P19,D06,1,1,1
1413,-5.0,-7.0,62.0,1645449024.09375,P19,D06,1,1,1
1414,-5.0,-7.0,62.0,1645449024.125,P19,D06,1,1,1
1415,-5.0,-7.0,62.0,1645449024.15625,P19,D06,1,1,1
1416,-5.0,-7.0,62.0,1645449024.1875,P19,D06,1,1,1
1417,-5.0,-7.0,62.0,1645449024.21875,P19,D06,1,1,1
1418,-5.0,-7.0,62.0,1645449024.25,P19,D06,1,1,1
1419,-5.0,-7.0,62.0,1645449024.28125,P19,D06,1,1,1
1420,-5.0,-7.0,62.0,1645449024.3125,P19,D06,1,1,1
1421,-5.0,-7.0,62.0,1645449024.34375,P19,D06,1,1,1
1422,-5.0,-7.0,62.0,1645449024.375,P19,D06,1,1,1
1423,-5.0,-7.0,62.0,1645449024.40625,P19,D06,1,1,1
1424,-5.0,-7.0,62.0,1645449024.4375,P19,D06,1,1,1
1425,-5.0,-7.0,62.0,1645449024.46875,P19,D06,1,1,1
1426,-5.0,-7.0,62.0,1645449024.5,P19,D06,1,1,1
1427,-5.0,-7.0,62.0,1645449024.53125,P19,D06,1,1,1
1428,-6.0,-7.0,62.0,1645449024.5625,P19,D06,1,1,1
1429,-5.0,-7.0,62.0,1645449024.59375,P19,D06,1,1,1
1430,-5.0,-7.0,62.0,1645449024.625,P19,D06,1,1,1
1431,-5.0,-7.0,62.0,1645449024.65625,P19,D06,1,1,1
1432,-5.0,-7.0,62.0,1645449024.6875,P19,D06,1,1,1
1433,-5.0,-7.0,62.0,1645449024.71875,P19,D06,1,1,1
1434,-5.0,-7.0,62.0,1645449024.75,P19,D06,1,1,1
1435,-5.0,-7.0,62.0,1645449024.78125,P19,D06,1,1,1
1436,-5.0,-7.0,62.0,1645449024.8125,P19,D06,1,1,1
1437,-5.0,-7.0,62.0,1645449024.84375,P19,D06,1,1,1
1438,-5.0,-7.0,62.0,1645449024.875,P19,D06,1,1,1
1439,-5.0,-7.0,62.0,1645449024.90625,P19,D06,1,1,1
1440,-5.0,-7.0,62.0,1645449024.9375,P19,D06,1,1,1
1441,-5.0,-7.0,62.0,1645449024.96875,P19,D06,1,1,1
1442,-5.0,-7.0,62.0,1645449025.0,P19,D06,1,1,1
1443,-5.0,-7.0,62.0,1645449025.03125,P19,D06,1,1,1
1444,-5.0,-7.0,62.0,1645449025.0625,P19,D06,1,1,1
1445,-5.0,-7.0,62.0,1645449025.09375,P19,D06,1,1,1
1446,-5.0,-7.0,62.0,1645449025.125,P19,D06,1,1,1
1447,-5.0,-7.0,62.0,1645449025.15625,P19,D06,1,1,1
1448,-5.0,-7.0,62.0,1645449025.1875,P19,D06,1,1,1
1449,-5.0,-7.0,62.0,1645449025.21875,P19,D06,1,1,1
1450,-5.0,-7.0,62.0,1645449025.25,P19,D06,1,1,1
1451,-5.0,-7.0,62.0,1645449025.28125,P19,D06,1,1,1
1452,-5.0,-7.0,62.0,1645449025.3125,P19,D06,1,1,1
1453,-5.0,-7.0,62.0,1645449025.34375,P19,D06,1,1,1
1454,-5.0,-7.0,62.0,1645449025.375,P19,D06,1,1,1
1455,-5.0,-7.0,62.0,1645449025.40625,P19,D06,1,1,1
1456,-5.0,-7.0,62.0,1645449025.4375,P19,D06,1,1,1
1457,-6.0,-7.0,61.0,1645449025.46875,P19,D06,1,1,1
1458,-8.0,-7.0,61.0,1645449025.5,P19,D06,1,1,1
1459,-4.0,-7.0,62.0,1645449025.53125,P19,D06,1,1,1
1460,-2.0,-6.0,63.0,1645449025.5625,P19,D06,1,1,1
1461,-1.0,-6.0,63.0,1645449025.59375,P19,D06,1,1,1
1462,-5.0,-7.0,62.0,1645449025.625,P19,D06,1,1,1
1463,-6.0,-7.0,61.0,1645449025.65625,P19,D06,1,1,1
1464,-4.0,-7.0,62.0,1645449025.6875,P19,D06,1,1,1
1465,-3.0,-7.0,62.0,1645449025.71875,P19,D06,1,1,1
1466,-5.0,-7.0,62.0,1645449025.75,P19,D06,1,1,1
1467,-5.0,-7.0,62.0,1645449025.78125,P19,D06,1,1,1
1468,-4.0,-7.0,62.0,1645449025.8125,P19,D06,1,1,1
1469,-5.0,-7.0,62.0,1645449025.84375,P19,D06,1,1,1
1470,-6.0,-7.0,61.0,1645449025.875,P19,D06,1,1,1
1471,-4.0,-7.0,62.0,1645449025.90625,P19,D06,1,1,1
1472,-2.0,-7.0,62.0,1645449025.9375,P19,D06,1,1,1
1473,-4.0,-7.0,62.0,1645449025.96875,P19,D06,1,1,1
1474,-5.0,-7.0,62.0,1645449026.0,P19,D06,1,1,1
1475,-4.0,-7.0,62.0,1645449026.03125,P19,D06,1,1,1
1476,-3.0,-7.0,62.0,1645449026.0625,P19,D06,1,1,1
1477,-4.0,-7.0,62.0,1645449026.09375,P19,D06,1,1,1
1478,-5.0,-7.0,62.0,1645449026.125,P19,D06,1,1,1
1479,-4.0,-7.0,62.0,1645449026.15625,P19,D06,1,1,1
1480,-4.0,-7.0,62.0,1645449026.1875,P19,D06,1,1,1
1481,-4.0,-7.0,62.0,1645449026.21875,P19,D06,1,1,1
1482,-4.0,-7.0,62.0,1645449026.25,P19,D06,1,1,1
1483,-4.0,-7.0,62.0,1645449026.28125,P19,D06,1,1,1
1484,-4.0,-7.0,62.0,1645449026.3125,P19,D06,1,1,1
1485,-5.0,-7.0,62.0,1645449026.34375,P19,D06,1,1,1
1486,-5.0,-7.0,62.0,1645449026.375,P19,D06,1,1,1
1487,-4.0,-7.0,62.0,1645449026.40625,P19,D06,1,1,1
1488,-5.0,-7.0,62.0,1645449026.4375,P19,D06,1,1,1
1489,-5.0,-7.0,62.0,1645449026.46875,P19,D06,1,1,1
1490,-4.0,-7.0,62.0,1645449026.5,P19,D06,1,1,1
1491,-4.0,-7.0,62.0,1645449026.53125,P19,D06,1,1,1
1492,-5.0,-7.0,62.0,1645449026.5625,P19,D06,1,1,1
1493,-5.0,-7.0,62.0,1645449026.59375,P19,D06,1,1,1
1494,-6.0,-6.0,62.0,1645449026.625,P19,D06,1,1,1
1495,-5.0,-7.0,62.0,1645449026.65625,P19,D06,1,1,1
1496,-4.0,-7.0,62.0,1645449026.6875,P19,D06,1,1,1
1497,-4.0,-7.0,62.0,1645449026.71875,P19,D06,1,1,1
1498,-4.0,-7.0,62.0,1645449026.75,P19,D06,1,1,1
1499,-4.0,-7.0,62.0,1645449026.78125,P19,D06,1,1,1
1500,-5.0,-7.0,62.0,1645449026.8125,P19,D06,1,1,1
1501,-5.0,-7.0,62.0,1645449026.84375,P19,D06,1,1,1
1502,-5.0,-7.0,62.0,1645449026.875,P19,D06,1,1,1
1503,-4.0,-7.0,62.0,1645449026.90625,P19,D06,1,1,1
1504,-5.0,-7.0,62.0,1645449026.9375,P19,D06,1,1,1
1505,-5.0,-7.0,62.0,1645449026.96875,P19,D06,1,1,1
1506,-5.0,-7.0,62.0,1645449027.0,P19,D06,1,1,1
1507,-5.0,-7.0,62.0,1645449027.03125,P19,D06,1,1,1
1508,-4.0,-7.0,62.0,1645449027.0625,P19,D06,1,1,1
1509,-4.0,-7.0,62.0,1645449027.09375,P19,D06,1,1,1
1510,-4.0,-7.0,62.0,1645449027.125,P19,D06,1,1,1
1511,-5.0,-6.0,62.0,1645449027.15625,P19,D06,1,1,1
1512,-5.0,-7.0,62.0,1645449027.1875,P19,D06,1,1,1
1513,-5.0,-7.0,62.0,1645449027.21875,P19,D06,1,1,1
1514,-5.0,-7.0,62.0,1645449027.25,P19,D06,1,1,1
1515,-5.0,-7.0,62.0,1645449027.28125,P19,D06,1,1,1
1516,-3.0,-7.0,62.0,1645449027.3125,P19,D06,1,1,1
1517,-4.0,-7.0,62.0,1645449027.34375,P19,D06,1,1,1
1518,-6.0,-6.0,62.0,1645449027.375,P19,D06,1,1,1
1519,-4.0,-7.0,62.0,1645449027.40625,P19,D06,1,1,1
1520,-4.0,-7.0,62.0,1645449027.4375,P19,D06,1,1,1
1521,-6.0,-7.0,62.0,1645449027.46875,P19,D06,1,1,1
1522,-5.0,-7.0,62.0,1645449027.5,P19,D06,1,1,1
1523,-5.0,-7.0,62.0,1645449027.53125,P19,D06,1,1,1
1524,-5.0,-7.0,62.0,1645449027.5625,P19,D06,1,1,1
1525,-4.0,-7.0,62.0,1645449027.59375,P19,D06,1,1,1
1526,-3.0,-7.0,62.0,1645449027.625,P19,D06,1,1,1
1527,-5.0,-7.0,62.0,1645449027.65625,P19,D06,1,1,1
1528,-6.0,-7.0,62.0,1645449027.6875,P19,D06,1,1,1
1529,-5.0,-7.0,62.0,1645449027.71875,P19,D06,1,1,1
1530,-4.0,-7.0,62.0,1645449027.75,P19,D06,1,1,1
1531,-4.0,-7.0,62.0,1645449027.78125,P19,D06,1,1,1
1532,-4.0,-7.0,62.0,1645449027.8125,P19,D06,1,1,1
1533,-4.0,-7.0,62.0,1645449027.84375,P19,D06,1,1,1
1534,-5.0,-7.0,62.0,1645449027.875,P19,D06,1,1,1
1535,-5.0,-7.0,62.0,1645449027.90625,P19,D06,1,1,1
1536,-4.0,-7.0,62.0,1645449027.9375,P19,D06,1,1,1
1537,-4.0,-7.0,62.0,1645449027.96875,P19,D06,1,1,1
1538,-5.0,-7.0,62.0,1645449028.0,P19,D06,1,1,1
1539,-5.0,-7.0,62.0,1645449028.03125,P19,D06,1,1,1
1540,-4.0,-7.0,62.0,1645449028.0625,P19,D06,1,1,1
1541,-5.0,-7.0,62.0,1645449028.09375,P19,D06,1,1,1
1542,-5.0,-7.0,62.0,1645449028.125,P19,D06,1,1,1
1543,-5.0,-7.0,62.0,1645449028.15625,P19,D06,1,1,1
1544,-5.0,-6.0,62.0,1645449028.1875,P19,D06,1,1,1
1545,-5.0,-7.0,62.0,1645449028.21875,P19,D06,1,1,1
1546,-5.0,-7.0,62.0,1645449028.25,P19,D06,1,1,1
1547,-5.0,-7.0,62.0,1645449028.28125,P19,D06,1,1,1
1548,-5.0,-7.0,62.0,1645449028.3125,P19,D06,1,1,1
1549,-5.0,-7.0,62.0,1645449028.34375,P19,D06,1,1,1
1550,-5.0,-7.0,62.0,1645449028.375,P19,D06,1,1,1
1551,-5.0,-7.0,62.0,1645449028.40625,P19,D06,1,1,1
1552,-5.0,-7.0,62.0,1645449028.4375,P19,D06,1,1,1
1553,-5.0,-7.0,62.0,1645449028.46875,P19,D06,1,1,1
1554,-5.0,-7.0,62.0,1645449028.5,P19,D06,1,1,1
1555,-5.0,-7.0,62.0,1645449028.53125,P19,D06,1,1,1
1556,-5.0,-7.0,62.0,1645449028.5625,P19,D06,1,1,1
1557,-5.0,-7.0,62.0,1645449028.59375,P19,D06,1,1,1
1558,-5.0,-7.0,62.0,1645449028.625,P19,D06,1,1,1
1559,-5.0,-7.0,62.0,1645449028.65625,P19,D06,1,1,1
1560,-4.0,-7.0,62.0,1645449028.6875,P19,D06,1,1,1
1561,-4.0,-7.0,62.0,1645449028.71875,P19,D06,1,1,1
1562,-5.0,-7.0,62.0,1645449028.75,P19,D06,1,1,1
1563,-5.0,-6.0,62.0,1645449028.78125,P19,D06,1,1,1
1564,-5.0,-7.0,62.0,1645449028.8125,P19,D06,1,1,1
1565,-5.0,-7.0,62.0,1645449028.84375,P19,D06,1,1,1
1566,-5.0,-7.0,62.0,1645449028.875,P19,D06,1,1,1
1567,-6.0,-7.0,62.0,1645449028.90625,P19,D06,1,1,1
1568,-5.0,-7.0,62.0,1645449028.9375,P19,D06,1,1,1
1569,-4.0,-7.0,62.0,1645449028.96875,P19,D06,1,1,1
1570,-5.0,-7.0,62.0,1645449029.0,P19,D06,1,1,1
1571,-5.0,-7.0,62.0,1645449029.03125,P19,D06,1,1,1
1572,-4.0,-7.0,62.0,1645449029.0625,P19,D06,1,1,1
1573,-5.0,-7.0,62.0,1645449029.09375,P19,D06,1,1,1
1574,-6.0,-7.0,62.0,1645449029.125,P19,D06,1,1,1
1575,-5.0,-7.0,62.0,1645449029.15625,P19,D06,1,1,1
1576,-5.0,-7.0,62.0,1645449029.1875,P19,D06,1,1,1
1577,-6.0,-7.0,62.0,1645449029.21875,P19,D06,1,1,1
1578,-6.0,-7.0,61.0,1645449029.25,P19,D06,1,1,1
1579,-5.0,-7.0,62.0,1645449029.28125,P19,D06,1,1,1
1580,-5.0,-7.0,62.0,1645449029.3125,P19,D06,1,1,1
1581,-5.0,-7.0,62.0,1645449029.34375,P19,D06,1,1,1
1582,-5.0,-7.0,62.0,1645449029.375,P19,D06,1,1,1
1583,-4.0,-7.0,62.0,1645449029.40625,P19,D06,1,1,1
1584,-5.0,-7.0,62.0,1645449029.4375,P19,D06,1,1,1
1585,-5.0,-7.0,62.0,1645449029.46875,P19,D06,1,1,1
1586,-6.0,-7.0,62.0,1645449029.5,P19,D06,1,1,1
1587,-5.0,-7.0,62.0,1645449029.53125,P19,D06,1,1,1
1588,-5.0,-7.0,62.0,1645449029.5625,P19,D06,1,1,1
1589,-6.0,-7.0,62.0,1645449029.59375,P19,D06,1,1,1
1590,-6.0,-7.0,62.0,1645449029.625,P19,D06,1,1,1
1591,-5.0,-7.0,62.0,1645449029.65625,P19,D06,1,1,1
1592,-5.0,-7.0,62.0,1645449029.6875,P19,D06,1,1,1
1593,-5.0,-7.0,62.0,1645449029.71875,P19,D06,1,1,1
1594,-5.0,-7.0,62.0,1645449029.75,P19,D06,1,1,1
1595,-5.0,-7.0,62.0,1645449029.78125,P19,D06,1,1,1
1596,-5.0,-7.0,62.0,1645449029.8125,P19,D06,1,1,1
1597,-5.0,-7.0,62.0,1645449029.84375,P19,D06,1,1,1
1598,-6.0,-6.0,62.0,1645449029.875,P19,D06,1,1,1
1599,-6.0,-7.0,62.0,1645449029.90625,P19,D06,1,1,1
1600,-5.0,-7.0,62.0,1645449029.9375,P19,D06,1,1,1
1601,-4.0,-7.0,62.0,1645449029.96875,P19,D06,1,1,1
1602,-6.0,-7.0,62.0,1645449030.0,P19,D06,1,1,1
1603,-5.0,-7.0,62.0,1645449030.03125,P19,D06,1,1,1
1604,-5.0,-7.0,62.0,1645449030.0625,P19,D06,1,1,1
1605,-6.0,-7.0,62.0,1645449030.09375,P19,D06,1,1,1
1606,-6.0,-7.0,62.0,1645449030.125,P19,D06,1,1,1
1607,-7.0,-6.0,62.0,1645449030.15625,P19,D06,1,1,1
1608,-8.0,-6.0,62.0,1645449030.1875,P19,D06,1,1,1
1609,-8.0,-6.0,61.0,1645449030.21875,P19,D06,1,1,1
1610,-8.0,-6.0,62.0,1645449030.25,P19,D06,1,1,1
1611,-7.0,-7.0,61.0,1645449030.28125,P19,D06,1,1,1
1612,-7.0,-7.0,62.0,1645449030.3125,P19,D06,1,1,1
1613,-7.0,-7.0,62.0,1645449030.34375,P19,D06,1,1,1
1614,-7.0,-7.0,62.0,1645449030.375,P19,D06,1,1,1
1615,-7.0,-6.0,62.0,1645449030.40625,P19,D06,1,1,1
1616,-7.0,-7.0,62.0,1645449030.4375,P19,D06,1,1,1
1617,-6.0,-7.0,62.0,1645449030.46875,P19,D06,1,1,1
1618,-7.0,-7.0,62.0,1645449030.5,P19,D06,1,1,1
1619,-8.0,-6.0,62.0,1645449030.53125,P19,D06,1,1,1
1620,-8.0,-6.0,61.0,1645449030.5625,P19,D06,1,1,1
1621,-8.0,-6.0,62.0,1645449030.59375,P19,D06,1,1,1
1622,-7.0,-7.0,62.0,1645449030.625,P19,D06,1,1,1
1623,-8.0,-7.0,61.0,1645449030.65625,P19,D06,1,1,1
1624,-7.0,-6.0,62.0,1645449030.6875,P19,D06,1,1,1
1625,-7.0,-6.0,62.0,1645449030.71875,P19,D06,1,1,1
1626,-7.0,-6.0,62.0,1645449030.75,P19,D06,1,1,1
1627,-7.0,-7.0,62.0,1645449030.78125,P19,D06,1,1,1
1628,-7.0,-6.0,62.0,1645449030.8125,P19,D06,1,1,1
1629,-7.0,-6.0,62.0,1645449030.84375,P19,D06,1,1,1
1630,-7.0,-6.0,62.0,1645449030.875,P19,D06,1,1,1
1631,-8.0,-6.0,62.0,1645449030.90625,P19,D06,1,1,1
1632,-7.0,-6.0,62.0,1645449030.9375,P19,D06,1,1,1
1633,-7.0,-6.0,62.0,1645449030.96875,P19,D06,1,1,1
1634,-7.0,-6.0,62.0,1645449031.0,P19,D06,1,1,1
1635,-9.0,-6.0,61.0,1645449031.03125,P19,D06,1,1,1
1636,-9.0,-7.0,62.0,1645449031.0625,P19,D06,1,1,1
1637,-8.0,-6.0,62.0,1645449031.09375,P19,D06,1,1,1
1638,-8.0,-7.0,61.0,1645449031.125,P19,D06,1,1,1
1639,-8.0,-7.0,62.0,1645449031.15625,P19,D06,1,1,1
1640,-8.0,-6.0,62.0,1645449031.1875,P19,D06,1,1,1
1641,-8.0,-7.0,61.0,1645449031.21875,P19,D06,1,1,1
1642,-8.0,-7.0,62.0,1645449031.25,P19,D06,1,1,1
1643,-8.0,-7.0,62.0,1645449031.28125,P19,D06,1,1,1
1644,-8.0,-7.0,61.0,1645449031.3125,P19,D06,1,1,1
1645,-8.0,-7.0,61.0,1645449031.34375,P19,D06,1,1,1
1646,-7.0,-6.0,62.0,1645449031.375,P19,D06,1,1,1
1647,-8.0,-6.0,62.0,1645449031.40625,P19,D06,1,1,1
1648,-9.0,-7.0,61.0,1645449031.4375,P19,D06,1,1,1
1649,-8.0,-7.0,62.0,1645449031.46875,P19,D06,1,1,1
1650,-7.0,-7.0,62.0,1645449031.5,P19,D06,1,1,1
1651,-8.0,-6.0,62.0,1645449031.53125,P19,D06,1,1,1
1652,-8.0,-6.0,62.0,1645449031.5625,P19,D06,1,1,1
1653,-8.0,-7.0,61.0,1645449031.59375,P19,D06,1,1,1
1654,-8.0,-6.0,62.0,1645449031.625,P19,D06,1,1,1
1655,-7.0,-7.0,62.0,1645449031.65625,P19,D06,1,1,1
1656,-8.0,-7.0,62.0,1645449031.6875,P19,D06,1,1,1
1657,-8.0,-7.0,62.0,1645449031.71875,P19,D06,1,1,1
1658,-7.0,-7.0,62.0,1645449031.75,P19,D06,1,1,1
1659,-7.0,-6.0,62.0,1645449031.78125,P19,D06,1,1,1
1660,-8.0,-6.0,62.0,1645449031.8125,P19,D06,1,1,1
1661,-8.0,-6.0,62.0,1645449031.84375,P19,D06,1,1,1
1662,-8.0,-7.0,62.0,1645449031.875,P19,D06,1,1,1
1663,-8.0,-7.0,62.0,1645449031.90625,P19,D06,1,1,1
1664,-7.0,-6.0,62.0,1645449031.9375,P19,D06,1,1,1
1665,-8.0,-7.0,61.0,1645449031.96875,P19,D06,1,1,1
1666,-7.0,-7.0,62.0,1645449032.0,P19,D06,1,1,1
1667,-8.0,-7.0,62.0,1645449032.03125,P19,D06,1,1,1
1668,-8.0,-7.0,61.0,1645449032.0625,P19,D06,1,1,1
1669,-7.0,-7.0,62.0,1645449032.09375,P19,D06,1,1,1
1670,-7.0,-7.0,62.0,1645449032.125,P19,D06,1,1,1
1671,-8.0,-7.0,61.0,1645449032.15625,P19,D06,1,1,1
1672,-8.0,-7.0,62.0,1645449032.1875,P19,D06,1,1,1
1673,-7.0,-6.0,62.0,1645449032.21875,P19,D06,1,1,1
1674,-8.0,-7.0,62.0,1645449032.25,P19,D06,1,1,1
1675,-8.0,-7.0,62.0,1645449032.28125,P19,D06,1,1,1
1676,-7.0,-7.0,62.0,1645449032.3125,P19,D06,1,1,1
1677,-7.0,-7.0,62.0,1645449032.34375,P19,D06,1,1,1
1678,-7.0,-7.0,62.0,1645449032.375,P19,D06,1,1,1
1679,-8.0,-7.0,62.0,1645449032.40625,P19,D06,1,1,1
1680,-7.0,-7.0,62.0,1645449032.4375,P19,D06,1,1,1
1681,-7.0,-7.0,62.0,1645449032.46875,P19,D06,1,1,1
1682,-7.0,-7.0,62.0,1645449032.5,P19,D06,1,1,1
1683,-7.0,-7.0,62.0,1645449032.53125,P19,D06,1,1,1
1684,-8.0,-7.0,62.0,1645449032.5625,P19,D06,1,1,1
1685,-8.0,-7.0,62.0,1645449032.59375,P19,D06,1,1,1
1686,-8.0,-7.0,62.0,1645449032.625,P19,D06,1,1,1
1687,-7.0,-7.0,62.0,1645449032.65625,P19,D06,1,1,1
1688,-7.0,-7.0,62.0,1645449032.6875,P19,D06,1,1,1
1689,-8.0,-7.0,62.0,1645449032.71875,P19,D06,1,1,1
1690,-7.0,-7.0,62.0,1645449032.75,P19,D06,1,1,1
1691,-7.0,-7.0,62.0,1645449032.78125,P19,D06,1,1,1
1692,-7.0,-7.0,62.0,1645449032.8125,P19,D06,1,1,1
1693,-7.0,-7.0,62.0,1645449032.84375,P19,D06,1,1,1
1694,-7.0,-7.0,62.0,1645449032.875,P19,D06,1,1,1
1695,-8.0,-7.0,61.0,1645449032.90625,P19,D06,1,1,1
1696,-7.0,-7.0,62.0,1645449032.9375,P19,D06,1,1,1
1697,-7.0,-7.0,62.0,1645449032.96875,P19,D06,1,1,1
1698,-8.0,-7.0,62.0,1645449033.0,P19,D06,1,1,1
1699,-7.0,-7.0,62.0,1645449033.03125,P19,D06,1,1,1
1700,-7.0,-7.0,62.0,1645449033.0625,P19,D06,1,1,1
1701,-7.0,-7.0,62.0,1645449033.09375,P19,D06,1,1,1
1702,-7.0,-7.0,62.0,1645449033.125,P19,D06,1,1,1
1703,-8.0,-7.0,61.0,1645449033.15625,P19,D06,1,1,1
1704,-7.0,-7.0,62.0,1645449033.1875,P19,D06,1,1,1
1705,-7.0,-7.0,62.0,1645449033.21875,P19,D06,1,1,1
1706,-8.0,-7.0,62.0,1645449033.25,P19,D06,1,1,1
1707,-7.0,-7.0,62.0,1645449033.28125,P19,D06,1,1,1
1708,-7.0,-7.0,62.0,1645449033.3125,P19,D06,1,1,1
1709,-7.0,-7.0,62.0,1645449033.34375,P19,D06,1,1,1
1710,-7.0,-7.0,61.0,1645449033.375,P19,D06,1,1,1
1711,-7.0,-7.0,62.0,1645449033.40625,P19,D06,1,1,1
1712,-6.0,-6.0,62.0,1645449033.4375,P19,D06,1,1,1
1713,-7.0,-6.0,62.0,1645449033.46875,P19,D06,1,1,1
1714,-6.0,-7.0,62.0,1645449033.5,P19,D06,1,1,1
1715,-5.0,-7.0,62.0,1645449033.53125,P19,D06,1,1,1
1716,-8.0,-6.0,62.0,1645449033.5625,P19,D06,1,1,1
1717,-6.0,-6.0,62.0,1645449033.59375,P19,D06,1,1,1
1718,-5.0,-7.0,62.0,1645449033.625,P19,D06,1,1,1
1719,-9.0,-7.0,61.0,1645449033.65625,P19,D06,1,1,1
1720,-6.0,-6.0,62.0,1645449033.6875,P19,D06,1,1,1
1721,-5.0,-7.0,62.0,1645449033.71875,P19,D06,1,1,1
1722,-8.0,-7.0,61.0,1645449033.75,P19,D06,1,1,1
1723,-5.0,-6.0,62.0,1645449033.78125,P19,D06,1,1,1
1724,-3.0,-7.0,62.0,1645449033.8125,P19,D06,1,1,1
1725,-7.0,-7.0,62.0,1645449033.84375,P19,D06,1,1,1
1726,-7.0,-7.0,61.0,1645449033.875,P19,D06,1,1,1
1727,-6.0,-7.0,62.0,1645449033.90625,P19,D06,1,1,1
1728,-6.0,-7.0,62.0,1645449033.9375,P19,D06,1,1,1
1729,-5.0,-7.0,62.0,1645449033.96875,P19,D06,1,1,1
1730,-4.0,-7.0,62.0,1645449034.0,P19,D06,1,1,1
1731,-6.0,-6.0,62.0,1645449034.03125,P19,D06,1,1,1
1732,-7.0,-7.0,62.0,1645449034.0625,P19,D06,1,1,1
1733,-10.0,-9.0,61.0,1645449034.09375,P19,D06,1,1,1
1734,-7.0,-7.0,61.0,1645449034.125,P19,D06,1,1,1
1735,-4.0,-7.0,62.0,1645449034.15625,P19,D06,1,1,1
1736,-5.0,-6.0,62.0,1645449034.1875,P19,D06,1,1,1
1737,-6.0,-7.0,62.0,1645449034.21875,P19,D06,1,1,1
1738,-5.0,-9.0,62.0,1645449034.25,P19,D06,1,1,1
1739,-5.0,-7.0,62.0,1645449034.28125,P19,D06,1,1,1
1740,-5.0,-7.0,62.0,1645449034.3125,P19,D06,1,1,1
1741,-7.0,-8.0,61.0,1645449034.34375,P19,D06,1,1,1
1742,-6.0,-5.0,62.0,1645449034.375,P19,D06,1,1,1
1743,-5.0,-6.0,62.0,1645449034.40625,P19,D06,1,1,1
1744,-5.0,-6.0,62.0,1645449034.4375,P19,D06,1,1,1
1745,-4.0,-7.0,62.0,1645449034.46875,P19,D06,1,1,1
1746,-7.0,-8.0,61.0,1645449034.5,P19,D06,1,1,1
1747,-5.0,-7.0,62.0,1645449034.53125,P19,D06,1,1,1
1748,-3.0,-6.0,62.0,1645449034.5625,P19,D06,1,1,1
1749,-9.0,-7.0,61.0,1645449034.59375,P19,D06,1,1,1
1750,-6.0,-7.0,62.0,1645449034.625,P19,D06,1,1,1
1751,-1.0,-6.0,62.0,1645449034.65625,P19,D06,1,1,1
1752,-1.0,-6.0,62.0,1645449034.6875,P19,D06,1,1,1
1753,-6.0,-6.0,62.0,1645449034.71875,P19,D06,1,1,1
1754,-8.0,-7.0,61.0,1645449034.75,P19,D06,1,1,1
1755,-6.0,-8.0,62.0,1645449034.78125,P19,D06,1,1,1
1756,-6.0,-7.0,62.0,1645449034.8125,P19,D06,1,1,1
1757,-7.0,-6.0,62.0,1645449034.84375,P19,D06,1,1,1
1758,-5.0,-6.0,62.0,1645449034.875,P19,D06,1,1,1
1759,-5.0,-7.0,62.0,1645449034.90625,P19,D06,1,1,1
1760,-5.0,-7.0,62.0,1645449034.9375,P19,D06,1,1,1
1761,-7.0,-8.0,61.0,1645449034.96875,P19,D06,1,1,1
1762,-7.0,-6.0,62.0,1645449035.0,P19,D06,1,1,1
1763,-4.0,-6.0,62.0,1645449035.03125,P19,D06,1,1,1
1764,-4.0,-7.0,62.0,1645449035.0625,P19,D06,1,1,1
1765,-6.0,-7.0,61.0,1645449035.09375,P19,D06,1,1,1
1766,-6.0,-7.0,61.0,1645449035.125,P19,D06,1,1,1
1767,-4.0,-7.0,62.0,1645449035.15625,P19,D06,1,1,1
1768,-5.0,-8.0,62.0,1645449035.1875,P19,D06,1,1,1
1769,-6.0,-7.0,62.0,1645449035.21875,P19,D06,1,1,1
1770,-5.0,-6.0,62.0,1645449035.25,P19,D06,1,1,1
1771,-6.0,-7.0,62.0,1645449035.28125,P19,D06,1,1,1
1772,-8.0,-8.0,62.0,1645449035.3125,P19,D06,1,1,1
1773,-5.0,-7.0,62.0,1645449035.34375,P19,D06,1,1,1
1774,-6.0,-7.0,62.0,1645449035.375,P19,D06,1,1,1
1775,-7.0,-7.0,62.0,1645449035.40625,P19,D06,1,1,1
1776,-7.0,-7.0,62.0,1645449035.4375,P19,D06,1,1,1
1777,-5.0,-6.0,62.0,1645449035.46875,P19,D06,1,1,1
1778,-6.0,-7.0,61.0,1645449035.5,P19,D06,1,1,1
1779,-7.0,-7.0,61.0,1645449035.53125,P19,D06,1,1,1
1780,-5.0,-7.0,62.0,1645449035.5625,P19,D06,1,1,1
1781,-4.0,-6.0,62.0,1645449035.59375,P19,D06,1,1,1
1782,-7.0,-7.0,62.0,1645449035.625,P19,D06,1,1,1
1783,-8.0,-6.0,61.0,1645449035.65625,P19,D06,1,1,1
1784,-6.0,-7.0,62.0,1645449035.6875,P19,D06,1,1,1
1785,-5.0,-7.0,62.0,1645449035.71875,P19,D06,1,1,1
1786,-3.0,-7.0,62.0,1645449035.75,P19,D06,1,1,1
1787,-4.0,-7.0,62.0,1645449035.78125,P19,D06,1,1,1
1788,-4.0,-6.0,62.0,1645449035.8125,P19,D06,1,1,1
1789,-5.0,-6.0,62.0,1645449035.84375,P19,D06,1,1,1
1790,-5.0,-7.0,62.0,1645449035.875,P19,D06,1,1,1
1791,-5.0,-7.0,62.0,1645449035.90625,P19,D06,1,1,1
1792,-6.0,-7.0,62.0,1645449035.9375,P19,D06,1,1,1
1793,-6.0,-6.0,62.0,1645449035.96875,P19,D06,1,1,1
1794,-5.0,-7.0,62.0,1645449036.0,P19,D06,1,1,1
1795,-4.0,-6.0,62.0,1645449036.03125,P19,D06,1,1,1
1796,-3.0,-5.0,62.0,1645449036.0625,P19,D06,1,1,1
1797,-5.0,-6.0,62.0,1645449036.09375,P19,D06,1,1,1
1798,-7.0,-7.0,61.0,1645449036.125,P19,D06,1,1,1
1799,-10.0,-8.0,61.0,1645449036.15625,P19,D06,1,1,1
1800,-8.0,-7.0,61.0,1645449036.1875,P19,D06,1,1,1
1801,-1.0,-8.0,62.0,1645449036.21875,P19,D06,1,1,1
1802,-7.0,-6.0,61.0,1645449036.25,P19,D06,1,1,1
1803,-8.0,-6.0,61.0,1645449036.28125,P19,D06,1,1,1
1804,-7.0,-7.0,62.0,1645449036.3125,P19,D06,1,1,1
1805,-6.0,-5.0,62.0,1645449036.34375,P19,D06,1,1,1
1806,-4.0,-8.0,62.0,1645449036.375,P19,D06,1,1,1
1807,-5.0,-7.0,62.0,1645449036.40625,P19,D06,1,1,1
1808,-4.0,-7.0,62.0,1645449036.4375,P19,D06,1,1,1
1809,-4.0,-7.0,62.0,1645449036.46875,P19,D06,1,1,1
1810,-4.0,-7.0,62.0,1645449036.5,P19,D06,1,1,1
1811,-4.0,-7.0,62.0,1645449036.53125,P19,D06,1,1,1
1812,-4.0,-7.0,62.0,1645449036.5625,P19,D06,1,1,1
1813,-5.0,-7.0,62.0,1645449036.59375,P19,D06,1,1,1
1814,-4.0,-6.0,62.0,1645449036.625,P19,D06,1,1,1
1815,-5.0,-7.0,62.0,1645449036.65625,P19,D06,1,1,1
1816,-5.0,-6.0,62.0,1645449036.6875,P19,D06,1,1,1
1817,-6.0,-6.0,62.0,1645449036.71875,P19,D06,1,1,1
1818,-6.0,-6.0,62.0,1645449036.75,P19,D06,1,1,1
1819,-4.0,-7.0,62.0,1645449036.78125,P19,D06,1,1,1
1820,-5.0,-7.0,62.0,1645449036.8125,P19,D06,1,1,1
1821,-6.0,-6.0,62.0,1645449036.84375,P19,D06,1,1,1
1822,-6.0,-6.0,62.0,1645449036.875,P19,D06,1,1,1
1823,-5.0,-7.0,62.0,1645449036.90625,P19,D06,1,1,1
1824,-6.0,-7.0,62.0,1645449036.9375,P19,D06,1,1,1
1825,-5.0,-6.0,62.0,1645449036.96875,P19,D06,1,1,1
1826,-4.0,-6.0,62.0,1645449037.0,P19,D06,1,1,1
1827,-5.0,-6.0,62.0,1645449037.03125,P19,D06,1,1,1
1828,-5.0,-6.0,62.0,1645449037.0625,P19,D06,1,1,1
1829,-4.0,-6.0,62.0,1645449037.09375,P19,D06,1,1,1
1830,-4.0,-6.0,62.0,1645449037.125,P19,D06,1,1,1
1831,-5.0,-6.0,62.0,1645449037.15625,P19,D06,1,1,1
1832,-6.0,-6.0,62.0,1645449037.1875,P19,D06,1,1,1
1833,-6.0,-6.0,62.0,1645449037.21875,P19,D06,1,1,1
1834,-4.0,-7.0,62.0,1645449037.25,P19,D06,1,1,1
1835,-4.0,-6.0,62.0,1645449037.28125,P19,D06,1,1,1
1836,-4.0,-6.0,62.0,1645449037.3125,P19,D06,1,1,1
1837,-5.0,-7.0,62.0,1645449037.34375,P19,D06,1,1,1
1838,-6.0,-7.0,62.0,1645449037.375,P19,D06,1,1,1
1839,-5.0,-7.0,62.0,1645449037.40625,P19,D06,1,1,1
1840,-4.0,-6.0,62.0,1645449037.4375,P19,D06,1,1,1
1841,-4.0,-6.0,62.0,1645449037.46875,P19,D06,1,1,1
1842,-4.0,-7.0,62.0,1645449037.5,P19,D06,1,1,1
1843,-4.0,-6.0,62.0,1645449037.53125,P19,D06,1,1,1
1844,-2.0,-8.0,62.0,1645449037.5625,P19,D06,1,1,1
1845,-8.0,-5.0,62.0,1645449037.59375,P19,D06,1,1,1
1846,-4.0,-6.0,62.0,1645449037.625,P19,D06,1,1,1
1847,-6.0,-7.0,62.0,1645449037.65625,P19,D06,1,1,1
1848,-6.0,-6.0,62.0,1645449037.6875,P19,D06,1,1,1
1849,-2.0,-7.0,62.0,1645449037.71875,P19,D06,1,1,1
1850,-5.0,-7.0,62.0,1645449037.75,P19,D06,1,1,1
1851,-6.0,-7.0,62.0,1645449037.78125,P19,D06,1,1,1
1852,-5.0,-7.0,62.0,1645449037.8125,P19,D06,1,1,1
1853,-4.0,-7.0,62.0,1645449037.84375,P19,D06,1,1,1
1854,-8.0,-7.0,61.0,1645449037.875,P19,D06,1,1,1
1855,-8.0,-6.0,61.0,1645449037.90625,P19,D06,1,1,1
1856,-3.0,-7.0,62.0,1645449037.9375,P19,D06,1,1,1
1857,-4.0,-8.0,62.0,1645449037.96875,P19,D06,1,1,1
1858,-6.0,-8.0,61.0,1645449038.0,P19,D06,1,1,1
1859,-4.0,-7.0,62.0,1645449038.03125,P19,D06,1,1,1
1860,-3.0,-7.0,62.0,1645449038.0625,P19,D06,1,1,1
1861,-5.0,-7.0,62.0,1645449038.09375,P19,D06,1,1,1
1862,-7.0,-6.0,62.0,1645449038.125,P19,D06,1,1,1
1863,-7.0,-7.0,62.0,1645449038.15625,P19,D06,1,1,1
1864,-5.0,-7.0,62.0,1645449038.1875,P19,D06,1,1,1
1865,-5.0,-7.0,62.0,1645449038.21875,P19,D06,1,1,1
1866,-5.0,-7.0,62.0,1645449038.25,P19,D06,1,1,1
1867,-4.0,-7.0,62.0,1645449038.28125,P19,D06,1,1,1
1868,-5.0,-7.0,62.0,1645449038.3125,P19,D06,1,1,1
1869,-5.0,-7.0,61.0,1645449038.34375,P19,D06,1,1,1
1870,-6.0,-6.0,62.0,1645449038.375,P19,D06,1,1,1
1871,-4.0,-6.0,62.0,1645449038.40625,P19,D06,1,1,1
1872,-6.0,-7.0,62.0,1645449038.4375,P19,D06,1,1,1
1873,-8.0,-7.0,61.0,1645449038.46875,P19,D06,1,1,1
1874,-4.0,-6.0,62.0,1645449038.5,P19,D06,1,1,1
1875,-5.0,-7.0,62.0,1645449038.53125,P19,D06,1,1,1
1876,-7.0,-7.0,62.0,1645449038.5625,P19,D06,1,1,1
1877,-5.0,-6.0,62.0,1645449038.59375,P19,D06,1,1,1
1878,-5.0,-6.0,62.0,1645449038.625,P19,D06,1,1,1
1879,-6.0,-7.0,62.0,1645449038.65625,P19,D06,1,1,1
1880,-4.0,-7.0,62.0,1645449038.6875,P19,D06,1,1,1
1881,-5.0,-6.0,62.0,1645449038.71875,P19,D06,1,1,1
1882,-5.0,-6.0,62.0,1645449038.75,P19,D06,1,1,1
1883,-5.0,-6.0,62.0,1645449038.78125,P19,D06,1,1,1
1884,-5.0,-6.0,62.0,1645449038.8125,P19,D06,1,1,1
1885,-6.0,-6.0,62.0,1645449038.84375,P19,D06,1,1,1
1886,-6.0,-6.0,62.0,1645449038.875,P19,D06,1,1,1
1887,-5.0,-6.0,62.0,1645449038.90625,P19,D06,1,1,1
1888,-6.0,-6.0,62.0,1645449038.9375,P19,D06,1,1,1
1889,-4.0,-6.0,62.0,1645449038.96875,P19,D06,1,1,1
1890,-5.0,-7.0,62.0,1645449039.0,P19,D06,1,1,1
1891,-6.0,-6.0,62.0,1645449039.03125,P19,D06,1,1,1
1892,-5.0,-5.0,62.0,1645449039.0625,P19,D06,1,1,1
1893,-6.0,-6.0,62.0,1645449039.09375,P19,D06,1,1,1
1894,-6.0,-6.0,62.0,1645449039.125,P19,D06,1,1,1
1895,-5.0,-6.0,62.0,1645449039.15625,P19,D06,1,1,1
1896,-5.0,-6.0,62.0,1645449039.1875,P19,D06,1,1,1
1897,-5.0,-6.0,62.0,1645449039.21875,P19,D06,1,1,1
1898,-5.0,-6.0,62.0,1645449039.25,P19,D06,1,1,1
1899,-4.0,-6.0,62.0,1645449039.28125,P19,D06,1,1,1
1900,-6.0,-6.0,62.0,1645449039.3125,P19,D06,1,1,1
1901,-6.0,-6.0,62.0,1645449039.34375,P19,D06,1,1,1
1902,-4.0,-6.0,62.0,1645449039.375,P19,D06,1,1,1
1903,-5.0,-6.0,62.0,1645449039.40625,P19,D06,1,1,1
1904,-6.0,-6.0,62.0,1645449039.4375,P19,D06,1,1,1
1905,-5.0,-6.0,62.0,1645449039.46875,P19,D06,1,1,1
1906,-5.0,-6.0,62.0,1645449039.5,P19,D06,1,1,1
1907,-5.0,-6.0,62.0,1645449039.53125,P19,D06,1,1,1
1908,-5.0,-6.0,62.0,1645449039.5625,P19,D06,1,1,1
1909,-5.0,-6.0,62.0,1645449039.59375,P19,D06,1,1,1
1910,-6.0,-6.0,62.0,1645449039.625,P19,D06,1,1,1
1911,-5.0,-6.0,62.0,1645449039.65625,P19,D06,1,1,1
1912,-5.0,-7.0,62.0,1645449039.6875,P19,D06,1,1,1
1913,-6.0,-6.0,62.0,1645449039.71875,P19,D06,1,1,1
1914,-5.0,-6.0,62.0,1645449039.75,P19,D06,1,1,1
1915,-4.0,-6.0,62.0,1645449039.78125,P19,D06,1,1,1
1916,-5.0,-6.0,62.0,1645449039.8125,P19,D06,1,1,1
1917,-5.0,-6.0,62.0,1645449039.84375,P19,D06,1,1,1
1918,-6.0,-6.0,62.0,1645449039.875,P19,D06,1,1,1
1919,-5.0,-6.0,62.0,1645449039.90625,P19,D06,1,1,1
1920,-5.0,-6.0,62.0,1645449039.9375,P19,D06,1,1,1
1921,-5.0,-6.0,62.0,1645449039.96875,P19,D06,1,1,1
1922,-6.0,-6.0,62.0,1645449040.0,P19,D06,1,1,1
1923,-4.0,-6.0,62.0,1645449040.03125,P19,D06,1,1,1
1924,-4.0,-6.0,62.0,1645449040.0625,P19,D06,1,1,1
1925,-6.0,-6.0,62.0,1645449040.09375,P19,D06,1,1,1
1926,-5.0,-6.0,62.0,1645449040.125,P19,D06,1,1,1
1927,-4.0,-6.0,62.0,1645449040.15625,P19,D06,1,1,1
1928,-4.0,-6.0,62.0,1645449040.1875,P19,D06,1,1,1
1929,-6.0,-6.0,62.0,1645449040.21875,P19,D06,1,1,1
1930,-6.0,-6.0,62.0,1645449040.25,P19,D06,1,1,1
1931,-4.0,-6.0,62.0,1645449040.28125,P19,D06,1,1,1
1932,-5.0,-6.0,62.0,1645449040.3125,P19,D06,1,1,1
1933,-5.0,-6.0,62.0,1645449040.34375,P19,D06,1,1,1
1934,-4.0,-6.0,62.0,1645449040.375,P19,D06,1,1,1
1935,-5.0,-6.0,62.0,1645449040.40625,P19,D06,1,1,1
1936,-5.0,-6.0,62.0,1645449040.4375,P19,D06,1,1,1
1937,-5.0,-6.0,62.0,1645449040.46875,P19,D06,1,1,1
1938,-5.0,-6.0,62.0,1645449040.5,P19,D06,1,1,1
1939,-5.0,-6.0,62.0,1645449040.53125,P19,D06,1,1,1
1940,-5.0,-6.0,62.0,1645449040.5625,P19,D06,1,1,1
1941,-4.0,-6.0,62.0,1645449040.59375,P19,D06,1,1,1
1942,-5.0,-8.0,62.0,1645449040.625,P19,D06,1,1,1
1943,-7.0,-6.0,61.0,1645449040.65625,P19,D06,1,1,1
1944,-5.0,-6.0,62.0,1645449040.6875,P19,D06,1,1,1
1945,-4.0,-6.0,62.0,1645449040.71875,P19,D06,1,1,1
1946,-4.0,-7.0,62.0,1645449040.75,P19,D06,1,1,1
1947,-6.0,-6.0,61.0,1645449040.78125,P19,D06,1,1,1
1948,-6.0,-5.0,62.0,1645449040.8125,P19,D06,1,1,1
1949,-4.0,-6.0,62.0,1645449040.84375,P19,D06,1,1,1
1950,-4.0,-7.0,62.0,1645449040.875,P19,D06,1,1,1
1951,-6.0,-6.0,62.0,1645449040.90625,P19,D06,1,1,1
1952,-6.0,-6.0,62.0,1645449040.9375,P19,D06,1,1,1
1953,-5.0,-6.0,62.0,1645449040.96875,P19,D06,1,1,1
1954,-5.0,-6.0,62.0,1645449041.0,P19,D06,1,1,1
1955,-5.0,-6.0,62.0,1645449041.03125,P19,D06,1,1,1
1956,-5.0,-6.0,62.0,1645449041.0625,P19,D06,1,1,1
1957,-5.0,-6.0,62.0,1645449041.09375,P19,D06,1,1,1
1958,-5.0,-6.0,62.0,1645449041.125,P19,D06,1,1,1
1959,-5.0,-6.0,62.0,1645449041.15625,P19,D06,1,1,1
1960,-4.0,-7.0,62.0,1645449041.1875,P19,D06,1,1,1
1961,-4.0,-7.0,62.0,1645449041.21875,P19,D06,1,1,1
1962,-6.0,-6.0,62.0,1645449041.25,P19,D06,1,1,1
1963,-5.0,-7.0,62.0,1645449041.28125,P19,D06,1,1,1
1964,-5.0,-6.0,62.0,1645449041.3125,P19,D06,1,1,1
1965,-5.0,-7.0,62.0,1645449041.34375,P19,D06,1,1,1
1966,-5.0,-6.0,62.0,1645449041.375,P19,D06,1,1,1
1967,-5.0,-7.0,62.0,1645449041.40625,P19,D06,1,1,1
1968,-5.0,-7.0,62.0,1645449041.4375,P19,D06,1,1,1
1969,-5.0,-7.0,62.0,1645449041.46875,P19,D06,1,1,1
1970,-5.0,-6.0,62.0,1645449041.5,P19,D06,1,1,1
1971,-5.0,-6.0,62.0,1645449041.53125,P19,D06,1,1,1
1972,-5.0,-6.0,62.0,1645449041.5625,P19,D06,1,1,1
1973,-5.0,-7.0,62.0,1645449041.59375,P19,D06,1,1,1
1974,-5.0,-7.0,62.0,1645449041.625,P19,D06,1,1,1
1975,-5.0,-7.0,62.0,1645449041.65625,P19,D06,1,1,1
1976,-5.0,-6.0,62.0,1645449041.6875,P19,D06,1,1,1
1977,-5.0,-6.0,62.0,1645449041.71875,P19,D06,1,1,1
1978,-5.0,-6.0,62.0,1645449041.75,P19,D06,1,1,1
1979,-5.0,-6.0,62.0,1645449041.78125,P19,D06,1,1,1
1980,-5.0,-6.0,62.0,1645449041.8125,P19,D06,1,1,1
1981,-5.0,-6.0,62.0,1645449041.84375,P19,D06,1,1,1
1982,-5.0,-6.0,62.0,1645449041.875,P19,D06,1,1,1
1983,-5.0,-6.0,62.0,1645449041.90625,P19,D06,1,1,1
1984,-5.0,-6.0,62.0,1645449041.9375,P19,D06,1,1,1
1985,-5.0,-7.0,62.0,1645449041.96875,P19,D06,1,1,1
1986,-5.0,-6.0,62.0,1645449042.0,P19,D06,1,1,1
1987,-5.0,-6.0,62.0,1645449042.03125,P19,D06,1,1,1
1988,-5.0,-6.0,62.0,1645449042.0625,P19,D06,1,1,1
1989,-5.0,-6.0,62.0,1645449042.09375,P19,D06,1,1,1
1990,-6.0,-6.0,62.0,1645449042.125,P19,D06,1,1,1
1991,-5.0,-6.0,62.0,1645449042.15625,P19,D06,1,1,1
1992,-5.0,-6.0,62.0,1645449042.1875,P19,D06,1,1,1
1993,-5.0,-7.0,62.0,1645449042.21875,P19,D06,1,1,1
1994,-5.0,-7.0,62.0,1645449042.25,P19,D06,1,1,1
1995,-5.0,-7.0,62.0,1645449042.28125,P19,D06,1,1,1
1996,-5.0,-7.0,62.0,1645449042.3125,P19,D06,1,1,1
1997,-5.0,-6.0,62.0,1645449042.34375,P19,D06,1,1,1
1998,-6.0,-6.0,62.0,1645449042.375,P19,D06,1,1,1
1999,-5.0,-7.0,62.0,1645449042.40625,P19,D06,1,1,1
2000,-6.0,-7.0,62.0,1645449042.4375,P19,D06,1,1,1
2001,-5.0,-6.0,62.0,1645449042.46875,P19,D06,1,1,1
2002,-5.0,-7.0,62.0,1645449042.5,P19,D06,1,1,1
2003,-5.0,-7.0,62.0,1645449042.53125,P19,D06,1,1,1
2004,-5.0,-7.0,62.0,1645449042.5625,P19,D06,1,1,1
2005,-5.0,-7.0,61.0,1645449042.59375,P19,D06,1,1,1
2006,-4.0,-7.0,62.0,1645449042.625,P19,D06,1,1,1
2007,-4.0,-7.0,62.0,1645449042.65625,P19,D06,1,1,1
2008,-6.0,-7.0,62.0,1645449042.6875,P19,D06,1,1,1
2009,-6.0,-7.0,62.0,1645449042.71875,P19,D06,1,1,1
2010,-6.0,-7.0,62.0,1645449042.75,P19,D06,1,1,1
2011,-6.0,-7.0,62.0,1645449042.78125,P19,D06,1,1,1
2012,-5.0,-7.0,62.0,1645449042.8125,P19,D06,1,1,1
2013,-5.0,-7.0,62.0,1645449042.84375,P19,D06,1,1,1
2014,-6.0,-7.0,62.0,1645449042.875,P19,D06,1,1,1
2015,-5.0,-7.0,62.0,1645449042.90625,P19,D06,1,1,1
2016,-5.0,-7.0,62.0,1645449042.9375,P19,D06,1,1,1
2017,-6.0,-7.0,62.0,1645449042.96875,P19,D06,1,1,1
2018,-6.0,-7.0,62.0,1645449043.0,P19,D06,1,1,1
2019,-5.0,-7.0,62.0,1645449043.03125,P19,D06,1,1,1
2020,-5.0,-7.0,62.0,1645449043.0625,P19,D06,1,1,1
2021,-6.0,-7.0,62.0,1645449043.09375,P19,D06,1,1,1
2022,-5.0,-7.0,62.0,1645449043.125,P19,D06,1,1,1
2023,-5.0,-7.0,62.0,1645449043.15625,P19,D06,1,1,1
2024,-5.0,-7.0,62.0,1645449043.1875,P19,D06,1,1,1
2025,-5.0,-7.0,62.0,1645449043.21875,P19,D06,1,1,1
2026,-5.0,-7.0,62.0,1645449043.25,P19,D06,1,1,1
2027,-5.0,-7.0,62.0,1645449043.28125,P19,D06,1,1,1
2028,-6.0,-7.0,62.0,1645449043.3125,P19,D06,1,1,1
2029,-6.0,-7.0,62.0,1645449043.34375,P19,D06,1,1,1
2030,-5.0,-7.0,62.0,1645449043.375,P19,D06,1,1,1
2031,-5.0,-7.0,62.0,1645449043.40625,P19,D06,1,1,1
2032,-6.0,-7.0,62.0,1645449043.4375,P19,D06,1,1,1
2033,-5.0,-7.0,62.0,1645449043.46875,P19,D06,1,1,1
2034,-5.0,-7.0,62.0,1645449043.5,P19,D06,1,1,1
2035,-5.0,-7.0,62.0,1645449043.53125,P19,D06,1,1,1
2036,-5.0,-7.0,62.0,1645449043.5625,P19,D06,1,1,1
2037,-5.0,-7.0,62.0,1645449043.59375,P19,D06,1,1,1
2038,-6.0,-7.0,62.0,1645449043.625,P19,D06,1,1,1
2039,-6.0,-7.0,62.0,1645449043.65625,P19,D06,1,1,1
2040,-6.0,-7.0,62.0,1645449043.6875,P19,D06,1,1,1
2041,-6.0,-7.0,62.0,1645449043.71875,P19,D06,1,1,1
2042,-5.0,-7.0,62.0,1645449043.75,P19,D06,1,1,1
2043,-5.0,-7.0,62.0,1645449043.78125,P19,D06,1,1,1
2044,-5.0,-6.0,62.0,1645449043.8125,P19,D06,1,1,1
2045,-5.0,-7.0,62.0,1645449043.84375,P19,D06,1,1,1
2046,-5.0,-7.0,62.0,1645449043.875,P19,D06,1,1,1
2047,-6.0,-7.0,62.0,1645449043.90625,P19,D06,1,1,1
2048,-6.0,-7.0,62.0,1645449043.9375,P19,D06,1,1,1
2049,-5.0,-7.0,62.0,1645449043.96875,P19,D06,1,1,1
2050,-5.0,-7.0,62.0,1645449044.0,P19,D06,1,1,1
2051,-6.0,-7.0,62.0,1645449044.03125,P19,D06,1,1,1
2052,-5.0,-7.0,62.0,1645449044.0625,P19,D06,1,1,1
2053,-6.0,-7.0,62.0,1645449044.09375,P19,D06,1,1,1
2054,-6.0,-7.0,62.0,1645449044.125,P19,D06,1,1,1
2055,-5.0,-7.0,62.0,1645449044.15625,P19,D06,1,1,1
2056,-5.0,-7.0,62.0,1645449044.1875,P19,D06,1,1,1
2057,-6.0,-7.0,62.0,1645449044.21875,P19,D06,1,1,1
2058,-6.0,-7.0,62.0,1645449044.25,P19,D06,1,1,1
2059,-5.0,-7.0,62.0,1645449044.28125,P19,D06,1,1,1
2060,-5.0,-7.0,62.0,1645449044.3125,P19,D06,1,1,1
2061,-5.0,-7.0,62.0,1645449044.34375,P19,D06,1,1,1
2062,-6.0,-7.0,62.0,1645449044.375,P19,D06,1,1,1
2063,-6.0,-7.0,62.0,1645449044.40625,P19,D06,1,1,1
2064,-6.0,-7.0,62.0,1645449044.4375,P19,D06,1,1,1
2065,-5.0,-7.0,62.0,1645449044.46875,P19,D06,1,1,1
2066,-5.0,-7.0,62.0,1645449044.5,P19,D06,1,1,1
2067,-6.0,-7.0,62.0,1645449044.53125,P19,D06,1,1,1
2068,-5.0,-7.0,62.0,1645449044.5625,P19,D06,1,1,1
2069,-6.0,-7.0,62.0,1645449044.59375,P19,D06,1,1,1
2070,-6.0,-7.0,62.0,1645449044.625,P19,D06,1,1,1
2071,-6.0,-7.0,62.0,1645449044.65625,P19,D06,1,1,1
2072,-6.0,-7.0,62.0,1645449044.6875,P19,D06,1,1,1
2073,-6.0,-7.0,62.0,1645449044.71875,P19,D06,1,1,1
2074,-6.0,-7.0,62.0,1645449044.75,P19,D06,1,1,1
2075,-5.0,-7.0,62.0,1645449044.78125,P19,D06,1,1,1
2076,-5.0,-7.0,62.0,1645449044.8125,P19,D06,1,1,1
2077,-5.0,-7.0,62.0,1645449044.84375,P19,D06,1,1,1
2078,-5.0,-7.0,62.0,1645449044.875,P19,D06,1,1,1
2079,-5.0,-7.0,62.0,1645449044.90625,P19,D06,1,1,1
2080,-6.0,-7.0,62.0,1645449044.9375,P19,D06,1,1,1
2081,-6.0,-7.0,62.0,1645449044.96875,P19,D06,1,1,1
2082,-4.0,-7.0,62.0,1645449045.0,P19,D06,1,1,1
2083,-5.0,-7.0,62.0,1645449045.03125,P19,D06,1,1,1
2084,-6.0,-7.0,62.0,1645449045.0625,P19,D06,1,1,1
2085,-5.0,-7.0,62.0,1645449045.09375,P19,D06,1,1,1
2086,-5.0,-7.0,62.0,1645449045.125,P19,D06,1,1,1
2087,-6.0,-7.0,62.0,1645449045.15625,P19,D06,1,1,1
2088,-5.0,-7.0,62.0,1645449045.1875,P19,D06,1,1,1
2089,-5.0,-7.0,62.0,1645449045.21875,P19,D06,1,1,1
2090,-5.0,-7.0,62.0,1645449045.25,P19,D06,1,1,1
2091,-5.0,-7.0,62.0,1645449045.28125,P19,D06,1,1,1
2092,-6.0,-7.0,62.0,1645449045.3125,P19,D06,1,1,1
2093,-5.0,-7.0,62.0,1645449045.34375,P19,D06,1,1,1
2094,-5.0,-7.0,62.0,1645449045.375,P19,D06,1,1,1
2095,-5.0,-7.0,62.0,1645449045.40625,P19,D06,1,1,1
2096,-5.0,-7.0,62.0,1645449045.4375,P19,D06,1,1,1
2097,-5.0,-7.0,62.0,1645449045.46875,P19,D06,1,1,1
2098,-6.0,-7.0,62.0,1645449045.5,P19,D06,1,1,1
2099,-5.0,-7.0,62.0,1645449045.53125,P19,D06,1,1,1
2100,-5.0,-7.0,62.0,1645449045.5625,P19,D06,1,1,1
2101,-6.0,-7.0,62.0,1645449045.59375,P19,D06,1,1,1
2102,-5.0,-7.0,62.0,1645449045.625,P19,D06,1,1,1
2103,-5.0,-7.0,62.0,1645449045.65625,P19,D06,1,1,1
2104,-5.0,-7.0,62.0,1645449045.6875,P19,D06,1,1,1
2105,-5.0,-7.0,62.0,1645449045.71875,P19,D06,1,1,1
2106,-5.0,-7.0,62.0,1645449045.75,P19,D06,1,1,1
2107,-6.0,-7.0,62.0,1645449045.78125,P19,D06,1,1,1
2108,-6.0,-7.0,62.0,1645449045.8125,P19,D06,1,1,1
2109,-6.0,-7.0,62.0,1645449045.84375,P19,D06,1,1,1
2110,-5.0,-7.0,62.0,1645449045.875,P19,D06,1,1,1
2111,-5.0,-7.0,62.0,1645449045.90625,P19,D06,1,1,1
2112,-5.0,-7.0,62.0,1645449045.9375,P19,D06,1,1,1
2113,-5.0,-7.0,62.0,1645449045.96875,P19,D06,1,1,1
2114,-5.0,-7.0,62.0,1645449046.0,P19,D06,1,1,1
2115,-5.0,-7.0,62.0,1645449046.03125,P19,D06,1,1,1
2116,-5.0,-6.0,62.0,1645449046.0625,P19,D06,1,1,1
2117,-5.0,-7.0,62.0,1645449046.09375,P19,D06,1,1,1
2118,-6.0,-7.0,62.0,1645449046.125,P19,D06,1,1,1
2119,-7.0,-6.0,62.0,1645449046.15625,P19,D06,1,1,1
2120,-7.0,-6.0,62.0,1645449046.1875,P19,D06,1,1,1
2121,-6.0,-6.0,62.0,1645449046.21875,P19,D06,1,1,1
2122,-6.0,-7.0,62.0,1645449046.25,P19,D06,1,1,1
2123,-6.0,-6.0,62.0,1645449046.28125,P19,D06,1,1,1
2124,-6.0,-6.0,62.0,1645449046.3125,P19,D06,1,1,1
2125,-6.0,-6.0,62.0,1645449046.34375,P19,D06,1,1,1
2126,-6.0,-6.0,62.0,1645449046.375,P19,D06,1,1,1
2127,-6.0,-7.0,62.0,1645449046.40625,P19,D06,1,1,1
2128,-6.0,-6.0,62.0,1645449046.4375,P19,D06,1,1,1
2129,-6.0,-6.0,62.0,1645449046.46875,P19,D06,1,1,1
2130,-6.0,-7.0,62.0,1645449046.5,P19,D06,1,1,1
2131,-6.0,-6.0,62.0,1645449046.53125,P19,D06,1,1,1
2132,-6.0,-7.0,62.0,1645449046.5625,P19,D06,1,1,1
2133,-5.0,-7.0,62.0,1645449046.59375,P19,D06,1,1,1
2134,-6.0,-7.0,62.0,1645449046.625,P19,D06,1,1,1
2135,-6.0,-7.0,62.0,1645449046.65625,P19,D06,1,1,1
2136,-6.0,-7.0,62.0,1645449046.6875,P19,D06,1,1,1
2137,-6.0,-6.0,62.0,1645449046.71875,P19,D06,1,1,1
2138,-5.0,-6.0,62.0,1645449046.75,P19,D06,1,1,1
2139,-7.0,-7.0,62.0,1645449046.78125,P19,D06,1,1,1
2140,-6.0,-7.0,62.0,1645449046.8125,P19,D06,1,1,1
2141,-5.0,-7.0,62.0,1645449046.84375,P19,D06,1,1,1
2142,-6.0,-6.0,62.0,1645449046.875,P19,D06,1,1,1
2143,-6.0,-7.0,62.0,1645449046.90625,P19,D06,1,1,1
2144,-5.0,-7.0,62.0,1645449046.9375,P19,D06,1,1,1
2145,-6.0,-6.0,62.0,1645449046.96875,P19,D06,1,1,1
2146,-6.0,-6.0,62.0,1645449047.0,P19,D06,1,1,1
2147,-6.0,-7.0,62.0,1645449047.03125,P19,D06,1,1,1
2148,-6.0,-6.0,62.0,1645449047.0625,P19,D06,1,1,1
2149,-6.0,-7.0,62.0,1645449047.09375,P19,D06,1,1,1
2150,-6.0,-6.0,62.0,1645449047.125,P19,D06,1,1,1
2151,-6.0,-7.0,62.0,1645449047.15625,P19,D06,1,1,1
2152,-6.0,-7.0,62.0,1645449047.1875,P19,D06,1,1,1
2153,-6.0,-7.0,62.0,1645449047.21875,P19,D06,1,1,1
2154,-6.0,-6.0,62.0,1645449047.25,P19,D06,1,1,1
2155,-6.0,-7.0,62.0,1645449047.28125,P19,D06,1,1,1
2156,-6.0,-7.0,62.0,1645449047.3125,P19,D06,1,1,1
2157,-6.0,-7.0,62.0,1645449047.34375,P19,D06,1,1,1
2158,-6.0,-7.0,62.0,1645449047.375,P19,D06,1,1,1
2159,-6.0,-7.0,62.0,1645449047.40625,P19,D06,1,1,1
2160,-6.0,-7.0,62.0,1645449047.4375,P19,D06,1,1,1
2161,-6.0,-7.0,62.0,1645449047.46875,P19,D06,1,1,1
2162,-5.0,-7.0,62.0,1645449047.5,P19,D06,1,1,1
2163,-6.0,-7.0,62.0,1645449047.53125,P19,D06,1,1,1
2164,-6.0,-7.0,62.0,1645449047.5625,P19,D06,1,1,1
2165,-6.0,-7.0,62.0,1645449047.59375,P19,D06,1,1,1
2166,-6.0,-6.0,62.0,1645449047.625,P19,D06,1,1,1
2167,-6.0,-7.0,62.0,1645449047.65625,P19,D06,1,1,1
2168,-5.0,-7.0,62.0,1645449047.6875,P19,D06,1,1,1
2169,-6.0,-7.0,62.0,1645449047.71875,P19,D06,1,1,1
2170,-6.0,-7.0,62.0,1645449047.75,P19,D06,1,1,1
2171,-6.0,-7.0,62.0,1645449047.78125,P19,D06,1,1,1
2172,-6.0,-7.0,62.0,1645449047.8125,P19,D06,1,1,1
2173,-6.0,-7.0,62.0,1645449047.84375,P19,D06,1,1,1
2174,-6.0,-7.0,62.0,1645449047.875,P19,D06,1,1,1
2175,-6.0,-7.0,62.0,1645449047.90625,P19,D06,1,1,1
2176,-6.0,-7.0,62.0,1645449047.9375,P19,D06,1,1,1
2177,-6.0,-7.0,62.0,1645449047.96875,P19,D06,1,1,1
2178,-6.0,-7.0,62.0,1645449048.0,P19,D06,1,1,1
2179,-6.0,-7.0,62.0,1645449048.03125,P19,D06,1,1,1
2180,-6.0,-7.0,62.0,1645449048.0625,P19,D06,1,1,1
2181,-6.0,-7.0,62.0,1645449048.09375,P19,D06,1,1,1
2182,-6.0,-7.0,62.0,1645449048.125,P19,D06,1,1,1
2183,-5.0,-7.0,62.0,1645449048.15625,P19,D06,1,1,1
2184,-6.0,-7.0,62.0,1645449048.1875,P19,D06,1,1,1
2185,-6.0,-7.0,62.0,1645449048.21875,P19,D06,1,1,1
2186,-6.0,-7.0,62.0,1645449048.25,P19,D06,1,1,1
2187,-6.0,-7.0,62.0,1645449048.28125,P19,D06,1,1,1
2188,-6.0,-7.0,62.0,1645449048.3125,P19,D06,1,1,1
2189,-6.0,-7.0,62.0,1645449048.34375,P19,D06,1,1,1
2190,-6.0,-7.0,62.0,1645449048.375,P19,D06,1,1,1
2191,-6.0,-7.0,62.0,1645449048.40625,P19,D06,1,1,1
2192,-6.0,-7.0,62.0,1645449048.4375,P19,D06,1,1,1
2193,-5.0,-7.0,62.0,1645449048.46875,P19,D06,1,1,1
2194,-6.0,-7.0,62.0,1645449048.5,P19,D06,1,1,1
2195,-6.0,-7.0,61.0,1645449048.53125,P19,D06,1,1,1
2196,-6.0,-7.0,62.0,1645449048.5625,P19,D06,1,1,1
2197,-6.0,-7.0,62.0,1645449048.59375,P19,D06,1,1,1
2198,-6.0,-7.0,62.0,1645449048.625,P19,D06,1,1,1
2199,-6.0,-7.0,62.0,1645449048.65625,P19,D06,1,1,1
2200,-6.0,-7.0,62.0,1645449048.6875,P19,D06,1,1,1
2201,-6.0,-7.0,62.0,1645449048.71875,P19,D06,1,1,1
2202,-6.0,-7.0,62.0,1645449048.75,P19,D06,1,1,1
2203,-6.0,-7.0,62.0,1645449048.78125,P19,D06,1,1,1
2204,-6.0,-7.0,62.0,1645449048.8125,P19,D06,1,1,1
2205,-6.0,-7.0,62.0,1645449048.84375,P19,D06,1,1,1
2206,-6.0,-7.0,62.0,1645449048.875,P19,D06,1,1,1
2207,-6.0,-7.0,62.0,1645449048.90625,P19,D06,1,1,1
2208,-5.0,-7.0,62.0,1645449048.9375,P19,D06,1,1,1
2209,-6.0,-7.0,62.0,1645449048.96875,P19,D06,1,1,1
2210,-6.0,-7.0,62.0,1645449049.0,P19,D06,1,1,1
2211,-6.0,-7.0,62.0,1645449049.03125,P19,D06,1,1,1
2212,-6.0,-7.0,62.0,1645449049.0625,P19,D06,1,1,1
2213,-6.0,-7.0,62.0,1645449049.09375,P19,D06,1,1,1
2214,-6.0,-7.0,62.0,1645449049.125,P19,D06,1,1,1
2215,-6.0,-7.0,62.0,1645449049.15625,P19,D06,1,1,1
2216,-6.0,-7.0,62.0,1645449049.1875,P19,D06,1,1,1
2217,-6.0,-7.0,62.0,1645449049.21875,P19,D06,1,1,1
2218,-6.0,-7.0,62.0,1645449049.25,P19,D06,1,1,1
2219,-6.0,-7.0,62.0,1645449049.28125,P19,D06,1,1,1
2220,-6.0,-7.0,62.0,1645449049.3125,P19,D06,1,1,1
2221,-6.0,-7.0,62.0,1645449049.34375,P19,D06,1,1,1
2222,-6.0,-7.0,62.0,1645449049.375,P19,D06,1,1,1
2223,-6.0,-7.0,62.0,1645449049.40625,P19,D06,1,1,1
2224,-6.0,-7.0,62.0,1645449049.4375,P19,D06,1,1,1
2225,-6.0,-7.0,62.0,1645449049.46875,P19,D06,1,1,1
2226,-6.0,-7.0,62.0,1645449049.5,P19,D06,1,1,1
2227,-6.0,-7.0,62.0,1645449049.53125,P19,D06,1,1,1
2228,-6.0,-7.0,62.0,1645449049.5625,P19,D06,1,1,1
2229,-6.0,-7.0,62.0,1645449049.59375,P19,D06,1,1,1
2230,-6.0,-7.0,62.0,1645449049.625,P19,D06,1,1,1
2231,-6.0,-7.0,62.0,1645449049.65625,P19,D06,1,1,1
2232,-6.0,-7.0,62.0,1645449049.6875,P19,D06,1,1,1
2233,-6.0,-7.0,62.0,1645449049.71875,P19,D06,1,1,1
2234,-6.0,-7.0,62.0,1645449049.75,P19,D06,1,1,1
2235,-6.0,-7.0,62.0,1645449049.78125,P19,D06,1,1,1
2236,-6.0,-7.0,62.0,1645449049.8125,P19,D06,1,1,1
2237,-6.0,-7.0,62.0,1645449049.84375,P19,D06,1,1,1
2238,-6.0,-7.0,62.0,1645449049.875,P19,D06,1,1,1
2239,-6.0,-7.0,62.0,1645449049.90625,P19,D06,1,1,1
2240,-6.0,-7.0,62.0,1645449049.9375,P19,D06,1,1,1
2241,-6.0,-7.0,62.0,1645449049.96875,P19,D06,1,1,1
2242,-6.0,-7.0,62.0,1645449050.0,P19,D06,1,1,1
2243,-6.0,-7.0,62.0,1645449050.03125,P19,D06,1,1,1
2244,-6.0,-7.0,62.0,1645449050.0625,P19,D06,1,1,1
2245,-6.0,-7.0,62.0,1645449050.09375,P19,D06,1,1,1
2246,-6.0,-7.0,62.0,1645449050.125,P19,D06,1,1,1
2247,-6.0,-7.0,62.0,1645449050.15625,P19,D06,1,1,1
2248,-6.0,-7.0,62.0,1645449050.1875,P19,D06,1,1,1
2249,-6.0,-7.0,62.0,1645449050.21875,P19,D06,1,1,1
2250,-6.0,-7.0,62.0,1645449050.25,P19,D06,1,1,1
2251,-6.0,-7.0,62.0,1645449050.28125,P19,D06,1,1,1
2252,-6.0,-7.0,62.0,1645449050.3125,P19,D06,1,1,1
2253,-6.0,-7.0,62.0,1645449050.34375,P19,D06,1,1,1
2254,-7.0,-7.0,62.0,1645449050.375,P19,D06,1,1,1
2255,-6.0,-7.0,62.0,1645449050.40625,P19,D06,1,1,1
2256,-5.0,-7.0,62.0,1645449050.4375,P19,D06,1,1,1
2257,-6.0,-7.0,62.0,1645449050.46875,P19,D06,1,1,1
2258,-6.0,-7.0,62.0,1645449050.5,P19,D06,1,1,1
2259,-6.0,-7.0,62.0,1645449050.53125,P19,D06,1,1,1
2260,-6.0,-7.0,62.0,1645449050.5625,P19,D06,1,1,1
2261,-6.0,-7.0,62.0,1645449050.59375,P19,D06,1,1,1
2262,-6.0,-7.0,62.0,1645449050.625,P19,D06,1,1,1
2263,-6.0,-7.0,62.0,1645449050.65625,P19,D06,1,1,1
2264,-6.0,-7.0,62.0,1645449050.6875,P19,D06,1,1,1
2265,-6.0,-7.0,62.0,1645449050.71875,P19,D06,1,1,1
2266,-6.0,-7.0,62.0,1645449050.75,P19,D06,1,1,1
2267,-6.0,-7.0,62.0,1645449050.78125,P19,D06,1,1,1
2268,-6.0,-7.0,62.0,1645449050.8125,P19,D06,1,1,1
2269,-6.0,-7.0,62.0,1645449050.84375,P19,D06,1,1,1
2270,-6.0,-7.0,62.0,1645449050.875,P19,D06,1,1,1
2271,-6.0,-7.0,62.0,1645449050.90625,P19,D06,1,1,1
2272,-6.0,-7.0,62.0,1645449050.9375,P19,D06,1,1,1
2273,-6.0,-7.0,62.0,1645449050.96875,P19,D06,1,1,1
2274,-6.0,-7.0,62.0,1645449051.0,P19,D06,1,1,1
2275,-6.0,-7.0,62.0,1645449051.03125,P19,D06,1,1,1
2276,-6.0,-7.0,62.0,1645449051.0625,P19,D06,1,1,1
2277,-6.0,-7.0,62.0,1645449051.09375,P19,D06,1,1,1
2278,-6.0,-7.0,62.0,1645449051.125,P19,D06,1,1,1
2279,-7.0,-6.0,62.0,1645449051.15625,P19,D06,1,1,1
2280,-6.0,-6.0,62.0,1645449051.1875,P19,D06,1,1,1
2281,-6.0,-7.0,62.0,1645449051.21875,P19,D06,1,1,1
2282,-6.0,-7.0,62.0,1645449051.25,P19,D06,1,1,1
2283,-6.0,-7.0,62.0,1645449051.28125,P19,D06,1,1,1
2284,-6.0,-7.0,62.0,1645449051.3125,P19,D06,1,1,1
2285,-6.0,-7.0,62.0,1645449051.34375,P19,D06,1,1,1
2286,-6.0,-7.0,62.0,1645449051.375,P19,D06,1,1,1
2287,-6.0,-7.0,62.0,1645449051.40625,P19,D06,1,1,1
2288,-6.0,-7.0,62.0,1645449051.4375,P19,D06,1,1,1
2289,-6.0,-7.0,62.0,1645449051.46875,P19,D06,1,1,1
2290,-6.0,-7.0,62.0,1645449051.5,P19,D06,1,1,1
2291,-7.0,-7.0,62.0,1645449051.53125,P19,D06,1,1,1
2292,-6.0,-7.0,62.0,1645449051.5625,P19,D06,1,1,1
2293,-7.0,-7.0,62.0,1645449051.59375,P19,D06,1,1,1
2294,-7.0,-7.0,62.0,1645449051.625,P19,D06,1,1,1
2295,-6.0,-7.0,62.0,1645449051.65625,P19,D06,1,1,1
2296,-6.0,-7.0,62.0,1645449051.6875,P19,D06,1,1,1
2297,-6.0,-7.0,62.0,1645449051.71875,P19,D06,1,1,1
2298,-6.0,-7.0,62.0,1645449051.75,P19,D06,1,1,1
2299,-6.0,-7.0,62.0,1645449051.78125,P19,D06,1,1,1
2300,-6.0,-7.0,62.0,1645449051.8125,P19,D06,1,1,1
2301,-7.0,-7.0,62.0,1645449051.84375,P19,D06,1,1,1
2302,-6.0,-7.0,62.0,1645449051.875,P19,D06,1,1,1
2303,-6.0,-7.0,62.0,1645449051.90625,P19,D06,1,1,1
2304,-6.0,-7.0,62.0,1645449051.9375,P19,D06,1,1,1
2305,-7.0,-7.0,62.0,1645449051.96875,P19,D06,1,1,1
2306,-7.0,-7.0,62.0,1645449052.0,P19,D06,1,1,1
2307,-6.0,-7.0,62.0,1645449052.03125,P19,D06,1,1,1
2308,-6.0,-7.0,62.0,1645449052.0625,P19,D06,1,1,1
2309,-6.0,-7.0,62.0,1645449052.09375,P19,D06,1,1,1
2310,-6.0,-7.0,62.0,1645449052.125,P19,D06,1,1,1
2311,-6.0,-7.0,62.0,1645449052.15625,P19,D06,1,1,1
2312,-6.0,-7.0,62.0,1645449052.1875,P19,D06,1,1,1
2313,-6.0,-7.0,62.0,1645449052.21875,P19,D06,1,1,1
2314,-6.0,-7.0,62.0,1645449052.25,P19,D06,1,1,1
2315,-7.0,-7.0,62.0,1645449052.28125,P19,D06,1,1,1
2316,-6.0,-7.0,62.0,1645449052.3125,P19,D06,1,1,1
2317,-6.0,-7.0,62.0,1645449052.34375,P19,D06,1,1,1
2318,-6.0,-7.0,62.0,1645449052.375,P19,D06,1,1,1
2319,-7.0,-7.0,62.0,1645449052.40625,P19,D06,1,1,1
2320,-7.0,-6.0,62.0,1645449052.4375,P19,D06,1,1,1
2321,-6.0,-7.0,62.0,1645449052.46875,P19,D06,1,1,1
2322,-6.0,-7.0,62.0,1645449052.5,P19,D06,1,1,1
2323,-6.0,-7.0,62.0,1645449052.53125,P19,D06,1,1,1
2324,-6.0,-7.0,62.0,1645449052.5625,P19,D06,1,1,1
2325,-5.0,-7.0,62.0,1645449052.59375,P19,D06,1,1,1
2326,-6.0,-7.0,62.0,1645449052.625,P19,D06,1,1,1
2327,-6.0,-7.0,62.0,1645449052.65625,P19,D06,1,1,1
2328,-6.0,-6.0,62.0,1645449052.6875,P19,D06,1,1,1
2329,-6.0,-7.0,62.0,1645449052.71875,P19,D06,1,1,1
2330,-7.0,-7.0,61.0,1645449052.75,P19,D06,1,1,1
2331,-6.0,-7.0,62.0,1645449052.78125,P19,D06,1,1,1
2332,-6.0,-6.0,62.0,1645449052.8125,P19,D06,1,1,1
2333,-6.0,-6.0,62.0,1645449052.84375,P19,D06,1,1,1
2334,-6.0,-7.0,61.0,1645449052.875,P19,D06,1,1,1
2335,-7.0,-7.0,62.0,1645449052.90625,P19,D06,1,1,1
2336,-6.0,-7.0,62.0,1645449052.9375,P19,D06,1,1,1
2337,-6.0,-7.0,62.0,1645449052.96875,P19,D06,1,1,1
2338,-7.0,-7.0,61.0,1645449053.0,P19,D06,1,1,1
2339,-6.0,-7.0,62.0,1645449053.03125,P19,D06,1,1,1
2340,-6.0,-7.0,62.0,1645449053.0625,P19,D06,1,1,1
2341,-7.0,-7.0,62.0,1645449053.09375,P19,D06,1,1,1
2342,-7.0,-7.0,62.0,1645449053.125,P19,D06,1,1,1
2343,-6.0,-7.0,62.0,1645449053.15625,P19,D06,1,1,1
2344,-6.0,-7.0,62.0,1645449053.1875,P19,D06,1,1,1
2345,-7.0,-7.0,62.0,1645449053.21875,P19,D06,1,1,1
2346,-6.0,-7.0,62.0,1645449053.25,P19,D06,1,1,1
2347,-5.0,-7.0,62.0,1645449053.28125,P19,D06,1,1,1
2348,-6.0,-7.0,62.0,1645449053.3125,P19,D06,1,1,1
2349,-7.0,-7.0,62.0,1645449053.34375,P19,D06,1,1,1
2350,-6.0,-7.0,62.0,1645449053.375,P19,D06,1,1,1
2351,-6.0,-7.0,62.0,1645449053.40625,P19,D06,1,1,1
2352,-6.0,-7.0,62.0,1645449053.4375,P19,D06,1,1,1
2353,-6.0,-7.0,62.0,1645449053.46875,P19,D06,1,1,1
2354,-6.0,-7.0,62.0,1645449053.5,P19,D06,1,1,1
2355,-7.0,-7.0,62.0,1645449053.53125,P19,D06,1,1,1
2356,-6.0,-7.0,62.0,1645449053.5625,P19,D06,1,1,1
2357,-6.0,-7.0,62.0,1645449053.59375,P19,D06,1,1,1
2358,-6.0,-6.0,62.0,1645449053.625,P19,D06,1,1,1
2359,-6.0,-7.0,62.0,1645449053.65625,P19,D06,1,1,1
2360,-6.0,-7.0,62.0,1645449053.6875,P19,D06,1,1,1
2361,-7.0,-6.0,62.0,1645449053.71875,P19,D06,1,1,1
2362,-7.0,-7.0,61.0,1645449053.75,P19,D06,1,1,1
2363,-6.0,-7.0,62.0,1645449053.78125,P19,D06,1,1,1
2364,-5.0,-7.0,62.0,1645449053.8125,P19,D06,1,1,1
2365,-6.0,-7.0,62.0,1645449053.84375,P19,D06,1,1,1
2366,-6.0,-7.0,62.0,1645449053.875,P19,D06,1,1,1
2367,-6.0,-7.0,62.0,1645449053.90625,P19,D06,1,1,1
2368,-6.0,-7.0,62.0,1645449053.9375,P19,D06,1,1,1
2369,-6.0,-7.0,62.0,1645449053.96875,P19,D06,1,1,1
2370,-6.0,-6.0,62.0,1645449054.0,P19,D06,1,1,1
2371,-7.0,-7.0,62.0,1645449054.03125,P19,D06,1,1,1
2372,-6.0,-7.0,62.0,1645449054.0625,P19,D06,1,1,1
2373,-6.0,-6.0,62.0,1645449054.09375,P19,D06,1,1,1
2374,-5.0,-7.0,62.0,1645449054.125,P19,D06,1,1,1
2375,-6.0,-7.0,62.0,1645449054.15625,P19,D06,1,1,1
2376,-7.0,-6.0,62.0,1645449054.1875,P19,D06,1,1,1
2377,-7.0,-6.0,62.0,1645449054.21875,P19,D06,1,1,1
2378,-6.0,-7.0,62.0,1645449054.25,P19,D06,1,1,1
2379,-6.0,-7.0,62.0,1645449054.28125,P19,D06,1,1,1
2380,-7.0,-6.0,62.0,1645449054.3125,P19,D06,1,1,1
2381,-6.0,-6.0,62.0,1645449054.34375,P19,D06,1,1,1
2382,-6.0,-6.0,62.0,1645449054.375,P19,D06,1,1,1
2383,-7.0,-6.0,62.0,1645449054.40625,P19,D06,1,1,1
2384,-6.0,-6.0,62.0,1645449054.4375,P19,D06,1,1,1
2385,-6.0,-7.0,62.0,1645449054.46875,P19,D06,1,1,1
2386,-6.0,-7.0,62.0,1645449054.5,P19,D06,1,1,1
2387,-6.0,-7.0,62.0,1645449054.53125,P19,D06,1,1,1
2388,-6.0,-6.0,62.0,1645449054.5625,P19,D06,1,1,1
2389,-6.0,-7.0,62.0,1645449054.59375,P19,D06,1,1,1
2390,-7.0,-7.0,62.0,1645449054.625,P19,D06,1,1,1
2391,-7.0,-7.0,62.0,1645449054.65625,P19,D06,1,1,1
2392,-7.0,-7.0,62.0,1645449054.6875,P19,D06,1,1,1
2393,-6.0,-7.0,62.0,1645449054.71875,P19,D06,1,1,1
2394,-6.0,-7.0,62.0,1645449054.75,P19,D06,1,1,1
2395,-7.0,-7.0,62.0,1645449054.78125,P19,D06,1,1,1
2396,-7.0,-6.0,61.0,1645449054.8125,P19,D06,1,1,1
2397,-7.0,-7.0,61.0,1645449054.84375,P19,D06,1,1,1
2398,-6.0,-7.0,62.0,1645449054.875,P19,D06,1,1,1
2399,-6.0,-7.0,62.0,1645449054.90625,P19,D06,1,1,1
2400,-6.0,-7.0,62.0,1645449054.9375,P19,D06,1,1,1
2401,-7.0,-7.0,62.0,1645449054.96875,P19,D06,1,1,1
2402,-6.0,-7.0,62.0,1645449055.0,P19,D06,1,1,1
2403,-6.0,-7.0,62.0,1645449055.03125,P19,D06,1,1,1
2404,-6.0,-7.0,62.0,1645449055.0625,P19,D06,1,1,1
2405,-6.0,-7.0,62.0,1645449055.09375,P19,D06,1,1,1
2406,-7.0,-7.0,62.0,1645449055.125,P19,D06,1,1,1
2407,-7.0,-7.0,62.0,1645449055.15625,P19,D06,1,1,1
2408,-6.0,-7.0,62.0,1645449055.1875,P19,D06,1,1,1
2409,-6.0,-7.0,62.0,1645449055.21875,P19,D06,1,1,1
2410,-6.0,-7.0,62.0,1645449055.25,P19,D06,1,1,1
2411,-6.0,-7.0,62.0,1645449055.28125,P19,D06,1,1,1
2412,-6.0,-7.0,62.0,1645449055.3125,P19,D06,1,1,1
2413,-6.0,-7.0,62.0,1645449055.34375,P19,D06,1,1,1
2414,-6.0,-7.0,62.0,1645449055.375,P19,D06,1,1,1
2415,-5.0,-7.0,62.0,1645449055.40625,P19,D06,1,1,1
2416,-6.0,-7.0,62.0,1645449055.4375,P19,D06,1,1,1
