,acc_x,acc_y,acc_z,timestamp,participant,document,val,arou,eng
0,-5.0,-4.0,62.0,1645449966.59375,P19,D10,0,0,0
1,-5.0,-5.0,62.0,1645449966.625,P19,D10,0,0,0
2,-6.0,-4.0,62.0,1645449966.65625,P19,D10,0,0,0
3,-6.0,-4.0,62.0,1645449966.6875,P19,D10,0,0,0
4,-5.0,-3.0,62.0,1645449966.71875,P19,D10,0,0,0
5,-5.0,-6.0,62.0,1645449966.75,P19,D10,0,0,0
6,-9.0,-4.0,61.0,1645449966.78125,P19,D10,0,0,0
7,-3.0,-3.0,63.0,1645449966.8125,P19,D10,0,0,0
8,-6.0,-7.0,62.0,1645449966.84375,P19,D10,0,0,0
9,-7.0,-5.0,61.0,1645449966.875,P19,D10,0,0,0
10,-2.0,-3.0,63.0,1645449966.90625,P19,D10,0,0,0
11,-3.0,-4.0,62.0,1645449966.9375,P19,D10,0,0,0
12,-7.0,-6.0,61.0,1645449966.96875,P19,D10,0,0,0
13,-5.0,-5.0,62.0,1645449967.0,P19,D10,0,0,0
14,-5.0,-4.0,62.0,1645449967.03125,P19,D10,0,0,0
15,-6.0,-5.0,62.0,1645449967.0625,P19,D10,0,0,0
16,-5.0,-5.0,62.0,1645449967.09375,P19,D10,0,0,0
17,-4.0,-5.0,62.0,1645449967.125,P19,D10,0,0,0
18,-6.0,-5.0,61.0,1645449967.15625,P19,D10,0,0,0
19,-6.0,-5.0,62.0,1645449967.1875,P19,D10,0,0,0
20,-5.0,-4.0,62.0,1645449967.21875,P19,D10,0,0,0
21,-5.0,-4.0,62.0,1645449967.25,P19,D10,0,0,0
22,-6.0,-5.0,62.0,1645449967.28125,P19,D10,0,0,0
23,-5.0,-5.0,62.0,1645449967.3125,P19,D10,0,0,0
24,-6.0,-5.0,62.0,1645449967.34375,P19,D10,0,0,0
25,-6.0,-4.0,62.0,1645449967.375,P19,D10,0,0,0
26,-5.0,-5.0,62.0,1645449967.40625,P19,D10,0,0,0
27,-5.0,-5.0,62.0,1645449967.4375,P19,D10,0,0,0
28,-6.0,-5.0,62.0,1645449967.46875,P19,D10,0,0,0
29,-6.0,-5.0,62.0,1645449967.5,P19,D10,0,0,0
30,-6.0,-4.0,62.0,1645449967.53125,P19,D10,0,0,0
31,-5.0,-5.0,62.0,1645449967.5625,P19,D10,0,0,0
32,-6.0,-5.0,62.0,1645449967.59375,P19,D10,0,0,0
33,-6.0,-5.0,62.0,1645449967.625,P19,D10,0,0,0
34,-5.0,-4.0,62.0,1645449967.65625,P19,D10,0,0,0
35,-6.0,-4.0,62.0,1645449967.6875,P19,D10,0,0,0
36,-6.0,-5.0,62.0,1645449967.71875,P19,D10,0,0,0
37,-5.0,-5.0,62.0,1645449967.75,P19,D10,0,0,0
38,-5.0,-5.0,62.0,1645449967.78125,P19,D10,0,0,0
39,-5.0,-5.0,62.0,1645449967.8125,P19,D10,0,0,0
40,-5.0,-5.0,62.0,1645449967.84375,P19,D10,0,0,0
41,-5.0,-5.0,62.0,1645449967.875,P19,D10,0,0,0
42,-6.0,-4.0,62.0,1645449967.90625,P19,D10,0,0,0
43,-6.0,-5.0,62.0,1645449967.9375,P19,D10,0,0,0
44,-6.0,-5.0,62.0,1645449967.96875,P19,D10,0,0,0
45,-6.0,-5.0,62.0,1645449968.0,P19,D10,0,0,0
46,-5.0,-5.0,62.0,1645449968.03125,P19,D10,0,0,0
47,-6.0,-4.0,62.0,1645449968.0625,P19,D10,0,0,0
48,-6.0,-5.0,62.0,1645449968.09375,P19,D10,0,0,0
49,-6.0,-5.0,62.0,1645449968.125,P19,D10,0,0,0
50,-5.0,-5.0,62.0,1645449968.15625,P19,D10,0,0,0
51,-5.0,-5.0,62.0,1645449968.1875,P19,D10,0,0,0
52,-6.0,-4.0,62.0,1645449968.21875,P19,D10,0,0,0
53,-6.0,-5.0,62.0,1645449968.25,P19,D10,0,0,0
54,-6.0,-5.0,62.0,1645449968.28125,P19,D10,0,0,0
55,-6.0,-5.0,62.0,1645449968.3125,P19,D10,0,0,0
56,-6.0,-5.0,62.0,1645449968.34375,P19,D10,0,0,0
57,-6.0,-5.0,62.0,1645449968.375,P19,D10,0,0,0
58,-5.0,-5.0,62.0,1645449968.40625,P19,D10,0,0,0
59,-5.0,-5.0,62.0,1645449968.4375,P19,D10,0,0,0
60,-6.0,-5.0,62.0,1645449968.46875,P19,D10,0,0,0
61,-6.0,-5.0,62.0,1645449968.5,P19,D10,0,0,0
62,-5.0,-5.0,62.0,1645449968.53125,P19,D10,0,0,0
63,-6.0,-5.0,62.0,1645449968.5625,P19,D10,0,0,0
64,-6.0,-5.0,62.0,1645449968.59375,P19,D10,0,0,0
65,-5.0,-5.0,62.0,1645449968.625,P19,D10,0,0,0
66,-6.0,-5.0,62.0,1645449968.65625,P19,D10,0,0,0
67,-6.0,-5.0,62.0,1645449968.6875,P19,D10,0,0,0
68,-6.0,-5.0,62.0,1645449968.71875,P19,D10,0,0,0
69,-5.0,-5.0,62.0,1645449968.75,P19,D10,0,0,0
70,-6.0,-5.0,62.0,1645449968.78125,P19,D10,0,0,0
71,-6.0,-5.0,62.0,1645449968.8125,P19,D10,0,0,0
72,-5.0,-5.0,62.0,1645449968.84375,P19,D10,0,0,0
73,-6.0,-5.0,62.0,1645449968.875,P19,D10,0,0,0
74,-5.0,-5.0,62.0,1645449968.90625,P19,D10,0,0,0
75,-6.0,-5.0,62.0,1645449968.9375,P19,D10,0,0,0
76,-5.0,-5.0,62.0,1645449968.96875,P19,D10,0,0,0
77,-5.0,-5.0,62.0,1645449969.0,P19,D10,0,0,0
78,-5.0,-5.0,62.0,1645449969.03125,P19,D10,0,0,0
79,-5.0,-5.0,62.0,1645449969.0625,P19,D10,0,0,0
80,-5.0,-5.0,62.0,1645449969.09375,P19,D10,0,0,0
81,-5.0,-4.0,62.0,1645449969.125,P19,D10,0,0,0
82,-6.0,-5.0,62.0,1645449969.15625,P19,D10,0,0,0
83,-6.0,-5.0,62.0,1645449969.1875,P19,D10,0,0,0
84,-5.0,-4.0,62.0,1645449969.21875,P19,D10,0,0,0
85,-5.0,-4.0,62.0,1645449969.25,P19,D10,0,0,0
86,-7.0,-5.0,62.0,1645449969.28125,P19,D10,0,0,0
87,-4.0,-4.0,62.0,1645449969.3125,P19,D10,0,0,0
88,-5.0,-5.0,62.0,1645449969.34375,P19,D10,0,0,0
89,-6.0,-5.0,62.0,1645449969.375,P19,D10,0,0,0
90,-5.0,-5.0,62.0,1645449969.40625,P19,D10,0,0,0
91,-6.0,-5.0,62.0,1645449969.4375,P19,D10,0,0,0
92,-7.0,-5.0,62.0,1645449969.46875,P19,D10,0,0,0
93,-5.0,-5.0,62.0,1645449969.5,P19,D10,0,0,0
94,-5.0,-5.0,62.0,1645449969.53125,P19,D10,0,0,0
95,-7.0,-5.0,62.0,1645449969.5625,P19,D10,0,0,0
96,-7.0,-5.0,62.0,1645449969.59375,P19,D10,0,0,0
97,-6.0,-5.0,62.0,1645449969.625,P19,D10,0,0,0
98,-5.0,-5.0,62.0,1645449969.65625,P19,D10,0,0,0
99,-5.0,-5.0,62.0,1645449969.6875,P19,D10,0,0,0
100,-6.0,-5.0,62.0,1645449969.71875,P19,D10,0,0,0
101,-5.0,-5.0,62.0,1645449969.75,P19,D10,0,0,0
102,-5.0,-4.0,62.0,1645449969.78125,P19,D10,0,0,0
103,-5.0,-5.0,62.0,1645449969.8125,P19,D10,0,0,0
104,-6.0,-5.0,62.0,1645449969.84375,P19,D10,0,0,0
105,-4.0,-4.0,62.0,1645449969.875,P19,D10,0,0,0
106,-6.0,-4.0,62.0,1645449969.90625,P19,D10,0,0,0
107,-6.0,-4.0,62.0,1645449969.9375,P19,D10,0,0,0
108,-4.0,-5.0,62.0,1645449969.96875,P19,D10,0,0,0
109,-5.0,-5.0,62.0,1645449970.0,P19,D10,0,0,0
110,-6.0,-5.0,62.0,1645449970.03125,P19,D10,0,0,0
111,-5.0,-4.0,62.0,1645449970.0625,P19,D10,0,0,0
112,-4.0,-4.0,62.0,1645449970.09375,P19,D10,0,0,0
113,-7.0,-5.0,62.0,1645449970.125,P19,D10,0,0,0
114,-6.0,-5.0,62.0,1645449970.15625,P19,D10,0,0,0
115,-6.0,-5.0,62.0,1645449970.1875,P19,D10,0,0,0
116,-6.0,-5.0,62.0,1645449970.21875,P19,D10,0,0,0
117,-8.0,-5.0,61.0,1645449970.25,P19,D10,0,0,0
118,-7.0,-5.0,62.0,1645449970.28125,P19,D10,0,0,0
119,-2.0,-5.0,63.0,1645449970.3125,P19,D10,0,0,0
120,-3.0,-5.0,63.0,1645449970.34375,P19,D10,0,0,0
121,-8.0,-6.0,61.0,1645449970.375,P19,D10,0,0,0
122,-6.0,-5.0,62.0,1645449970.40625,P19,D10,0,0,0
123,-6.0,-4.0,62.0,1645449970.4375,P19,D10,0,0,0
124,-6.0,-4.0,62.0,1645449970.46875,P19,D10,0,0,0
125,-6.0,-4.0,62.0,1645449970.5,P19,D10,0,0,0
126,-9.0,-5.0,61.0,1645449970.53125,P19,D10,0,0,0
127,-7.0,-4.0,62.0,1645449970.5625,P19,D10,0,0,0
128,-4.0,-4.0,62.0,1645449970.59375,P19,D10,0,0,0
129,-7.0,-5.0,62.0,1645449970.625,P19,D10,0,0,0
130,-5.0,-3.0,62.0,1645449970.65625,P19,D10,0,0,0
131,-4.0,-5.0,62.0,1645449970.6875,P19,D10,0,0,0
132,-7.0,-4.0,62.0,1645449970.71875,P19,D10,0,0,0
133,-5.0,-5.0,62.0,1645449970.75,P19,D10,0,0,0
134,-6.0,-4.0,62.0,1645449970.78125,P19,D10,0,0,0
135,-4.0,-5.0,62.0,1645449970.8125,P19,D10,0,0,0
136,-4.0,-4.0,62.0,1645449970.84375,P19,D10,0,0,0
137,-7.0,-4.0,62.0,1645449970.875,P19,D10,0,0,0
138,-7.0,-6.0,62.0,1645449970.90625,P19,D10,0,0,0
139,-3.0,-4.0,63.0,1645449970.9375,P19,D10,0,0,0
140,-5.0,-5.0,62.0,1645449970.96875,P19,D10,0,0,0
141,-8.0,-4.0,62.0,1645449971.0,P19,D10,0,0,0
142,-9.0,-4.0,61.0,1645449971.03125,P19,D10,0,0,0
143,-6.0,-7.0,61.0,1645449971.0625,P19,D10,0,0,0
144,-2.0,-1.0,63.0,1645449971.09375,P19,D10,0,0,0
145,-5.0,-2.0,63.0,1645449971.125,P19,D10,0,0,0
146,-6.0,-6.0,62.0,1645449971.15625,P19,D10,0,0,0
147,-5.0,-5.0,61.0,1645449971.1875,P19,D10,0,0,0
148,-10.0,-4.0,61.0,1645449971.21875,P19,D10,0,0,0
149,-8.0,-4.0,62.0,1645449971.25,P19,D10,0,0,0
150,-3.0,-4.0,62.0,1645449971.28125,P19,D10,0,0,0
151,-3.0,-3.0,63.0,1645449971.3125,P19,D10,0,0,0
152,-7.0,-6.0,62.0,1645449971.34375,P19,D10,0,0,0
153,-11.0,-6.0,61.0,1645449971.375,P19,D10,0,0,0
154,-4.0,-5.0,62.0,1645449971.40625,P19,D10,0,0,0
155,-3.0,-3.0,63.0,1645449971.4375,P19,D10,0,0,0
156,-8.0,-6.0,61.0,1645449971.46875,P19,D10,0,0,0
157,-4.0,-5.0,62.0,1645449971.5,P19,D10,0,0,0
158,-5.0,-7.0,62.0,1645449971.53125,P19,D10,0,0,0
159,-7.0,-2.0,62.0,1645449971.5625,P19,D10,0,0,0
160,-2.0,-3.0,63.0,1645449971.59375,P19,D10,0,0,0
161,-6.0,-3.0,62.0,1645449971.625,P19,D10,0,0,0
162,-6.0,-7.0,62.0,1645449971.65625,P19,D10,0,0,0
163,-6.0,-7.0,62.0,1645449971.6875,P19,D10,0,0,0
164,-9.0,-4.0,61.0,1645449971.71875,P19,D10,0,0,0
165,-8.0,-6.0,61.0,1645449971.75,P19,D10,0,0,0
166,-11.0,-4.0,61.0,1645449971.78125,P19,D10,0,0,0
167,-10.0,-4.0,61.0,1645449971.8125,P19,D10,0,0,0
168,-2.0,-1.0,63.0,1645449971.84375,P19,D10,0,0,0
169,-5.0,-5.0,62.0,1645449971.875,P19,D10,0,0,0
170,-10.0,-5.0,61.0,1645449971.90625,P19,D10,0,0,0
171,-9.0,-6.0,61.0,1645449971.9375,P19,D10,0,0,0
172,-1.0,-3.0,63.0,1645449971.96875,P19,D10,0,0,0
173,-1.0,-3.0,63.0,1645449972.0,P19,D10,0,0,0
174,-9.0,-4.0,62.0,1645449972.03125,P19,D10,0,0,0
175,-11.0,-4.0,61.0,1645449972.0625,P19,D10,0,0,0
176,-5.0,-4.0,62.0,1645449972.09375,P19,D10,0,0,0
177,-5.0,-3.0,63.0,1645449972.125,P19,D10,0,0,0
178,-7.0,-3.0,62.0,1645449972.15625,P19,D10,0,0,0
179,-9.0,-3.0,61.0,1645449972.1875,P19,D10,0,0,0
180,-8.0,-3.0,62.0,1645449972.21875,P19,D10,0,0,0
181,-5.0,-3.0,62.0,1645449972.25,P19,D10,0,0,0
182,-7.0,-3.0,62.0,1645449972.28125,P19,D10,0,0,0
183,-8.0,-4.0,62.0,1645449972.3125,P19,D10,0,0,0
184,-6.0,-3.0,62.0,1645449972.34375,P19,D10,0,0,0
185,-4.0,-3.0,62.0,1645449972.375,P19,D10,0,0,0
186,-6.0,-3.0,62.0,1645449972.40625,P19,D10,0,0,0
187,-8.0,-3.0,61.0,1645449972.4375,P19,D10,0,0,0
188,-6.0,-3.0,62.0,1645449972.46875,P19,D10,0,0,0
189,-6.0,-2.0,62.0,1645449972.5,P19,D10,0,0,0
190,-6.0,-2.0,62.0,1645449972.53125,P19,D10,0,0,0
191,-7.0,-2.0,62.0,1645449972.5625,P19,D10,0,0,0
192,-8.0,-2.0,62.0,1645449972.59375,P19,D10,0,0,0
193,-6.0,-2.0,62.0,1645449972.625,P19,D10,0,0,0
194,-5.0,-1.0,63.0,1645449972.65625,P19,D10,0,0,0
195,-5.0,-1.0,62.0,1645449972.6875,P19,D10,0,0,0
196,-10.0,-1.0,61.0,1645449972.71875,P19,D10,0,0,0
197,-7.0,-1.0,62.0,1645449972.75,P19,D10,0,0,0
198,-5.0,-1.0,63.0,1645449972.78125,P19,D10,0,0,0
199,-3.0,-1.0,63.0,1645449972.8125,P19,D10,0,0,0
200,-9.0,-1.0,61.0,1645449972.84375,P19,D10,0,0,0
201,-6.0,-1.0,63.0,1645449972.875,P19,D10,0,0,0
202,-6.0,-1.0,62.0,1645449972.90625,P19,D10,0,0,0
203,-8.0,0.0,62.0,1645449972.9375,P19,D10,0,0,0
204,-10.0,0.0,61.0,1645449972.96875,P19,D10,0,0,0
205,-6.0,-1.0,62.0,1645449973.0,P19,D10,0,0,0
206,-6.0,-1.0,63.0,1645449973.03125,P19,D10,0,0,0
207,-11.0,0.0,61.0,1645449973.0625,P19,D10,0,0,0
208,-11.0,0.0,61.0,1645449973.09375,P19,D10,0,0,0
209,-8.0,-1.0,62.0,1645449973.125,P19,D10,0,0,0
210,-8.0,-1.0,62.0,1645449973.15625,P19,D10,0,0,0
211,-8.0,-1.0,62.0,1645449973.1875,P19,D10,0,0,0
212,-8.0,-1.0,62.0,1645449973.21875,P19,D10,0,0,0
213,-9.0,-1.0,62.0,1645449973.25,P19,D10,0,0,0
214,-8.0,0.0,62.0,1645449973.28125,P19,D10,0,0,0
215,-8.0,-1.0,62.0,1645449973.3125,P19,D10,0,0,0
216,-6.0,-1.0,62.0,1645449973.34375,P19,D10,0,0,0
217,-7.0,-1.0,62.0,1645449973.375,P19,D10,0,0,0
218,-9.0,-1.0,62.0,1645449973.40625,P19,D10,0,0,0
219,-9.0,0.0,62.0,1645449973.4375,P19,D10,0,0,0
220,-4.0,-1.0,62.0,1645449973.46875,P19,D10,0,0,0
221,-5.0,-1.0,62.0,1645449973.5,P19,D10,0,0,0
222,-8.0,-2.0,62.0,1645449973.53125,P19,D10,0,0,0
223,-7.0,-1.0,62.0,1645449973.5625,P19,D10,0,0,0
224,-5.0,-1.0,62.0,1645449973.59375,P19,D10,0,0,0
225,-3.0,-2.0,63.0,1645449973.625,P19,D10,0,0,0
226,-7.0,-3.0,62.0,1645449973.65625,P19,D10,0,0,0
227,-12.0,-1.0,60.0,1645449973.6875,P19,D10,0,0,0
228,-7.0,-1.0,62.0,1645449973.71875,P19,D10,0,0,0
229,-5.0,0.0,62.0,1645449973.75,P19,D10,0,0,0
230,-11.0,-1.0,61.0,1645449973.78125,P19,D10,0,0,0
231,-11.0,-3.0,61.0,1645449973.8125,P19,D10,0,0,0
232,-9.0,-1.0,62.0,1645449973.84375,P19,D10,0,0,0
233,-5.0,-1.0,63.0,1645449973.875,P19,D10,0,0,0
234,-10.0,-2.0,62.0,1645449973.90625,P19,D10,0,0,0
235,-8.0,-2.0,62.0,1645449973.9375,P19,D10,0,0,0
236,-5.0,-2.0,62.0,1645449973.96875,P19,D10,0,0,0
237,-3.0,-2.0,63.0,1645449974.0,P19,D10,0,0,0
238,-10.0,-2.0,62.0,1645449974.03125,P19,D10,0,0,0
239,-7.0,-2.0,62.0,1645449974.0625,P19,D10,0,0,0
240,-4.0,-1.0,63.0,1645449974.09375,P19,D10,0,0,0
241,-9.0,-2.0,61.0,1645449974.125,P19,D10,0,0,0
242,-7.0,-2.0,62.0,1645449974.15625,P19,D10,0,0,0
243,-6.0,-2.0,62.0,1645449974.1875,P19,D10,0,0,0
244,-5.0,-2.0,62.0,1645449974.21875,P19,D10,0,0,0
245,-6.0,-1.0,62.0,1645449974.25,P19,D10,0,0,0
246,-6.0,-2.0,62.0,1645449974.28125,P19,D10,0,0,0
247,-5.0,-3.0,62.0,1645449974.3125,P19,D10,0,0,0
248,-6.0,-4.0,62.0,1645449974.34375,P19,D10,0,0,0
249,-4.0,-2.0,63.0,1645449974.375,P19,D10,0,0,0
250,-5.0,-3.0,62.0,1645449974.40625,P19,D10,0,0,0
251,-8.0,-2.0,62.0,1645449974.4375,P19,D10,0,0,0
252,-8.0,-3.0,62.0,1645449974.46875,P19,D10,0,0,0
253,-4.0,-1.0,62.0,1645449974.5,P19,D10,0,0,0
254,-2.0,-1.0,63.0,1645449974.53125,P19,D10,0,0,0
255,-6.0,-4.0,62.0,1645449974.5625,P19,D10,0,0,0
256,-6.0,-1.0,63.0,1645449974.59375,P19,D10,0,0,0
257,-5.0,-4.0,62.0,1645449974.625,P19,D10,0,0,0
258,-8.0,-2.0,62.0,1645449974.65625,P19,D10,0,0,0
259,-7.0,-3.0,62.0,1645449974.6875,P19,D10,0,0,0
260,-8.0,-3.0,61.0,1645449974.71875,P19,D10,0,0,0
261,-6.0,-3.0,62.0,1645449974.75,P19,D10,0,0,0
262,-9.0,-1.0,62.0,1645449974.78125,P19,D10,0,0,0
263,-8.0,-1.0,62.0,1645449974.8125,P19,D10,0,0,0
264,-5.0,-1.0,63.0,1645449974.84375,P19,D10,0,0,0
265,-4.0,-2.0,62.0,1645449974.875,P19,D10,0,0,0
266,-5.0,-2.0,62.0,1645449974.90625,P19,D10,0,0,0
267,-6.0,-3.0,62.0,1645449974.9375,P19,D10,0,0,0
268,-7.0,-2.0,62.0,1645449974.96875,P19,D10,0,0,0
269,-4.0,-1.0,62.0,1645449975.0,P19,D10,0,0,0
270,-5.0,-3.0,62.0,1645449975.03125,P19,D10,0,0,0
271,-8.0,-3.0,62.0,1645449975.0625,P19,D10,0,0,0
272,-6.0,-3.0,62.0,1645449975.09375,P19,D10,0,0,0
273,-3.0,-2.0,62.0,1645449975.125,P19,D10,0,0,0
274,-7.0,-3.0,61.0,1645449975.15625,P19,D10,0,0,0
275,-6.0,-2.0,62.0,1645449975.1875,P19,D10,0,0,0
276,-2.0,-2.0,62.0,1645449975.21875,P19,D10,0,0,0
277,-10.0,0.0,61.0,1645449975.25,P19,D10,0,0,0
278,-6.0,-4.0,62.0,1645449975.28125,P19,D10,0,0,0
279,0.0,-4.0,63.0,1645449975.3125,P19,D10,0,0,0
280,-4.0,-1.0,62.0,1645449975.34375,P19,D10,0,0,0
281,-3.0,-2.0,62.0,1645449975.375,P19,D10,0,0,0
282,-6.0,-2.0,62.0,1645449975.40625,P19,D10,0,0,0
283,-5.0,-2.0,62.0,1645449975.4375,P19,D10,0,0,0
284,-5.0,-2.0,62.0,1645449975.46875,P19,D10,0,0,0
285,-5.0,-3.0,62.0,1645449975.5,P19,D10,0,0,0
286,-2.0,-2.0,63.0,1645449975.53125,P19,D10,0,0,0
287,-2.0,-2.0,62.0,1645449975.5625,P19,D10,0,0,0
288,-3.0,-3.0,62.0,1645449975.59375,P19,D10,0,0,0
289,-5.0,-4.0,62.0,1645449975.625,P19,D10,0,0,0
290,-5.0,-2.0,62.0,1645449975.65625,P19,D10,0,0,0
291,-3.0,-2.0,62.0,1645449975.6875,P19,D10,0,0,0
292,-4.0,-2.0,62.0,1645449975.71875,P19,D10,0,0,0
293,-3.0,-3.0,62.0,1645449975.75,P19,D10,0,0,0
294,-2.0,-3.0,63.0,1645449975.78125,P19,D10,0,0,0
295,-6.0,-3.0,62.0,1645449975.8125,P19,D10,0,0,0
296,-5.0,-3.0,62.0,1645449975.84375,P19,D10,0,0,0
297,-2.0,-3.0,62.0,1645449975.875,P19,D10,0,0,0
298,-3.0,-3.0,62.0,1645449975.90625,P19,D10,0,0,0
299,-4.0,-3.0,62.0,1645449975.9375,P19,D10,0,0,0
300,-4.0,-3.0,62.0,1645449975.96875,P19,D10,0,0,0
301,-4.0,-3.0,62.0,1645449976.0,P19,D10,0,0,0
302,-5.0,-3.0,62.0,1645449976.03125,P19,D10,0,0,0
303,-3.0,-2.0,62.0,1645449976.0625,P19,D10,0,0,0
304,-6.0,-3.0,62.0,1645449976.09375,P19,D10,0,0,0
305,-4.0,-4.0,62.0,1645449976.125,P19,D10,0,0,0
306,-5.0,-2.0,62.0,1645449976.15625,P19,D10,0,0,0
307,-6.0,-2.0,62.0,1645449976.1875,P19,D10,0,0,0
308,-3.0,-4.0,62.0,1645449976.21875,P19,D10,0,0,0
309,-4.0,-4.0,62.0,1645449976.25,P19,D10,0,0,0
310,-5.0,-3.0,62.0,1645449976.28125,P19,D10,0,0,0
311,-4.0,-3.0,62.0,1645449976.3125,P19,D10,0,0,0
312,-5.0,-4.0,62.0,1645449976.34375,P19,D10,0,0,0
313,-5.0,-4.0,62.0,1645449976.375,P19,D10,0,0,0
314,-4.0,-3.0,62.0,1645449976.40625,P19,D10,0,0,0
315,-6.0,-4.0,62.0,1645449976.4375,P19,D10,0,0,0
316,-6.0,-3.0,62.0,1645449976.46875,P19,D10,0,0,0
317,-6.0,-2.0,62.0,1645449976.5,P19,D10,0,0,0
318,-7.0,-3.0,62.0,1645449976.53125,P19,D10,0,0,0
319,-6.0,-3.0,62.0,1645449976.5625,P19,D10,0,0,0
320,-7.0,-3.0,62.0,1645449976.59375,P19,D10,0,0,0
321,-6.0,-3.0,62.0,1645449976.625,P19,D10,0,0,0
322,-4.0,-3.0,62.0,1645449976.65625,P19,D10,0,0,0
323,-4.0,-3.0,63.0,1645449976.6875,P19,D10,0,0,0
324,-9.0,-3.0,61.0,1645449976.71875,P19,D10,0,0,0
325,-9.0,-2.0,61.0,1645449976.75,P19,D10,0,0,0
326,-8.0,-2.0,62.0,1645449976.78125,P19,D10,0,0,0
327,-8.0,-2.0,61.0,1645449976.8125,P19,D10,0,0,0
328,-6.0,-3.0,62.0,1645449976.84375,P19,D10,0,0,0
329,-6.0,-3.0,62.0,1645449976.875,P19,D10,0,0,0
330,-8.0,-3.0,62.0,1645449976.90625,P19,D10,0,0,0
331,-8.0,-3.0,62.0,1645449976.9375,P19,D10,0,0,0
332,-6.0,-3.0,62.0,1645449976.96875,P19,D10,0,0,0
333,-7.0,-3.0,62.0,1645449977.0,P19,D10,0,0,0
334,-8.0,-2.0,62.0,1645449977.03125,P19,D10,0,0,0
335,-11.0,-3.0,61.0,1645449977.0625,P19,D10,0,0,0
336,-7.0,-3.0,62.0,1645449977.09375,P19,D10,0,0,0
337,1.0,-3.0,63.0,1645449977.125,P19,D10,0,0,0
338,-3.0,-2.0,63.0,1645449977.15625,P19,D10,0,0,0
339,-8.0,-2.0,62.0,1645449977.1875,P19,D10,0,0,0
340,-4.0,-2.0,62.0,1645449977.21875,P19,D10,0,0,0
341,-9.0,-2.0,61.0,1645449977.25,P19,D10,0,0,0
342,-8.0,-2.0,62.0,1645449977.28125,P19,D10,0,0,0
343,-6.0,-2.0,62.0,1645449977.3125,P19,D10,0,0,0
344,-6.0,-2.0,62.0,1645449977.34375,P19,D10,0,0,0
345,-7.0,-3.0,62.0,1645449977.375,P19,D10,0,0,0
346,-7.0,-2.0,62.0,1645449977.40625,P19,D10,0,0,0
347,-7.0,-2.0,62.0,1645449977.4375,P19,D10,0,0,0
348,-6.0,-2.0,62.0,1645449977.46875,P19,D10,0,0,0
349,-6.0,-2.0,62.0,1645449977.5,P19,D10,0,0,0
350,-7.0,-2.0,62.0,1645449977.53125,P19,D10,0,0,0
351,-6.0,-2.0,62.0,1645449977.5625,P19,D10,0,0,0
352,-5.0,-2.0,62.0,1645449977.59375,P19,D10,0,0,0
353,-7.0,-2.0,62.0,1645449977.625,P19,D10,0,0,0
354,-7.0,-2.0,62.0,1645449977.65625,P19,D10,0,0,0
355,-6.0,-2.0,63.0,1645449977.6875,P19,D10,0,0,0
356,-8.0,-2.0,62.0,1645449977.71875,P19,D10,0,0,0
357,-6.0,-2.0,62.0,1645449977.75,P19,D10,0,0,0
358,-7.0,-2.0,62.0,1645449977.78125,P19,D10,0,0,0
359,-5.0,-2.0,62.0,1645449977.8125,P19,D10,0,0,0
360,-6.0,-2.0,62.0,1645449977.84375,P19,D10,0,0,0
361,-8.0,-2.0,62.0,1645449977.875,P19,D10,0,0,0
362,-7.0,-2.0,62.0,1645449977.90625,P19,D10,0,0,0
363,-7.0,-2.0,62.0,1645449977.9375,P19,D10,0,0,0
364,-6.0,-2.0,62.0,1645449977.96875,P19,D10,0,0,0
365,-7.0,-2.0,62.0,1645449978.0,P19,D10,0,0,0
366,-7.0,-1.0,62.0,1645449978.03125,P19,D10,0,0,0
367,-8.0,-2.0,62.0,1645449978.0625,P19,D10,0,0,0
368,-8.0,-2.0,62.0,1645449978.09375,P19,D10,0,0,0
369,-7.0,-1.0,62.0,1645449978.125,P19,D10,0,0,0
370,-7.0,-1.0,62.0,1645449978.15625,P19,D10,0,0,0
371,-9.0,-1.0,62.0,1645449978.1875,P19,D10,0,0,0
372,-9.0,-3.0,62.0,1645449978.21875,P19,D10,0,0,0
373,-7.0,-2.0,62.0,1645449978.25,P19,D10,0,0,0
374,-5.0,-2.0,62.0,1645449978.28125,P19,D10,0,0,0
375,-5.0,-3.0,62.0,1645449978.3125,P19,D10,0,0,0
376,-7.0,-1.0,62.0,1645449978.34375,P19,D10,0,0,0
377,-6.0,-2.0,62.0,1645449978.375,P19,D10,0,0,0
378,-7.0,-2.0,62.0,1645449978.40625,P19,D10,0,0,0
379,-9.0,-2.0,61.0,1645449978.4375,P19,D10,0,0,0
380,-5.0,-2.0,62.0,1645449978.46875,P19,D10,0,0,0
381,-8.0,-2.0,62.0,1645449978.5,P19,D10,0,0,0
382,-7.0,-2.0,62.0,1645449978.53125,P19,D10,0,0,0
383,-7.0,-2.0,62.0,1645449978.5625,P19,D10,0,0,0
384,-7.0,-2.0,62.0,1645449978.59375,P19,D10,0,0,0
385,-3.0,-2.0,63.0,1645449978.625,P19,D10,0,0,0
386,-7.0,-4.0,63.0,1645449978.65625,P19,D10,0,0,0
387,-11.0,-1.0,61.0,1645449978.6875,P19,D10,0,0,0
388,-9.0,-2.0,61.0,1645449978.71875,P19,D10,0,0,0
389,-6.0,-2.0,62.0,1645449978.75,P19,D10,0,0,0
390,-6.0,-3.0,62.0,1645449978.78125,P19,D10,0,0,0
391,-9.0,-2.0,62.0,1645449978.8125,P19,D10,0,0,0
392,-5.0,-2.0,62.0,1645449978.84375,P19,D10,0,0,0
393,-4.0,-2.0,63.0,1645449978.875,P19,D10,0,0,0
394,-6.0,-2.0,62.0,1645449978.90625,P19,D10,0,0,0
395,-6.0,-2.0,62.0,1645449978.9375,P19,D10,0,0,0
396,-7.0,-2.0,62.0,1645449978.96875,P19,D10,0,0,0
397,-6.0,-2.0,62.0,1645449979.0,P19,D10,0,0,0
398,-6.0,-2.0,62.0,1645449979.03125,P19,D10,0,0,0
399,-7.0,-2.0,62.0,1645449979.0625,P19,D10,0,0,0
400,-10.0,-2.0,61.0,1645449979.09375,P19,D10,0,0,0
401,0.0,-2.0,63.0,1645449979.125,P19,D10,0,0,0
402,-1.0,-3.0,63.0,1645449979.15625,P19,D10,0,0,0
403,-5.0,-1.0,62.0,1645449979.1875,P19,D10,0,0,0
404,-7.0,-2.0,62.0,1645449979.21875,P19,D10,0,0,0
405,-8.0,-2.0,62.0,1645449979.25,P19,D10,0,0,0
406,-8.0,-3.0,62.0,1645449979.28125,P19,D10,0,0,0
407,-5.0,-2.0,62.0,1645449979.3125,P19,D10,0,0,0
408,-6.0,-2.0,62.0,1645449979.34375,P19,D10,0,0,0
409,-5.0,-2.0,62.0,1645449979.375,P19,D10,0,0,0
410,-5.0,-3.0,62.0,1645449979.40625,P19,D10,0,0,0
411,-5.0,-2.0,62.0,1645449979.4375,P19,D10,0,0,0
412,-5.0,-2.0,62.0,1645449979.46875,P19,D10,0,0,0
413,-6.0,-2.0,62.0,1645449979.5,P19,D10,0,0,0
414,-4.0,-3.0,63.0,1645449979.53125,P19,D10,0,0,0
415,-4.0,-3.0,63.0,1645449979.5625,P19,D10,0,0,0
416,-7.0,-2.0,62.0,1645449979.59375,P19,D10,0,0,0
417,-5.0,-2.0,62.0,1645449979.625,P19,D10,0,0,0
418,-5.0,-2.0,62.0,1645449979.65625,P19,D10,0,0,0
419,-7.0,-2.0,62.0,1645449979.6875,P19,D10,0,0,0
420,-4.0,-3.0,62.0,1645449979.71875,P19,D10,0,0,0
421,-4.0,-2.0,62.0,1645449979.75,P19,D10,0,0,0
422,-7.0,-1.0,62.0,1645449979.78125,P19,D10,0,0,0
423,-7.0,-2.0,62.0,1645449979.8125,P19,D10,0,0,0
424,-6.0,-2.0,62.0,1645449979.84375,P19,D10,0,0,0
425,-6.0,-2.0,62.0,1645449979.875,P19,D10,0,0,0
426,-5.0,-2.0,62.0,1645449979.90625,P19,D10,0,0,0
427,-5.0,-3.0,62.0,1645449979.9375,P19,D10,0,0,0
428,-6.0,-2.0,62.0,1645449979.96875,P19,D10,0,0,0
429,-6.0,-2.0,62.0,1645449980.0,P19,D10,0,0,0
430,-7.0,-2.0,62.0,1645449980.03125,P19,D10,0,0,0
431,-6.0,-3.0,62.0,1645449980.0625,P19,D10,0,0,0
432,-6.0,-3.0,62.0,1645449980.09375,P19,D10,0,0,0
433,-7.0,-3.0,62.0,1645449980.125,P19,D10,0,0,0
434,-5.0,-2.0,62.0,1645449980.15625,P19,D10,0,0,0
435,-5.0,-3.0,62.0,1645449980.1875,P19,D10,0,0,0
436,-5.0,-2.0,62.0,1645449980.21875,P19,D10,0,0,0
437,-5.0,-2.0,62.0,1645449980.25,P19,D10,0,0,0
438,-6.0,-2.0,62.0,1645449980.28125,P19,D10,0,0,0
439,-5.0,-3.0,62.0,1645449980.3125,P19,D10,0,0,0
440,-6.0,-3.0,62.0,1645449980.34375,P19,D10,0,0,0
441,-6.0,-2.0,62.0,1645449980.375,P19,D10,0,0,0
442,-5.0,-3.0,62.0,1645449980.40625,P19,D10,0,0,0
443,-4.0,-3.0,62.0,1645449980.4375,P19,D10,0,0,0
444,-5.0,-3.0,62.0,1645449980.46875,P19,D10,0,0,0
445,-5.0,-2.0,62.0,1645449980.5,P19,D10,0,0,0
446,-4.0,-2.0,62.0,1645449980.53125,P19,D10,0,0,0
447,-5.0,-3.0,62.0,1645449980.5625,P19,D10,0,0,0
448,-6.0,-3.0,62.0,1645449980.59375,P19,D10,0,0,0
449,-5.0,-3.0,62.0,1645449980.625,P19,D10,0,0,0
450,-5.0,-3.0,62.0,1645449980.65625,P19,D10,0,0,0
451,-5.0,-3.0,62.0,1645449980.6875,P19,D10,0,0,0
452,-5.0,-2.0,62.0,1645449980.71875,P19,D10,0,0,0
453,-5.0,-3.0,62.0,1645449980.75,P19,D10,0,0,0
454,-6.0,-3.0,62.0,1645449980.78125,P19,D10,0,0,0
455,-6.0,-3.0,62.0,1645449980.8125,P19,D10,0,0,0
456,-5.0,-3.0,62.0,1645449980.84375,P19,D10,0,0,0
457,-6.0,-3.0,62.0,1645449980.875,P19,D10,0,0,0
458,-6.0,-3.0,62.0,1645449980.90625,P19,D10,0,0,0
459,-5.0,-3.0,62.0,1645449980.9375,P19,D10,0,0,0
460,-6.0,-3.0,62.0,1645449980.96875,P19,D10,0,0,0
461,-6.0,-3.0,62.0,1645449981.0,P19,D10,0,0,0
462,-6.0,-3.0,62.0,1645449981.03125,P19,D10,0,0,0
463,-6.0,-3.0,62.0,1645449981.0625,P19,D10,0,0,0
464,-6.0,-3.0,62.0,1645449981.09375,P19,D10,0,0,0
465,-6.0,-3.0,62.0,1645449981.125,P19,D10,0,0,0
466,-6.0,-3.0,62.0,1645449981.15625,P19,D10,0,0,0
467,-6.0,-3.0,62.0,1645449981.1875,P19,D10,0,0,0
468,-6.0,-3.0,62.0,1645449981.21875,P19,D10,0,0,0
469,-6.0,-3.0,62.0,1645449981.25,P19,D10,0,0,0
470,-6.0,-3.0,62.0,1645449981.28125,P19,D10,0,0,0
471,-6.0,-3.0,62.0,1645449981.3125,P19,D10,0,0,0
472,-5.0,-3.0,62.0,1645449981.34375,P19,D10,0,0,0
473,-6.0,-3.0,62.0,1645449981.375,P19,D10,0,0,0
474,-6.0,-3.0,62.0,1645449981.40625,P19,D10,0,0,0
475,-6.0,-3.0,62.0,1645449981.4375,P19,D10,0,0,0
476,-6.0,-3.0,62.0,1645449981.46875,P19,D10,0,0,0
477,-6.0,-3.0,62.0,1645449981.5,P19,D10,0,0,0
478,-6.0,-3.0,62.0,1645449981.53125,P19,D10,0,0,0
479,-5.0,-3.0,62.0,1645449981.5625,P19,D10,0,0,0
480,-6.0,-3.0,62.0,1645449981.59375,P19,D10,0,0,0
481,-6.0,-3.0,62.0,1645449981.625,P19,D10,0,0,0
482,-6.0,-3.0,62.0,1645449981.65625,P19,D10,0,0,0
483,-6.0,-3.0,62.0,1645449981.6875,P19,D10,0,0,0
484,-6.0,-3.0,62.0,1645449981.71875,P19,D10,0,0,0
485,-6.0,-3.0,62.0,1645449981.75,P19,D10,0,0,0
486,-6.0,-3.0,62.0,1645449981.78125,P19,D10,0,0,0
487,-6.0,-3.0,62.0,1645449981.8125,P19,D10,0,0,0
488,-6.0,-3.0,62.0,1645449981.84375,P19,D10,0,0,0
489,-6.0,-3.0,62.0,1645449981.875,P19,D10,0,0,0
490,-5.0,-3.0,62.0,1645449981.90625,P19,D10,0,0,0
491,-6.0,-3.0,62.0,1645449981.9375,P19,D10,0,0,0
492,-6.0,-3.0,62.0,1645449981.96875,P19,D10,0,0,0
493,-6.0,-3.0,62.0,1645449982.0,P19,D10,0,0,0
494,-6.0,-3.0,62.0,1645449982.03125,P19,D10,0,0,0
495,-6.0,-3.0,62.0,1645449982.0625,P19,D10,0,0,0
496,-6.0,-3.0,62.0,1645449982.09375,P19,D10,0,0,0
497,-6.0,-3.0,62.0,1645449982.125,P19,D10,0,0,0
498,-6.0,-3.0,62.0,1645449982.15625,P19,D10,0,0,0
499,-6.0,-3.0,62.0,1645449982.1875,P19,D10,0,0,0
500,-5.0,-3.0,62.0,1645449982.21875,P19,D10,0,0,0
501,-6.0,-3.0,62.0,1645449982.25,P19,D10,0,0,0
502,-6.0,-3.0,62.0,1645449982.28125,P19,D10,0,0,0
503,-6.0,-3.0,62.0,1645449982.3125,P19,D10,0,0,0
504,-6.0,-3.0,62.0,1645449982.34375,P19,D10,0,0,0
505,-6.0,-3.0,62.0,1645449982.375,P19,D10,0,0,0
506,-6.0,-3.0,62.0,1645449982.40625,P19,D10,0,0,0
507,-6.0,-3.0,62.0,1645449982.4375,P19,D10,0,0,0
508,-6.0,-3.0,62.0,1645449982.46875,P19,D10,0,0,0
509,-6.0,-3.0,62.0,1645449982.5,P19,D10,0,0,0
510,-6.0,-3.0,62.0,1645449982.53125,P19,D10,0,0,0
511,-6.0,-3.0,62.0,1645449982.5625,P19,D10,0,0,0
512,-6.0,-3.0,62.0,1645449982.59375,P19,D10,0,0,0
513,-6.0,-3.0,62.0,1645449982.625,P19,D10,0,0,0
514,-7.0,-3.0,62.0,1645449982.65625,P19,D10,0,0,0
515,-6.0,-3.0,62.0,1645449982.6875,P19,D10,0,0,0
516,-6.0,-3.0,62.0,1645449982.71875,P19,D10,0,0,0
517,-7.0,-3.0,62.0,1645449982.75,P19,D10,0,0,0
518,-7.0,-3.0,62.0,1645449982.78125,P19,D10,0,0,0
519,-6.0,-3.0,62.0,1645449982.8125,P19,D10,0,0,0
520,-6.0,-3.0,62.0,1645449982.84375,P19,D10,0,0,0
521,-7.0,-4.0,62.0,1645449982.875,P19,D10,0,0,0
522,-6.0,-3.0,62.0,1645449982.90625,P19,D10,0,0,0
523,-6.0,-3.0,62.0,1645449982.9375,P19,D10,0,0,0
524,-6.0,-3.0,62.0,1645449982.96875,P19,D10,0,0,0
525,-6.0,-3.0,62.0,1645449983.0,P19,D10,0,0,0
526,-6.0,-3.0,62.0,1645449983.03125,P19,D10,0,0,0
527,-5.0,-3.0,62.0,1645449983.0625,P19,D10,0,0,0
528,-6.0,-3.0,62.0,1645449983.09375,P19,D10,0,0,0
529,-7.0,-4.0,62.0,1645449983.125,P19,D10,0,0,0
530,-8.0,-3.0,62.0,1645449983.15625,P19,D10,0,0,0
531,-5.0,-3.0,62.0,1645449983.1875,P19,D10,0,0,0
532,-7.0,-3.0,62.0,1645449983.21875,P19,D10,0,0,0
533,-8.0,-4.0,61.0,1645449983.25,P19,D10,0,0,0
534,-6.0,-3.0,62.0,1645449983.28125,P19,D10,0,0,0
535,-6.0,-3.0,62.0,1645449983.3125,P19,D10,0,0,0
536,-6.0,-4.0,62.0,1645449983.34375,P19,D10,0,0,0
537,-7.0,-4.0,62.0,1645449983.375,P19,D10,0,0,0
538,-7.0,-3.0,62.0,1645449983.40625,P19,D10,0,0,0
539,-5.0,-4.0,62.0,1645449983.4375,P19,D10,0,0,0
540,-5.0,-4.0,62.0,1645449983.46875,P19,D10,0,0,0
541,-7.0,-3.0,61.0,1645449983.5,P19,D10,0,0,0
542,-7.0,-3.0,62.0,1645449983.53125,P19,D10,0,0,0
543,-5.0,-4.0,62.0,1645449983.5625,P19,D10,0,0,0
544,-6.0,-3.0,62.0,1645449983.59375,P19,D10,0,0,0
545,-6.0,-4.0,62.0,1645449983.625,P19,D10,0,0,0
546,-6.0,-3.0,62.0,1645449983.65625,P19,D10,0,0,0
547,-6.0,-4.0,62.0,1645449983.6875,P19,D10,0,0,0
548,-6.0,-4.0,62.0,1645449983.71875,P19,D10,0,0,0
549,-6.0,-4.0,62.0,1645449983.75,P19,D10,0,0,0
550,-6.0,-4.0,62.0,1645449983.78125,P19,D10,0,0,0
551,-6.0,-4.0,62.0,1645449983.8125,P19,D10,0,0,0
552,-7.0,-4.0,62.0,1645449983.84375,P19,D10,0,0,0
553,-6.0,-4.0,62.0,1645449983.875,P19,D10,0,0,0
554,-6.0,-4.0,62.0,1645449983.90625,P19,D10,0,0,0
555,-6.0,-4.0,62.0,1645449983.9375,P19,D10,0,0,0
556,-7.0,-4.0,62.0,1645449983.96875,P19,D10,0,0,0
557,-6.0,-4.0,62.0,1645449984.0,P19,D10,0,0,0
558,-6.0,-4.0,62.0,1645449984.03125,P19,D10,0,0,0
559,-6.0,-4.0,62.0,1645449984.0625,P19,D10,0,0,0
560,-6.0,-4.0,62.0,1645449984.09375,P19,D10,0,0,0
561,-6.0,-4.0,62.0,1645449984.125,P19,D10,0,0,0
562,-6.0,-4.0,62.0,1645449984.15625,P19,D10,0,0,0
563,-6.0,-4.0,62.0,1645449984.1875,P19,D10,0,0,0
564,-7.0,-4.0,62.0,1645449984.21875,P19,D10,0,0,0
565,-6.0,-4.0,62.0,1645449984.25,P19,D10,0,0,0
566,-6.0,-4.0,62.0,1645449984.28125,P19,D10,0,0,0
567,-6.0,-4.0,62.0,1645449984.3125,P19,D10,0,0,0
568,-6.0,-4.0,62.0,1645449984.34375,P19,D10,0,0,0
569,-6.0,-4.0,62.0,1645449984.375,P19,D10,0,0,0
570,-5.0,-4.0,62.0,1645449984.40625,P19,D10,0,0,0
571,-6.0,-4.0,62.0,1645449984.4375,P19,D10,0,0,0
572,-6.0,-4.0,62.0,1645449984.46875,P19,D10,0,0,0
573,-6.0,-4.0,62.0,1645449984.5,P19,D10,0,0,0
574,-6.0,-4.0,62.0,1645449984.53125,P19,D10,0,0,0
575,-6.0,-4.0,62.0,1645449984.5625,P19,D10,0,0,0
576,-6.0,-4.0,62.0,1645449984.59375,P19,D10,0,0,0
577,-6.0,-4.0,62.0,1645449984.625,P19,D10,0,0,0
578,-6.0,-4.0,62.0,1645449984.65625,P19,D10,0,0,0
579,-7.0,-4.0,62.0,1645449984.6875,P19,D10,0,0,0
580,-6.0,-4.0,62.0,1645449984.71875,P19,D10,0,0,0
581,-6.0,-4.0,62.0,1645449984.75,P19,D10,0,0,0
582,-6.0,-4.0,62.0,1645449984.78125,P19,D10,0,0,0
583,-6.0,-4.0,62.0,1645449984.8125,P19,D10,0,0,0
584,-7.0,-4.0,62.0,1645449984.84375,P19,D10,0,0,0
585,-6.0,-4.0,62.0,1645449984.875,P19,D10,0,0,0
586,-6.0,-4.0,62.0,1645449984.90625,P19,D10,0,0,0
587,-6.0,-4.0,62.0,1645449984.9375,P19,D10,0,0,0
588,-6.0,-4.0,62.0,1645449984.96875,P19,D10,0,0,0
589,-6.0,-4.0,62.0,1645449985.0,P19,D10,0,0,0
590,-6.0,-4.0,62.0,1645449985.03125,P19,D10,0,0,0
591,-5.0,-4.0,62.0,1645449985.0625,P19,D10,0,0,0
592,-4.0,-4.0,62.0,1645449985.09375,P19,D10,0,0,0
593,-6.0,-5.0,62.0,1645449985.125,P19,D10,0,0,0
594,-6.0,-4.0,62.0,1645449985.15625,P19,D10,0,0,0
595,-5.0,-4.0,62.0,1645449985.1875,P19,D10,0,0,0
596,-5.0,-5.0,62.0,1645449985.21875,P19,D10,0,0,0
597,-6.0,-4.0,62.0,1645449985.25,P19,D10,0,0,0
598,-5.0,-4.0,62.0,1645449985.28125,P19,D10,0,0,0
599,-4.0,-4.0,62.0,1645449985.3125,P19,D10,0,0,0
600,-6.0,-4.0,62.0,1645449985.34375,P19,D10,0,0,0
601,-6.0,-4.0,62.0,1645449985.375,P19,D10,0,0,0
602,-5.0,-4.0,62.0,1645449985.40625,P19,D10,0,0,0
603,-4.0,-4.0,62.0,1645449985.4375,P19,D10,0,0,0
604,-5.0,-5.0,62.0,1645449985.46875,P19,D10,0,0,0
605,-7.0,-4.0,62.0,1645449985.5,P19,D10,0,0,0
606,-5.0,-4.0,62.0,1645449985.53125,P19,D10,0,0,0
607,-3.0,-4.0,62.0,1645449985.5625,P19,D10,0,0,0
608,-4.0,-4.0,62.0,1645449985.59375,P19,D10,0,0,0
609,-6.0,-3.0,62.0,1645449985.625,P19,D10,0,0,0
610,-4.0,-3.0,62.0,1645449985.65625,P19,D10,0,0,0
611,-4.0,-4.0,62.0,1645449985.6875,P19,D10,0,0,0
612,-5.0,-4.0,62.0,1645449985.71875,P19,D10,0,0,0
613,-4.0,-4.0,62.0,1645449985.75,P19,D10,0,0,0
614,-4.0,-4.0,62.0,1645449985.78125,P19,D10,0,0,0
615,-2.0,-4.0,62.0,1645449985.8125,P19,D10,0,0,0
616,-6.0,-4.0,62.0,1645449985.84375,P19,D10,0,0,0
617,-5.0,-3.0,62.0,1645449985.875,P19,D10,0,0,0
618,-3.0,-4.0,62.0,1645449985.90625,P19,D10,0,0,0
619,-5.0,-4.0,62.0,1645449985.9375,P19,D10,0,0,0
620,-4.0,-4.0,62.0,1645449985.96875,P19,D10,0,0,0
621,-3.0,-3.0,63.0,1645449986.0,P19,D10,0,0,0
622,-4.0,-4.0,62.0,1645449986.03125,P19,D10,0,0,0
623,-5.0,-4.0,62.0,1645449986.0625,P19,D10,0,0,0
624,-6.0,-4.0,62.0,1645449986.09375,P19,D10,0,0,0
625,-3.0,-4.0,62.0,1645449986.125,P19,D10,0,0,0
626,-3.0,-4.0,63.0,1645449986.15625,P19,D10,0,0,0
627,-5.0,-4.0,62.0,1645449986.1875,P19,D10,0,0,0
628,-4.0,-4.0,62.0,1645449986.21875,P19,D10,0,0,0
629,-5.0,-3.0,62.0,1645449986.25,P19,D10,0,0,0
630,-5.0,-4.0,62.0,1645449986.28125,P19,D10,0,0,0
631,-5.0,-2.0,62.0,1645449986.3125,P19,D10,0,0,0
632,-6.0,-2.0,62.0,1645449986.34375,P19,D10,0,0,0
633,-4.0,-4.0,62.0,1645449986.375,P19,D10,0,0,0
634,-3.0,-4.0,62.0,1645449986.40625,P19,D10,0,0,0
635,-4.0,-4.0,62.0,1645449986.4375,P19,D10,0,0,0
636,-4.0,-4.0,62.0,1645449986.46875,P19,D10,0,0,0
637,-3.0,-4.0,62.0,1645449986.5,P19,D10,0,0,0
638,-4.0,-4.0,62.0,1645449986.53125,P19,D10,0,0,0
639,-5.0,-3.0,62.0,1645449986.5625,P19,D10,0,0,0
640,-5.0,-4.0,62.0,1645449986.59375,P19,D10,0,0,0
641,-6.0,-4.0,62.0,1645449986.625,P19,D10,0,0,0
642,-6.0,-3.0,62.0,1645449986.65625,P19,D10,0,0,0
643,-4.0,-2.0,62.0,1645449986.6875,P19,D10,0,0,0
644,-3.0,-4.0,63.0,1645449986.71875,P19,D10,0,0,0
645,-4.0,-5.0,62.0,1645449986.75,P19,D10,0,0,0
646,-6.0,-3.0,62.0,1645449986.78125,P19,D10,0,0,0
647,-5.0,-4.0,62.0,1645449986.8125,P19,D10,0,0,0
648,-2.0,-4.0,62.0,1645449986.84375,P19,D10,0,0,0
649,-4.0,-4.0,62.0,1645449986.875,P19,D10,0,0,0
650,-5.0,-3.0,62.0,1645449986.90625,P19,D10,0,0,0
651,-5.0,-4.0,62.0,1645449986.9375,P19,D10,0,0,0
652,-6.0,-4.0,62.0,1645449986.96875,P19,D10,0,0,0
653,-7.0,-5.0,62.0,1645449987.0,P19,D10,0,0,0
654,-8.0,-4.0,61.0,1645449987.03125,P19,D10,0,0,0
655,-8.0,-3.0,62.0,1645449987.0625,P19,D10,0,0,0
656,-5.0,-4.0,62.0,1645449987.09375,P19,D10,0,0,0
657,-7.0,-4.0,62.0,1645449987.125,P19,D10,0,0,0
658,-7.0,-4.0,61.0,1645449987.15625,P19,D10,0,0,0
659,-3.0,-4.0,62.0,1645449987.1875,P19,D10,0,0,0
660,-4.0,-4.0,62.0,1645449987.21875,P19,D10,0,0,0
661,-6.0,-3.0,62.0,1645449987.25,P19,D10,0,0,0
662,-4.0,-3.0,62.0,1645449987.28125,P19,D10,0,0,0
663,-3.0,-3.0,62.0,1645449987.3125,P19,D10,0,0,0
664,-5.0,-4.0,62.0,1645449987.34375,P19,D10,0,0,0
665,-4.0,-4.0,62.0,1645449987.375,P19,D10,0,0,0
666,-4.0,-4.0,62.0,1645449987.40625,P19,D10,0,0,0
667,-5.0,-4.0,62.0,1645449987.4375,P19,D10,0,0,0
668,-6.0,-4.0,62.0,1645449987.46875,P19,D10,0,0,0
669,-5.0,-4.0,62.0,1645449987.5,P19,D10,0,0,0
670,-4.0,-4.0,62.0,1645449987.53125,P19,D10,0,0,0
671,-5.0,-4.0,62.0,1645449987.5625,P19,D10,0,0,0
672,-4.0,-4.0,62.0,1645449987.59375,P19,D10,0,0,0
673,-4.0,-4.0,62.0,1645449987.625,P19,D10,0,0,0
674,-5.0,-5.0,62.0,1645449987.65625,P19,D10,0,0,0
675,-4.0,-4.0,62.0,1645449987.6875,P19,D10,0,0,0
676,-3.0,-4.0,62.0,1645449987.71875,P19,D10,0,0,0
677,-5.0,-4.0,62.0,1645449987.75,P19,D10,0,0,0
678,-6.0,-4.0,62.0,1645449987.78125,P19,D10,0,0,0
679,-5.0,-5.0,62.0,1645449987.8125,P19,D10,0,0,0
680,-5.0,-5.0,62.0,1645449987.84375,P19,D10,0,0,0
681,-5.0,-5.0,62.0,1645449987.875,P19,D10,0,0,0
682,-5.0,-4.0,62.0,1645449987.90625,P19,D10,0,0,0
683,-4.0,-4.0,62.0,1645449987.9375,P19,D10,0,0,0
684,-7.0,-5.0,62.0,1645449987.96875,P19,D10,0,0,0
685,-6.0,-4.0,62.0,1645449988.0,P19,D10,0,0,0
686,-5.0,-4.0,62.0,1645449988.03125,P19,D10,0,0,0
687,-6.0,-4.0,62.0,1645449988.0625,P19,D10,0,0,0
688,-8.0,-4.0,62.0,1645449988.09375,P19,D10,0,0,0
689,-7.0,-4.0,62.0,1645449988.125,P19,D10,0,0,0
690,-6.0,-5.0,62.0,1645449988.15625,P19,D10,0,0,0
691,-5.0,-4.0,62.0,1645449988.1875,P19,D10,0,0,0
692,-6.0,-4.0,62.0,1645449988.21875,P19,D10,0,0,0
693,-6.0,-4.0,62.0,1645449988.25,P19,D10,0,0,0
694,-6.0,-4.0,62.0,1645449988.28125,P19,D10,0,0,0
695,-6.0,-4.0,62.0,1645449988.3125,P19,D10,0,0,0
696,-6.0,-4.0,62.0,1645449988.34375,P19,D10,0,0,0
697,-6.0,-4.0,62.0,1645449988.375,P19,D10,0,0,0
698,-5.0,-5.0,62.0,1645449988.40625,P19,D10,0,0,0
699,-6.0,-4.0,62.0,1645449988.4375,P19,D10,0,0,0
700,-6.0,-4.0,62.0,1645449988.46875,P19,D10,0,0,0
701,-6.0,-4.0,62.0,1645449988.5,P19,D10,0,0,0
702,-5.0,-4.0,62.0,1645449988.53125,P19,D10,0,0,0
703,-5.0,-4.0,62.0,1645449988.5625,P19,D10,0,0,0
704,-6.0,-4.0,62.0,1645449988.59375,P19,D10,0,0,0
705,-6.0,-4.0,62.0,1645449988.625,P19,D10,0,0,0
706,-4.0,-4.0,62.0,1645449988.65625,P19,D10,0,0,0
707,-5.0,-4.0,62.0,1645449988.6875,P19,D10,0,0,0
708,-5.0,-4.0,62.0,1645449988.71875,P19,D10,0,0,0
709,-5.0,-4.0,62.0,1645449988.75,P19,D10,0,0,0
710,-5.0,-4.0,62.0,1645449988.78125,P19,D10,0,0,0
711,-7.0,-4.0,62.0,1645449988.8125,P19,D10,0,0,0
712,-5.0,-4.0,62.0,1645449988.84375,P19,D10,0,0,0
713,-4.0,-4.0,62.0,1645449988.875,P19,D10,0,0,0
714,-6.0,-4.0,62.0,1645449988.90625,P19,D10,0,0,0
715,-6.0,-5.0,62.0,1645449988.9375,P19,D10,0,0,0
716,-4.0,-4.0,62.0,1645449988.96875,P19,D10,0,0,0
717,-5.0,-4.0,62.0,1645449989.0,P19,D10,0,0,0
718,-7.0,-4.0,62.0,1645449989.03125,P19,D10,0,0,0
719,-4.0,-4.0,62.0,1645449989.0625,P19,D10,0,0,0
720,-4.0,-4.0,62.0,1645449989.09375,P19,D10,0,0,0
721,-6.0,-4.0,62.0,1645449989.125,P19,D10,0,0,0
722,-6.0,-4.0,62.0,1645449989.15625,P19,D10,0,0,0
723,-4.0,-4.0,62.0,1645449989.1875,P19,D10,0,0,0
724,-4.0,-4.0,62.0,1645449989.21875,P19,D10,0,0,0
725,-6.0,-4.0,62.0,1645449989.25,P19,D10,0,0,0
726,-5.0,-4.0,62.0,1645449989.28125,P19,D10,0,0,0
727,-4.0,-4.0,62.0,1645449989.3125,P19,D10,0,0,0
728,-6.0,-4.0,62.0,1645449989.34375,P19,D10,0,0,0
729,-5.0,-4.0,62.0,1645449989.375,P19,D10,0,0,0
730,-4.0,-6.0,62.0,1645449989.40625,P19,D10,0,0,0
731,-4.0,-4.0,62.0,1645449989.4375,P19,D10,0,0,0
732,-5.0,-4.0,62.0,1645449989.46875,P19,D10,0,0,0
733,-6.0,-4.0,62.0,1645449989.5,P19,D10,0,0,0
734,-4.0,-4.0,62.0,1645449989.53125,P19,D10,0,0,0
735,-4.0,-4.0,62.0,1645449989.5625,P19,D10,0,0,0
736,-6.0,-4.0,62.0,1645449989.59375,P19,D10,0,0,0
737,-6.0,-4.0,62.0,1645449989.625,P19,D10,0,0,0
738,-6.0,-4.0,62.0,1645449989.65625,P19,D10,0,0,0
739,-5.0,-4.0,62.0,1645449989.6875,P19,D10,0,0,0
740,-5.0,-5.0,62.0,1645449989.71875,P19,D10,0,0,0
741,-7.0,-4.0,62.0,1645449989.75,P19,D10,0,0,0
742,-7.0,-3.0,62.0,1645449989.78125,P19,D10,0,0,0
743,-5.0,-4.0,62.0,1645449989.8125,P19,D10,0,0,0
744,-5.0,-4.0,62.0,1645449989.84375,P19,D10,0,0,0
745,-5.0,-4.0,62.0,1645449989.875,P19,D10,0,0,0
746,-4.0,-4.0,62.0,1645449989.90625,P19,D10,0,0,0
747,-5.0,-4.0,62.0,1645449989.9375,P19,D10,0,0,0
748,-6.0,-4.0,62.0,1645449989.96875,P19,D10,0,0,0
749,-5.0,-4.0,62.0,1645449990.0,P19,D10,0,0,0
750,-5.0,-4.0,62.0,1645449990.03125,P19,D10,0,0,0
751,-6.0,-4.0,62.0,1645449990.0625,P19,D10,0,0,0
752,-6.0,-4.0,62.0,1645449990.09375,P19,D10,0,0,0
753,-5.0,-4.0,62.0,1645449990.125,P19,D10,0,0,0
754,-6.0,-4.0,62.0,1645449990.15625,P19,D10,0,0,0
755,-6.0,-4.0,62.0,1645449990.1875,P19,D10,0,0,0
756,-5.0,-4.0,62.0,1645449990.21875,P19,D10,0,0,0
757,-5.0,-4.0,62.0,1645449990.25,P19,D10,0,0,0
758,-6.0,-5.0,62.0,1645449990.28125,P19,D10,0,0,0
759,-6.0,-4.0,62.0,1645449990.3125,P19,D10,0,0,0
760,-6.0,-4.0,62.0,1645449990.34375,P19,D10,0,0,0
761,-6.0,-5.0,62.0,1645449990.375,P19,D10,0,0,0
762,-5.0,-4.0,62.0,1645449990.40625,P19,D10,0,0,0
763,-4.0,-6.0,62.0,1645449990.4375,P19,D10,0,0,0
764,-7.0,-6.0,62.0,1645449990.46875,P19,D10,0,0,0
765,-3.0,-3.0,62.0,1645449990.5,P19,D10,0,0,0
766,-7.0,-3.0,62.0,1645449990.53125,P19,D10,0,0,0
767,-6.0,-5.0,62.0,1645449990.5625,P19,D10,0,0,0
768,-5.0,-5.0,62.0,1645449990.59375,P19,D10,0,0,0
769,-4.0,-2.0,62.0,1645449990.625,P19,D10,0,0,0
770,-5.0,-5.0,62.0,1645449990.65625,P19,D10,0,0,0
771,-4.0,-4.0,62.0,1645449990.6875,P19,D10,0,0,0
772,-5.0,-4.0,62.0,1645449990.71875,P19,D10,0,0,0
773,-5.0,-4.0,62.0,1645449990.75,P19,D10,0,0,0
774,-6.0,-5.0,62.0,1645449990.78125,P19,D10,0,0,0
775,-6.0,-4.0,62.0,1645449990.8125,P19,D10,0,0,0
776,-5.0,-4.0,62.0,1645449990.84375,P19,D10,0,0,0
777,-7.0,-5.0,62.0,1645449990.875,P19,D10,0,0,0
778,-8.0,-4.0,62.0,1645449990.90625,P19,D10,0,0,0
779,-4.0,-3.0,63.0,1645449990.9375,P19,D10,0,0,0
780,-6.0,-4.0,62.0,1645449990.96875,P19,D10,0,0,0
781,-7.0,-5.0,62.0,1645449991.0,P19,D10,0,0,0
782,-3.0,-4.0,63.0,1645449991.03125,P19,D10,0,0,0
783,-3.0,-3.0,63.0,1645449991.0625,P19,D10,0,0,0
784,-7.0,-3.0,62.0,1645449991.09375,P19,D10,0,0,0
785,-4.0,-4.0,62.0,1645449991.125,P19,D10,0,0,0
786,-4.0,-4.0,62.0,1645449991.15625,P19,D10,0,0,0
787,-6.0,-3.0,62.0,1645449991.1875,P19,D10,0,0,0
788,-6.0,-4.0,62.0,1645449991.21875,P19,D10,0,0,0
789,-4.0,-4.0,62.0,1645449991.25,P19,D10,0,0,0
790,-4.0,-4.0,62.0,1645449991.28125,P19,D10,0,0,0
791,-5.0,-3.0,62.0,1645449991.3125,P19,D10,0,0,0
792,-5.0,-4.0,62.0,1645449991.34375,P19,D10,0,0,0
793,-4.0,-4.0,62.0,1645449991.375,P19,D10,0,0,0
794,-5.0,-5.0,62.0,1645449991.40625,P19,D10,0,0,0
795,-5.0,-4.0,62.0,1645449991.4375,P19,D10,0,0,0
796,-4.0,-4.0,62.0,1645449991.46875,P19,D10,0,0,0
797,-5.0,-3.0,62.0,1645449991.5,P19,D10,0,0,0
798,-6.0,-4.0,62.0,1645449991.53125,P19,D10,0,0,0
799,-6.0,-4.0,62.0,1645449991.5625,P19,D10,0,0,0
800,-4.0,-3.0,62.0,1645449991.59375,P19,D10,0,0,0
801,-3.0,-4.0,62.0,1645449991.625,P19,D10,0,0,0
802,-5.0,-5.0,62.0,1645449991.65625,P19,D10,0,0,0
803,-7.0,-5.0,62.0,1645449991.6875,P19,D10,0,0,0
804,-6.0,-4.0,62.0,1645449991.71875,P19,D10,0,0,0
805,-4.0,-4.0,62.0,1645449991.75,P19,D10,0,0,0
806,-6.0,-4.0,62.0,1645449991.78125,P19,D10,0,0,0
807,-7.0,-4.0,62.0,1645449991.8125,P19,D10,0,0,0
808,-6.0,-4.0,62.0,1645449991.84375,P19,D10,0,0,0
809,-6.0,-5.0,62.0,1645449991.875,P19,D10,0,0,0
810,-8.0,-5.0,62.0,1645449991.90625,P19,D10,0,0,0
811,-5.0,-4.0,62.0,1645449991.9375,P19,D10,0,0,0
812,-3.0,-3.0,62.0,1645449991.96875,P19,D10,0,0,0
813,-6.0,-3.0,62.0,1645449992.0,P19,D10,0,0,0
814,-7.0,-4.0,62.0,1645449992.03125,P19,D10,0,0,0
815,-5.0,-4.0,62.0,1645449992.0625,P19,D10,0,0,0
816,-5.0,-4.0,62.0,1645449992.09375,P19,D10,0,0,0
817,-4.0,-4.0,62.0,1645449992.125,P19,D10,0,0,0
818,-4.0,-4.0,62.0,1645449992.15625,P19,D10,0,0,0
819,-6.0,-4.0,62.0,1645449992.1875,P19,D10,0,0,0
820,-4.0,-4.0,62.0,1645449992.21875,P19,D10,0,0,0
821,-5.0,-4.0,62.0,1645449992.25,P19,D10,0,0,0
822,-7.0,-4.0,62.0,1645449992.28125,P19,D10,0,0,0
823,-6.0,-4.0,62.0,1645449992.3125,P19,D10,0,0,0
824,-5.0,-4.0,62.0,1645449992.34375,P19,D10,0,0,0
825,-6.0,-4.0,62.0,1645449992.375,P19,D10,0,0,0
826,-7.0,-4.0,62.0,1645449992.40625,P19,D10,0,0,0
827,-6.0,-4.0,62.0,1645449992.4375,P19,D10,0,0,0
828,-5.0,-4.0,62.0,1645449992.46875,P19,D10,0,0,0
829,-6.0,-4.0,62.0,1645449992.5,P19,D10,0,0,0
830,-5.0,-4.0,62.0,1645449992.53125,P19,D10,0,0,0
831,-6.0,-4.0,62.0,1645449992.5625,P19,D10,0,0,0
832,-5.0,-4.0,62.0,1645449992.59375,P19,D10,0,0,0
833,-5.0,-4.0,62.0,1645449992.625,P19,D10,0,0,0
834,-5.0,-4.0,62.0,1645449992.65625,P19,D10,0,0,0
835,-6.0,-4.0,62.0,1645449992.6875,P19,D10,0,0,0
836,-8.0,-4.0,62.0,1645449992.71875,P19,D10,0,0,0
837,-6.0,-4.0,62.0,1645449992.75,P19,D10,0,0,0
838,-6.0,-4.0,62.0,1645449992.78125,P19,D10,0,0,0
839,-8.0,-4.0,62.0,1645449992.8125,P19,D10,0,0,0
840,-7.0,-4.0,62.0,1645449992.84375,P19,D10,0,0,0
841,-7.0,-4.0,62.0,1645449992.875,P19,D10,0,0,0
842,-9.0,-4.0,61.0,1645449992.90625,P19,D10,0,0,0
843,-8.0,-4.0,62.0,1645449992.9375,P19,D10,0,0,0
844,-5.0,-5.0,62.0,1645449992.96875,P19,D10,0,0,0
845,-6.0,-4.0,62.0,1645449993.0,P19,D10,0,0,0
846,-7.0,-5.0,62.0,1645449993.03125,P19,D10,0,0,0
847,-7.0,-4.0,62.0,1645449993.0625,P19,D10,0,0,0
848,-4.0,-4.0,62.0,1645449993.09375,P19,D10,0,0,0
849,-4.0,-5.0,62.0,1645449993.125,P19,D10,0,0,0
850,-7.0,-4.0,62.0,1645449993.15625,P19,D10,0,0,0
851,-6.0,-4.0,62.0,1645449993.1875,P19,D10,0,0,0
852,-6.0,-5.0,62.0,1645449993.21875,P19,D10,0,0,0
853,-8.0,-5.0,62.0,1645449993.25,P19,D10,0,0,0
854,-7.0,-4.0,62.0,1645449993.28125,P19,D10,0,0,0
855,-9.0,-4.0,62.0,1645449993.3125,P19,D10,0,0,0
856,-10.0,-4.0,61.0,1645449993.34375,P19,D10,0,0,0
857,-6.0,-5.0,62.0,1645449993.375,P19,D10,0,0,0
858,-5.0,-5.0,62.0,1645449993.40625,P19,D10,0,0,0
859,-8.0,-5.0,62.0,1645449993.4375,P19,D10,0,0,0
860,-7.0,-5.0,62.0,1645449993.46875,P19,D10,0,0,0
861,-7.0,-5.0,62.0,1645449993.5,P19,D10,0,0,0
862,-7.0,-5.0,62.0,1645449993.53125,P19,D10,0,0,0
863,-7.0,-5.0,62.0,1645449993.5625,P19,D10,0,0,0
864,-7.0,-4.0,62.0,1645449993.59375,P19,D10,0,0,0
865,-8.0,-4.0,62.0,1645449993.625,P19,D10,0,0,0
866,-7.0,-5.0,62.0,1645449993.65625,P19,D10,0,0,0
867,-7.0,-4.0,62.0,1645449993.6875,P19,D10,0,0,0
868,-7.0,-4.0,62.0,1645449993.71875,P19,D10,0,0,0
869,-7.0,-4.0,62.0,1645449993.75,P19,D10,0,0,0
870,-8.0,-5.0,62.0,1645449993.78125,P19,D10,0,0,0
871,-7.0,-4.0,62.0,1645449993.8125,P19,D10,0,0,0
872,-7.0,-5.0,62.0,1645449993.84375,P19,D10,0,0,0
873,-8.0,-4.0,62.0,1645449993.875,P19,D10,0,0,0
874,-6.0,-5.0,62.0,1645449993.90625,P19,D10,0,0,0
875,-7.0,-4.0,62.0,1645449993.9375,P19,D10,0,0,0
876,-8.0,-4.0,62.0,1645449993.96875,P19,D10,0,0,0
877,-7.0,-5.0,62.0,1645449994.0,P19,D10,0,0,0
878,-7.0,-4.0,62.0,1645449994.03125,P19,D10,0,0,0
879,-6.0,-5.0,62.0,1645449994.0625,P19,D10,0,0,0
880,-6.0,-5.0,62.0,1645449994.09375,P19,D10,0,0,0
881,-6.0,-5.0,62.0,1645449994.125,P19,D10,0,0,0
882,-7.0,-5.0,62.0,1645449994.15625,P19,D10,0,0,0
883,-8.0,-5.0,62.0,1645449994.1875,P19,D10,0,0,0
884,-7.0,-4.0,62.0,1645449994.21875,P19,D10,0,0,0
885,-6.0,-4.0,62.0,1645449994.25,P19,D10,0,0,0
886,-6.0,-5.0,62.0,1645449994.28125,P19,D10,0,0,0
887,-8.0,-5.0,62.0,1645449994.3125,P19,D10,0,0,0
888,-5.0,-4.0,62.0,1645449994.34375,P19,D10,0,0,0
889,-7.0,-5.0,62.0,1645449994.375,P19,D10,0,0,0
890,-9.0,-4.0,61.0,1645449994.40625,P19,D10,0,0,0
891,-8.0,-4.0,62.0,1645449994.4375,P19,D10,0,0,0
892,-9.0,-4.0,62.0,1645449994.46875,P19,D10,0,0,0
893,-9.0,-4.0,62.0,1645449994.5,P19,D10,0,0,0
894,-6.0,-5.0,62.0,1645449994.53125,P19,D10,0,0,0
895,-7.0,-5.0,62.0,1645449994.5625,P19,D10,0,0,0
896,-8.0,-4.0,62.0,1645449994.59375,P19,D10,0,0,0
897,-8.0,-4.0,62.0,1645449994.625,P19,D10,0,0,0
898,-7.0,-4.0,62.0,1645449994.65625,P19,D10,0,0,0
899,-7.0,-4.0,62.0,1645449994.6875,P19,D10,0,0,0
900,-7.0,-4.0,62.0,1645449994.71875,P19,D10,0,0,0
901,-8.0,-4.0,61.0,1645449994.75,P19,D10,0,0,0
902,-8.0,-4.0,62.0,1645449994.78125,P19,D10,0,0,0
903,-7.0,-4.0,62.0,1645449994.8125,P19,D10,0,0,0
904,-7.0,-5.0,62.0,1645449994.84375,P19,D10,0,0,0
905,-7.0,-4.0,62.0,1645449994.875,P19,D10,0,0,0
906,-7.0,-5.0,62.0,1645449994.90625,P19,D10,0,0,0
907,-6.0,-5.0,62.0,1645449994.9375,P19,D10,0,0,0
908,-7.0,-5.0,62.0,1645449994.96875,P19,D10,0,0,0
909,-8.0,-3.0,62.0,1645449995.0,P19,D10,0,0,0
910,-8.0,-3.0,62.0,1645449995.03125,P19,D10,0,0,0
911,-9.0,-4.0,62.0,1645449995.0625,P19,D10,0,0,0
912,-7.0,-5.0,62.0,1645449995.09375,P19,D10,0,0,0
913,-5.0,-4.0,62.0,1645449995.125,P19,D10,0,0,0
914,-6.0,-3.0,62.0,1645449995.15625,P19,D10,0,0,0
915,-8.0,-4.0,62.0,1645449995.1875,P19,D10,0,0,0
916,-7.0,-4.0,62.0,1645449995.21875,P19,D10,0,0,0
917,-8.0,-4.0,62.0,1645449995.25,P19,D10,0,0,0
918,-7.0,-4.0,62.0,1645449995.28125,P19,D10,0,0,0
919,-7.0,-4.0,62.0,1645449995.3125,P19,D10,0,0,0
920,-7.0,-4.0,62.0,1645449995.34375,P19,D10,0,0,0
921,-8.0,-5.0,62.0,1645449995.375,P19,D10,0,0,0
922,-7.0,-4.0,62.0,1645449995.40625,P19,D10,0,0,0
923,-5.0,-4.0,62.0,1645449995.4375,P19,D10,0,0,0
924,-6.0,-4.0,62.0,1645449995.46875,P19,D10,0,0,0
925,-8.0,-4.0,62.0,1645449995.5,P19,D10,0,0,0
926,-8.0,-4.0,62.0,1645449995.53125,P19,D10,0,0,0
927,-7.0,-4.0,62.0,1645449995.5625,P19,D10,0,0,0
928,-7.0,-4.0,62.0,1645449995.59375,P19,D10,0,0,0
929,-9.0,-4.0,62.0,1645449995.625,P19,D10,0,0,0
930,-8.0,-4.0,62.0,1645449995.65625,P19,D10,0,0,0
931,-7.0,-4.0,62.0,1645449995.6875,P19,D10,0,0,0
932,-8.0,-5.0,62.0,1645449995.71875,P19,D10,0,0,0
933,-7.0,-4.0,62.0,1645449995.75,P19,D10,0,0,0
934,-7.0,-4.0,62.0,1645449995.78125,P19,D10,0,0,0
935,-8.0,-4.0,62.0,1645449995.8125,P19,D10,0,0,0
936,-8.0,-4.0,62.0,1645449995.84375,P19,D10,0,0,0
937,-8.0,-4.0,62.0,1645449995.875,P19,D10,0,0,0
938,-8.0,-4.0,62.0,1645449995.90625,P19,D10,0,0,0
939,-8.0,-4.0,62.0,1645449995.9375,P19,D10,0,0,0
940,-7.0,-4.0,62.0,1645449995.96875,P19,D10,0,0,0
941,-7.0,-4.0,62.0,1645449996.0,P19,D10,0,0,0
942,-7.0,-5.0,62.0,1645449996.03125,P19,D10,0,0,0
943,-7.0,-4.0,62.0,1645449996.0625,P19,D10,0,0,0
944,-6.0,-4.0,62.0,1645449996.09375,P19,D10,0,0,0
945,-9.0,-4.0,62.0,1645449996.125,P19,D10,0,0,0
946,-9.0,-4.0,62.0,1645449996.15625,P19,D10,0,0,0
947,-8.0,-4.0,62.0,1645449996.1875,P19,D10,0,0,0
948,-7.0,-4.0,62.0,1645449996.21875,P19,D10,0,0,0
949,-6.0,-4.0,62.0,1645449996.25,P19,D10,0,0,0
950,-6.0,-5.0,62.0,1645449996.28125,P19,D10,0,0,0
951,-7.0,-5.0,62.0,1645449996.3125,P19,D10,0,0,0
952,-7.0,-5.0,62.0,1645449996.34375,P19,D10,0,0,0
953,-7.0,-5.0,62.0,1645449996.375,P19,D10,0,0,0
954,-8.0,-4.0,62.0,1645449996.40625,P19,D10,0,0,0
955,-8.0,-4.0,62.0,1645449996.4375,P19,D10,0,0,0
956,-8.0,-4.0,62.0,1645449996.46875,P19,D10,0,0,0
957,-9.0,-5.0,62.0,1645449996.5,P19,D10,0,0,0
958,-7.0,-5.0,62.0,1645449996.53125,P19,D10,0,0,0
959,-7.0,-5.0,62.0,1645449996.5625,P19,D10,0,0,0
960,-8.0,-5.0,62.0,1645449996.59375,P19,D10,0,0,0
961,-7.0,-5.0,62.0,1645449996.625,P19,D10,0,0,0
962,-7.0,-5.0,62.0,1645449996.65625,P19,D10,0,0,0
963,-7.0,-5.0,62.0,1645449996.6875,P19,D10,0,0,0
964,-7.0,-5.0,62.0,1645449996.71875,P19,D10,0,0,0
965,-7.0,-5.0,62.0,1645449996.75,P19,D10,0,0,0
966,-7.0,-5.0,62.0,1645449996.78125,P19,D10,0,0,0
967,-7.0,-5.0,62.0,1645449996.8125,P19,D10,0,0,0
968,-6.0,-5.0,62.0,1645449996.84375,P19,D10,0,0,0
969,-7.0,-5.0,62.0,1645449996.875,P19,D10,0,0,0
970,-7.0,-5.0,62.0,1645449996.90625,P19,D10,0,0,0
971,-8.0,-4.0,62.0,1645449996.9375,P19,D10,0,0,0
972,-8.0,-5.0,62.0,1645449996.96875,P19,D10,0,0,0
973,-7.0,-5.0,62.0,1645449997.0,P19,D10,0,0,0
974,-8.0,-5.0,62.0,1645449997.03125,P19,D10,0,0,0
975,-7.0,-5.0,62.0,1645449997.0625,P19,D10,0,0,0
976,-6.0,-5.0,62.0,1645449997.09375,P19,D10,0,0,0
977,-7.0,-5.0,62.0,1645449997.125,P19,D10,0,0,0
978,-8.0,-5.0,62.0,1645449997.15625,P19,D10,0,0,0
979,-7.0,-5.0,62.0,1645449997.1875,P19,D10,0,0,0
980,-7.0,-5.0,62.0,1645449997.21875,P19,D10,0,0,0
981,-7.0,-5.0,62.0,1645449997.25,P19,D10,0,0,0
982,-6.0,-5.0,62.0,1645449997.28125,P19,D10,0,0,0
983,-7.0,-5.0,62.0,1645449997.3125,P19,D10,0,0,0
984,-7.0,-5.0,62.0,1645449997.34375,P19,D10,0,0,0
985,-7.0,-5.0,62.0,1645449997.375,P19,D10,0,0,0
986,-7.0,-5.0,62.0,1645449997.40625,P19,D10,0,0,0
987,-7.0,-5.0,62.0,1645449997.4375,P19,D10,0,0,0
988,-8.0,-5.0,62.0,1645449997.46875,P19,D10,0,0,0
989,-7.0,-5.0,62.0,1645449997.5,P19,D10,0,0,0
990,-7.0,-5.0,62.0,1645449997.53125,P19,D10,0,0,0
991,-7.0,-5.0,62.0,1645449997.5625,P19,D10,0,0,0
992,-7.0,-5.0,62.0,1645449997.59375,P19,D10,0,0,0
993,-7.0,-5.0,62.0,1645449997.625,P19,D10,0,0,0
994,-8.0,-5.0,62.0,1645449997.65625,P19,D10,0,0,0
995,-7.0,-5.0,62.0,1645449997.6875,P19,D10,0,0,0
996,-7.0,-5.0,62.0,1645449997.71875,P19,D10,0,0,0
997,-7.0,-5.0,62.0,1645449997.75,P19,D10,0,0,0
998,-7.0,-5.0,62.0,1645449997.78125,P19,D10,0,0,0
999,-8.0,-5.0,62.0,1645449997.8125,P19,D10,0,0,0
1000,-6.0,-5.0,62.0,1645449997.84375,P19,D10,0,0,0
1001,-7.0,-5.0,62.0,1645449997.875,P19,D10,0,0,0
1002,-7.0,-5.0,62.0,1645449997.90625,P19,D10,0,0,0
1003,-6.0,-5.0,62.0,1645449997.9375,P19,D10,0,0,0
1004,-8.0,-5.0,62.0,1645449997.96875,P19,D10,0,0,0
1005,-8.0,-5.0,61.0,1645449998.0,P19,D10,0,0,0
1006,-6.0,-5.0,62.0,1645449998.03125,P19,D10,0,0,0
1007,-7.0,-5.0,62.0,1645449998.0625,P19,D10,0,0,0
1008,-8.0,-5.0,62.0,1645449998.09375,P19,D10,0,0,0
1009,-8.0,-5.0,62.0,1645449998.125,P19,D10,0,0,0
1010,-7.0,-5.0,62.0,1645449998.15625,P19,D10,0,0,0
1011,-6.0,-5.0,62.0,1645449998.1875,P19,D10,0,0,0
1012,-7.0,-6.0,62.0,1645449998.21875,P19,D10,0,0,0
1013,-7.0,-5.0,62.0,1645449998.25,P19,D10,0,0,0
1014,-6.0,-5.0,62.0,1645449998.28125,P19,D10,0,0,0
1015,-7.0,-5.0,62.0,1645449998.3125,P19,D10,0,0,0
1016,-8.0,-5.0,62.0,1645449998.34375,P19,D10,0,0,0
1017,-7.0,-5.0,62.0,1645449998.375,P19,D10,0,0,0
1018,-7.0,-5.0,62.0,1645449998.40625,P19,D10,0,0,0
1019,-6.0,-5.0,62.0,1645449998.4375,P19,D10,0,0,0
1020,-7.0,-5.0,62.0,1645449998.46875,P19,D10,0,0,0
1021,-7.0,-5.0,62.0,1645449998.5,P19,D10,0,0,0
1022,-7.0,-5.0,62.0,1645449998.53125,P19,D10,0,0,0
1023,-7.0,-5.0,62.0,1645449998.5625,P19,D10,0,0,0
1024,-7.0,-5.0,62.0,1645449998.59375,P19,D10,0,0,0
1025,-6.0,-5.0,62.0,1645449998.625,P19,D10,0,0,0
1026,-7.0,-5.0,62.0,1645449998.65625,P19,D10,0,0,0
1027,-7.0,-5.0,62.0,1645449998.6875,P19,D10,0,0,0
1028,-7.0,-5.0,62.0,1645449998.71875,P19,D10,0,0,0
1029,-7.0,-5.0,62.0,1645449998.75,P19,D10,0,0,0
1030,-7.0,-5.0,62.0,1645449998.78125,P19,D10,0,0,0
1031,-7.0,-5.0,62.0,1645449998.8125,P19,D10,0,0,0
1032,-8.0,-5.0,62.0,1645449998.84375,P19,D10,0,0,0
1033,-7.0,-5.0,62.0,1645449998.875,P19,D10,0,0,0
1034,-7.0,-5.0,62.0,1645449998.90625,P19,D10,0,0,0
1035,-7.0,-5.0,62.0,1645449998.9375,P19,D10,0,0,0
1036,-7.0,-5.0,62.0,1645449998.96875,P19,D10,0,0,0
1037,-6.0,-5.0,62.0,1645449999.0,P19,D10,0,0,0
1038,-6.0,-5.0,62.0,1645449999.03125,P19,D10,0,0,0
1039,-7.0,-5.0,62.0,1645449999.0625,P19,D10,0,0,0
1040,-7.0,-5.0,62.0,1645449999.09375,P19,D10,0,0,0
1041,-7.0,-5.0,62.0,1645449999.125,P19,D10,0,0,0
1042,-7.0,-5.0,62.0,1645449999.15625,P19,D10,0,0,0
1043,-7.0,-5.0,62.0,1645449999.1875,P19,D10,0,0,0
1044,-7.0,-5.0,62.0,1645449999.21875,P19,D10,0,0,0
1045,-7.0,-5.0,62.0,1645449999.25,P19,D10,0,0,0
1046,-7.0,-5.0,62.0,1645449999.28125,P19,D10,0,0,0
1047,-7.0,-5.0,62.0,1645449999.3125,P19,D10,0,0,0
1048,-7.0,-5.0,62.0,1645449999.34375,P19,D10,0,0,0
1049,-7.0,-5.0,62.0,1645449999.375,P19,D10,0,0,0
1050,-7.0,-5.0,62.0,1645449999.40625,P19,D10,0,0,0
1051,-7.0,-5.0,62.0,1645449999.4375,P19,D10,0,0,0
1052,-7.0,-5.0,62.0,1645449999.46875,P19,D10,0,0,0
1053,-7.0,-5.0,62.0,1645449999.5,P19,D10,0,0,0
1054,-6.0,-5.0,62.0,1645449999.53125,P19,D10,0,0,0
1055,-7.0,-5.0,62.0,1645449999.5625,P19,D10,0,0,0
1056,-7.0,-5.0,62.0,1645449999.59375,P19,D10,0,0,0
1057,-7.0,-5.0,62.0,1645449999.625,P19,D10,0,0,0
1058,-7.0,-5.0,62.0,1645449999.65625,P19,D10,0,0,0
1059,-7.0,-5.0,61.0,1645449999.6875,P19,D10,0,0,0
1060,-7.0,-5.0,62.0,1645449999.71875,P19,D10,0,0,0
1061,-7.0,-5.0,62.0,1645449999.75,P19,D10,0,0,0
1062,-6.0,-5.0,62.0,1645449999.78125,P19,D10,0,0,0
1063,-7.0,-5.0,62.0,1645449999.8125,P19,D10,0,0,0
1064,-8.0,-5.0,62.0,1645449999.84375,P19,D10,0,0,0
1065,-6.0,-5.0,62.0,1645449999.875,P19,D10,0,0,0
1066,-6.0,-5.0,62.0,1645449999.90625,P19,D10,0,0,0
1067,-6.0,-5.0,62.0,1645449999.9375,P19,D10,0,0,0
1068,-7.0,-5.0,62.0,1645449999.96875,P19,D10,0,0,0
1069,-6.0,-5.0,62.0,1645450000.0,P19,D10,0,0,0
1070,-7.0,-5.0,62.0,1645450000.03125,P19,D10,0,0,0
1071,-7.0,-5.0,62.0,1645450000.0625,P19,D10,0,0,0
1072,-7.0,-5.0,62.0,1645450000.09375,P19,D10,0,0,0
1073,-7.0,-5.0,62.0,1645450000.125,P19,D10,0,0,0
1074,-7.0,-5.0,62.0,1645450000.15625,P19,D10,0,0,0
1075,-7.0,-5.0,62.0,1645450000.1875,P19,D10,0,0,0
1076,-8.0,-5.0,62.0,1645450000.21875,P19,D10,0,0,0
1077,-7.0,-5.0,62.0,1645450000.25,P19,D10,0,0,0
1078,-7.0,-5.0,62.0,1645450000.28125,P19,D10,0,0,0
1079,-7.0,-5.0,62.0,1645450000.3125,P19,D10,0,0,0
1080,-6.0,-5.0,62.0,1645450000.34375,P19,D10,0,0,0
1081,-7.0,-5.0,62.0,1645450000.375,P19,D10,0,0,0
1082,-7.0,-5.0,62.0,1645450000.40625,P19,D10,0,0,0
1083,-7.0,-5.0,62.0,1645450000.4375,P19,D10,0,0,0
1084,-6.0,-5.0,62.0,1645450000.46875,P19,D10,0,0,0
1085,-7.0,-5.0,62.0,1645450000.5,P19,D10,0,0,0
1086,-7.0,-5.0,62.0,1645450000.53125,P19,D10,0,0,0
1087,-7.0,-5.0,62.0,1645450000.5625,P19,D10,0,0,0
1088,-7.0,-5.0,62.0,1645450000.59375,P19,D10,0,0,0
1089,-7.0,-5.0,62.0,1645450000.625,P19,D10,0,0,0
1090,-6.0,-5.0,62.0,1645450000.65625,P19,D10,0,0,0
1091,-7.0,-5.0,62.0,1645450000.6875,P19,D10,0,0,0
1092,-7.0,-5.0,62.0,1645450000.71875,P19,D10,0,0,0
1093,-7.0,-5.0,62.0,1645450000.75,P19,D10,0,0,0
1094,-6.0,-5.0,62.0,1645450000.78125,P19,D10,0,0,0
1095,-6.0,-5.0,62.0,1645450000.8125,P19,D10,0,0,0
1096,-7.0,-5.0,62.0,1645450000.84375,P19,D10,0,0,0
1097,-7.0,-5.0,62.0,1645450000.875,P19,D10,0,0,0
1098,-6.0,-5.0,62.0,1645450000.90625,P19,D10,0,0,0
1099,-7.0,-5.0,62.0,1645450000.9375,P19,D10,0,0,0
1100,-7.0,-5.0,62.0,1645450000.96875,P19,D10,0,0,0
1101,-7.0,-5.0,62.0,1645450001.0,P19,D10,0,0,0
1102,-7.0,-5.0,62.0,1645450001.03125,P19,D10,0,0,0
1103,-6.0,-5.0,62.0,1645450001.0625,P19,D10,0,0,0
1104,-7.0,-5.0,62.0,1645450001.09375,P19,D10,0,0,0
1105,-7.0,-5.0,62.0,1645450001.125,P19,D10,0,0,0
1106,-6.0,-5.0,62.0,1645450001.15625,P19,D10,0,0,0
1107,-7.0,-5.0,62.0,1645450001.1875,P19,D10,0,0,0
1108,-7.0,-5.0,62.0,1645450001.21875,P19,D10,0,0,0
1109,-6.0,-5.0,62.0,1645450001.25,P19,D10,0,0,0
1110,-6.0,-5.0,62.0,1645450001.28125,P19,D10,0,0,0
1111,-7.0,-5.0,62.0,1645450001.3125,P19,D10,0,0,0
1112,-7.0,-5.0,62.0,1645450001.34375,P19,D10,0,0,0
1113,-6.0,-5.0,62.0,1645450001.375,P19,D10,0,0,0
1114,-7.0,-5.0,62.0,1645450001.40625,P19,D10,0,0,0
1115,-7.0,-5.0,62.0,1645450001.4375,P19,D10,0,0,0
1116,-7.0,-5.0,62.0,1645450001.46875,P19,D10,0,0,0
1117,-7.0,-5.0,62.0,1645450001.5,P19,D10,0,0,0
1118,-7.0,-5.0,62.0,1645450001.53125,P19,D10,0,0,0
1119,-6.0,-5.0,62.0,1645450001.5625,P19,D10,0,0,0
1120,-6.0,-5.0,62.0,1645450001.59375,P19,D10,0,0,0
1121,-7.0,-5.0,62.0,1645450001.625,P19,D10,0,0,0
1122,-7.0,-5.0,62.0,1645450001.65625,P19,D10,0,0,0
1123,-6.0,-5.0,62.0,1645450001.6875,P19,D10,0,0,0
1124,-7.0,-5.0,62.0,1645450001.71875,P19,D10,0,0,0
1125,-7.0,-5.0,62.0,1645450001.75,P19,D10,0,0,0
1126,-6.0,-5.0,62.0,1645450001.78125,P19,D10,0,0,0
1127,-6.0,-5.0,62.0,1645450001.8125,P19,D10,0,0,0
1128,-7.0,-5.0,62.0,1645450001.84375,P19,D10,0,0,0
1129,-7.0,-5.0,62.0,1645450001.875,P19,D10,0,0,0
1130,-7.0,-5.0,62.0,1645450001.90625,P19,D10,0,0,0
1131,-7.0,-5.0,62.0,1645450001.9375,P19,D10,0,0,0
1132,-7.0,-5.0,62.0,1645450001.96875,P19,D10,0,0,0
1133,-7.0,-5.0,62.0,1645450002.0,P19,D10,0,0,0
1134,-7.0,-5.0,62.0,1645450002.03125,P19,D10,0,0,0
1135,-7.0,-5.0,62.0,1645450002.0625,P19,D10,0,0,0
1136,-7.0,-5.0,62.0,1645450002.09375,P19,D10,0,0,0
1137,-6.0,-5.0,62.0,1645450002.125,P19,D10,0,0,0
1138,-7.0,-5.0,62.0,1645450002.15625,P19,D10,0,0,0
1139,-7.0,-5.0,62.0,1645450002.1875,P19,D10,0,0,0
1140,-7.0,-5.0,62.0,1645450002.21875,P19,D10,0,0,0
1141,-6.0,-5.0,62.0,1645450002.25,P19,D10,0,0,0
1142,-6.0,-5.0,62.0,1645450002.28125,P19,D10,0,0,0
1143,-8.0,-5.0,62.0,1645450002.3125,P19,D10,0,0,0
1144,-6.0,-5.0,62.0,1645450002.34375,P19,D10,0,0,0
1145,-6.0,-5.0,62.0,1645450002.375,P19,D10,0,0,0
1146,-8.0,-5.0,62.0,1645450002.40625,P19,D10,0,0,0
1147,-6.0,-5.0,62.0,1645450002.4375,P19,D10,0,0,0
1148,-6.0,-5.0,62.0,1645450002.46875,P19,D10,0,0,0
1149,-7.0,-5.0,62.0,1645450002.5,P19,D10,0,0,0
1150,-7.0,-5.0,62.0,1645450002.53125,P19,D10,0,0,0
1151,-6.0,-5.0,62.0,1645450002.5625,P19,D10,0,0,0
1152,-6.0,-5.0,62.0,1645450002.59375,P19,D10,0,0,0
1153,-7.0,-5.0,62.0,1645450002.625,P19,D10,0,0,0
1154,-6.0,-5.0,62.0,1645450002.65625,P19,D10,0,0,0
1155,-7.0,-5.0,62.0,1645450002.6875,P19,D10,0,0,0
1156,-7.0,-5.0,62.0,1645450002.71875,P19,D10,0,0,0
1157,-7.0,-5.0,62.0,1645450002.75,P19,D10,0,0,0
1158,-6.0,-5.0,62.0,1645450002.78125,P19,D10,0,0,0
1159,-7.0,-5.0,62.0,1645450002.8125,P19,D10,0,0,0
1160,-6.0,-5.0,62.0,1645450002.84375,P19,D10,0,0,0
1161,-6.0,-5.0,62.0,1645450002.875,P19,D10,0,0,0
1162,-7.0,-5.0,62.0,1645450002.90625,P19,D10,0,0,0
1163,-6.0,-5.0,62.0,1645450002.9375,P19,D10,0,0,0
1164,-6.0,-5.0,62.0,1645450002.96875,P19,D10,0,0,0
1165,-7.0,-5.0,62.0,1645450003.0,P19,D10,0,0,0
1166,-7.0,-5.0,62.0,1645450003.03125,P19,D10,0,0,0
1167,-7.0,-5.0,62.0,1645450003.0625,P19,D10,0,0,0
1168,-6.0,-5.0,62.0,1645450003.09375,P19,D10,0,0,0
1169,-7.0,-5.0,62.0,1645450003.125,P19,D10,0,0,0
1170,-7.0,-5.0,62.0,1645450003.15625,P19,D10,0,0,0
1171,-6.0,-5.0,62.0,1645450003.1875,P19,D10,0,0,0
1172,-7.0,-5.0,62.0,1645450003.21875,P19,D10,0,0,0
1173,-6.0,-5.0,62.0,1645450003.25,P19,D10,0,0,0
1174,-6.0,-5.0,62.0,1645450003.28125,P19,D10,0,0,0
1175,-7.0,-5.0,62.0,1645450003.3125,P19,D10,0,0,0
1176,-7.0,-5.0,62.0,1645450003.34375,P19,D10,0,0,0
1177,-5.0,-5.0,62.0,1645450003.375,P19,D10,0,0,0
1178,-7.0,-5.0,62.0,1645450003.40625,P19,D10,0,0,0
1179,-6.0,-5.0,62.0,1645450003.4375,P19,D10,0,0,0
1180,-6.0,-5.0,62.0,1645450003.46875,P19,D10,0,0,0
1181,-7.0,-5.0,62.0,1645450003.5,P19,D10,0,0,0
1182,-6.0,-6.0,62.0,1645450003.53125,P19,D10,0,0,0
1183,-6.0,-5.0,62.0,1645450003.5625,P19,D10,0,0,0
1184,-6.0,-5.0,62.0,1645450003.59375,P19,D10,0,0,0
1185,-7.0,-6.0,62.0,1645450003.625,P19,D10,0,0,0
1186,-6.0,-5.0,62.0,1645450003.65625,P19,D10,0,0,0
1187,-6.0,-5.0,62.0,1645450003.6875,P19,D10,0,0,0
1188,-7.0,-5.0,62.0,1645450003.71875,P19,D10,0,0,0
1189,-6.0,-5.0,62.0,1645450003.75,P19,D10,0,0,0
1190,-6.0,-5.0,62.0,1645450003.78125,P19,D10,0,0,0
1191,-7.0,-5.0,62.0,1645450003.8125,P19,D10,0,0,0
1192,-6.0,-5.0,62.0,1645450003.84375,P19,D10,0,0,0
1193,-6.0,-5.0,62.0,1645450003.875,P19,D10,0,0,0
1194,-7.0,-5.0,62.0,1645450003.90625,P19,D10,0,0,0
1195,-7.0,-5.0,62.0,1645450003.9375,P19,D10,0,0,0
1196,-6.0,-5.0,62.0,1645450003.96875,P19,D10,0,0,0
1197,-6.0,-5.0,62.0,1645450004.0,P19,D10,0,0,0
1198,-6.0,-5.0,62.0,1645450004.03125,P19,D10,0,0,0
1199,-6.0,-5.0,62.0,1645450004.0625,P19,D10,0,0,0
1200,-6.0,-5.0,62.0,1645450004.09375,P19,D10,0,0,0
1201,-7.0,-5.0,62.0,1645450004.125,P19,D10,0,0,0
1202,-6.0,-5.0,62.0,1645450004.15625,P19,D10,0,0,0
1203,-6.0,-5.0,62.0,1645450004.1875,P19,D10,0,0,0
1204,-7.0,-5.0,62.0,1645450004.21875,P19,D10,0,0,0
1205,-7.0,-5.0,62.0,1645450004.25,P19,D10,0,0,0
1206,-6.0,-5.0,62.0,1645450004.28125,P19,D10,0,0,0
1207,-6.0,-5.0,62.0,1645450004.3125,P19,D10,0,0,0
1208,-6.0,-5.0,62.0,1645450004.34375,P19,D10,0,0,0
1209,-6.0,-5.0,62.0,1645450004.375,P19,D10,0,0,0
1210,-7.0,-5.0,62.0,1645450004.40625,P19,D10,0,0,0
1211,-7.0,-5.0,62.0,1645450004.4375,P19,D10,0,0,0
1212,-6.0,-5.0,62.0,1645450004.46875,P19,D10,0,0,0
1213,-6.0,-5.0,62.0,1645450004.5,P19,D10,0,0,0
1214,-7.0,-5.0,62.0,1645450004.53125,P19,D10,0,0,0
1215,-6.0,-5.0,62.0,1645450004.5625,P19,D10,0,0,0
1216,-6.0,-5.0,62.0,1645450004.59375,P19,D10,0,0,0
1217,-7.0,-5.0,62.0,1645450004.625,P19,D10,0,0,0
1218,-7.0,-5.0,62.0,1645450004.65625,P19,D10,0,0,0
1219,-7.0,-5.0,62.0,1645450004.6875,P19,D10,0,0,0
1220,-7.0,-5.0,62.0,1645450004.71875,P19,D10,0,0,0
1221,-7.0,-5.0,62.0,1645450004.75,P19,D10,0,0,0
1222,-6.0,-5.0,62.0,1645450004.78125,P19,D10,0,0,0
1223,-6.0,-5.0,62.0,1645450004.8125,P19,D10,0,0,0
1224,-6.0,-5.0,62.0,1645450004.84375,P19,D10,0,0,0
1225,-6.0,-5.0,62.0,1645450004.875,P19,D10,0,0,0
1226,-7.0,-5.0,62.0,1645450004.90625,P19,D10,0,0,0
1227,-7.0,-5.0,62.0,1645450004.9375,P19,D10,0,0,0
1228,-7.0,-5.0,62.0,1645450004.96875,P19,D10,0,0,0
1229,-6.0,-5.0,62.0,1645450005.0,P19,D10,0,0,0
1230,-6.0,-6.0,62.0,1645450005.03125,P19,D10,0,0,0
1231,-7.0,-5.0,62.0,1645450005.0625,P19,D10,0,0,0
1232,-6.0,-5.0,62.0,1645450005.09375,P19,D10,0,0,0
1233,-6.0,-5.0,62.0,1645450005.125,P19,D10,0,0,0
1234,-7.0,-5.0,62.0,1645450005.15625,P19,D10,0,0,0
1235,-7.0,-5.0,62.0,1645450005.1875,P19,D10,0,0,0
1236,-6.0,-5.0,62.0,1645450005.21875,P19,D10,0,0,0
1237,-7.0,-5.0,62.0,1645450005.25,P19,D10,0,0,0
1238,-7.0,-5.0,62.0,1645450005.28125,P19,D10,0,0,0
1239,-7.0,-5.0,62.0,1645450005.3125,P19,D10,0,0,0
1240,-6.0,-5.0,62.0,1645450005.34375,P19,D10,0,0,0
1241,-7.0,-5.0,62.0,1645450005.375,P19,D10,0,0,0
1242,-7.0,-5.0,62.0,1645450005.40625,P19,D10,0,0,0
1243,-6.0,-6.0,62.0,1645450005.4375,P19,D10,0,0,0
1244,-6.0,-5.0,62.0,1645450005.46875,P19,D10,0,0,0
1245,-7.0,-5.0,62.0,1645450005.5,P19,D10,0,0,0
1246,-7.0,-5.0,62.0,1645450005.53125,P19,D10,0,0,0
1247,-6.0,-5.0,62.0,1645450005.5625,P19,D10,0,0,0
1248,-7.0,-5.0,62.0,1645450005.59375,P19,D10,0,0,0
1249,-7.0,-6.0,62.0,1645450005.625,P19,D10,0,0,0
1250,-6.0,-6.0,62.0,1645450005.65625,P19,D10,0,0,0
1251,-7.0,-5.0,62.0,1645450005.6875,P19,D10,0,0,0
1252,-7.0,-5.0,62.0,1645450005.71875,P19,D10,0,0,0
1253,-6.0,-5.0,62.0,1645450005.75,P19,D10,0,0,0
1254,-6.0,-5.0,62.0,1645450005.78125,P19,D10,0,0,0
1255,-7.0,-5.0,62.0,1645450005.8125,P19,D10,0,0,0
1256,-6.0,-5.0,62.0,1645450005.84375,P19,D10,0,0,0
1257,-5.0,-5.0,62.0,1645450005.875,P19,D10,0,0,0
1258,-7.0,-5.0,62.0,1645450005.90625,P19,D10,0,0,0
1259,-6.0,-5.0,62.0,1645450005.9375,P19,D10,0,0,0
1260,-6.0,-5.0,62.0,1645450005.96875,P19,D10,0,0,0
1261,-6.0,-5.0,62.0,1645450006.0,P19,D10,0,0,0
1262,-7.0,-6.0,62.0,1645450006.03125,P19,D10,0,0,0
1263,-7.0,-5.0,62.0,1645450006.0625,P19,D10,0,0,0
1264,-5.0,-6.0,62.0,1645450006.09375,P19,D10,0,0,0
1265,-6.0,-6.0,62.0,1645450006.125,P19,D10,0,0,0
1266,-6.0,-6.0,62.0,1645450006.15625,P19,D10,0,0,0
1267,-7.0,-5.0,62.0,1645450006.1875,P19,D10,0,0,0
1268,-7.0,-5.0,62.0,1645450006.21875,P19,D10,0,0,0
1269,-7.0,-5.0,62.0,1645450006.25,P19,D10,0,0,0
1270,-7.0,-6.0,62.0,1645450006.28125,P19,D10,0,0,0
1271,-6.0,-6.0,62.0,1645450006.3125,P19,D10,0,0,0
1272,-7.0,-5.0,62.0,1645450006.34375,P19,D10,0,0,0
1273,-7.0,-5.0,62.0,1645450006.375,P19,D10,0,0,0
1274,-6.0,-6.0,62.0,1645450006.40625,P19,D10,0,0,0
1275,-6.0,-6.0,62.0,1645450006.4375,P19,D10,0,0,0
1276,-7.0,-5.0,62.0,1645450006.46875,P19,D10,0,0,0
1277,-6.0,-5.0,62.0,1645450006.5,P19,D10,0,0,0
1278,-6.0,-6.0,62.0,1645450006.53125,P19,D10,0,0,0
1279,-6.0,-6.0,62.0,1645450006.5625,P19,D10,0,0,0
1280,-6.0,-5.0,62.0,1645450006.59375,P19,D10,0,0,0
1281,-6.0,-6.0,62.0,1645450006.625,P19,D10,0,0,0
1282,-7.0,-6.0,61.0,1645450006.65625,P19,D10,0,0,0
1283,-6.0,-6.0,62.0,1645450006.6875,P19,D10,0,0,0
1284,-6.0,-5.0,62.0,1645450006.71875,P19,D10,0,0,0
1285,-6.0,-6.0,62.0,1645450006.75,P19,D10,0,0,0
1286,-7.0,-5.0,62.0,1645450006.78125,P19,D10,0,0,0
1287,-7.0,-5.0,62.0,1645450006.8125,P19,D10,0,0,0
1288,-6.0,-5.0,62.0,1645450006.84375,P19,D10,0,0,0
1289,-7.0,-6.0,62.0,1645450006.875,P19,D10,0,0,0
1290,-7.0,-5.0,62.0,1645450006.90625,P19,D10,0,0,0
1291,-5.0,-5.0,62.0,1645450006.9375,P19,D10,0,0,0
1292,-7.0,-5.0,62.0,1645450006.96875,P19,D10,0,0,0
1293,-7.0,-6.0,62.0,1645450007.0,P19,D10,0,0,0
1294,-7.0,-5.0,62.0,1645450007.03125,P19,D10,0,0,0
1295,-7.0,-5.0,62.0,1645450007.0625,P19,D10,0,0,0
1296,-6.0,-5.0,62.0,1645450007.09375,P19,D10,0,0,0
1297,-7.0,-5.0,62.0,1645450007.125,P19,D10,0,0,0
1298,-7.0,-5.0,62.0,1645450007.15625,P19,D10,0,0,0
1299,-6.0,-5.0,62.0,1645450007.1875,P19,D10,0,0,0
1300,-7.0,-6.0,62.0,1645450007.21875,P19,D10,0,0,0
1301,-7.0,-5.0,62.0,1645450007.25,P19,D10,0,0,0
1302,-7.0,-5.0,62.0,1645450007.28125,P19,D10,0,0,0
1303,-6.0,-5.0,62.0,1645450007.3125,P19,D10,0,0,0
1304,-7.0,-5.0,62.0,1645450007.34375,P19,D10,0,0,0
1305,-7.0,-5.0,62.0,1645450007.375,P19,D10,0,0,0
1306,-6.0,-5.0,62.0,1645450007.40625,P19,D10,0,0,0
1307,-7.0,-5.0,62.0,1645450007.4375,P19,D10,0,0,0
1308,-7.0,-5.0,62.0,1645450007.46875,P19,D10,0,0,0
1309,-7.0,-5.0,62.0,1645450007.5,P19,D10,0,0,0
1310,-6.0,-5.0,62.0,1645450007.53125,P19,D10,0,0,0
1311,-7.0,-5.0,62.0,1645450007.5625,P19,D10,0,0,0
1312,-6.0,-5.0,62.0,1645450007.59375,P19,D10,0,0,0
1313,-7.0,-5.0,62.0,1645450007.625,P19,D10,0,0,0
1314,-7.0,-5.0,62.0,1645450007.65625,P19,D10,0,0,0
1315,-6.0,-6.0,62.0,1645450007.6875,P19,D10,0,0,0
1316,-7.0,-5.0,62.0,1645450007.71875,P19,D10,0,0,0
1317,-7.0,-5.0,62.0,1645450007.75,P19,D10,0,0,0
1318,-6.0,-5.0,62.0,1645450007.78125,P19,D10,0,0,0
1319,-6.0,-5.0,62.0,1645450007.8125,P19,D10,0,0,0
1320,-7.0,-5.0,62.0,1645450007.84375,P19,D10,0,0,0
1321,-6.0,-5.0,62.0,1645450007.875,P19,D10,0,0,0
1322,-6.0,-5.0,62.0,1645450007.90625,P19,D10,0,0,0
1323,-6.0,-5.0,62.0,1645450007.9375,P19,D10,0,0,0
1324,-6.0,-5.0,62.0,1645450007.96875,P19,D10,0,0,0
1325,-7.0,-5.0,62.0,1645450008.0,P19,D10,0,0,0
1326,-6.0,-5.0,62.0,1645450008.03125,P19,D10,0,0,0
1327,-7.0,-5.0,61.0,1645450008.0625,P19,D10,0,0,0
1328,-7.0,-5.0,62.0,1645450008.09375,P19,D10,0,0,0
1329,-6.0,-5.0,62.0,1645450008.125,P19,D10,0,0,0
1330,-7.0,-5.0,62.0,1645450008.15625,P19,D10,0,0,0
1331,-7.0,-5.0,62.0,1645450008.1875,P19,D10,0,0,0
1332,-6.0,-5.0,62.0,1645450008.21875,P19,D10,0,0,0
1333,-7.0,-5.0,62.0,1645450008.25,P19,D10,0,0,0
1334,-6.0,-5.0,62.0,1645450008.28125,P19,D10,0,0,0
1335,-7.0,-5.0,62.0,1645450008.3125,P19,D10,0,0,0
1336,-7.0,-5.0,62.0,1645450008.34375,P19,D10,0,0,0
1337,-6.0,-5.0,62.0,1645450008.375,P19,D10,0,0,0
1338,-7.0,-5.0,62.0,1645450008.40625,P19,D10,0,0,0
1339,-7.0,-5.0,62.0,1645450008.4375,P19,D10,0,0,0
1340,-6.0,-5.0,62.0,1645450008.46875,P19,D10,0,0,0
1341,-6.0,-5.0,62.0,1645450008.5,P19,D10,0,0,0
1342,-7.0,-5.0,62.0,1645450008.53125,P19,D10,0,0,0
1343,-6.0,-5.0,62.0,1645450008.5625,P19,D10,0,0,0
1344,-6.0,-5.0,62.0,1645450008.59375,P19,D10,0,0,0
1345,-7.0,-5.0,62.0,1645450008.625,P19,D10,0,0,0
1346,-7.0,-5.0,62.0,1645450008.65625,P19,D10,0,0,0
1347,-6.0,-5.0,62.0,1645450008.6875,P19,D10,0,0,0
1348,-5.0,-6.0,62.0,1645450008.71875,P19,D10,0,0,0
1349,-7.0,-5.0,62.0,1645450008.75,P19,D10,0,0,0
1350,-7.0,-5.0,62.0,1645450008.78125,P19,D10,0,0,0
1351,-5.0,-5.0,62.0,1645450008.8125,P19,D10,0,0,0
1352,-5.0,-5.0,62.0,1645450008.84375,P19,D10,0,0,0
1353,-7.0,-5.0,62.0,1645450008.875,P19,D10,0,0,0
1354,-6.0,-5.0,62.0,1645450008.90625,P19,D10,0,0,0
1355,-6.0,-5.0,62.0,1645450008.9375,P19,D10,0,0,0
1356,-7.0,-5.0,62.0,1645450008.96875,P19,D10,0,0,0
1357,-6.0,-5.0,62.0,1645450009.0,P19,D10,0,0,0
1358,-6.0,-5.0,62.0,1645450009.03125,P19,D10,0,0,0
1359,-6.0,-5.0,62.0,1645450009.0625,P19,D10,0,0,0
1360,-7.0,-5.0,62.0,1645450009.09375,P19,D10,0,0,0
1361,-7.0,-5.0,62.0,1645450009.125,P19,D10,0,0,0
1362,-6.0,-5.0,62.0,1645450009.15625,P19,D10,0,0,0
1363,-6.0,-5.0,62.0,1645450009.1875,P19,D10,0,0,0
1364,-7.0,-5.0,62.0,1645450009.21875,P19,D10,0,0,0
1365,-6.0,-5.0,62.0,1645450009.25,P19,D10,0,0,0
1366,-6.0,-5.0,62.0,1645450009.28125,P19,D10,0,0,0
1367,-6.0,-6.0,62.0,1645450009.3125,P19,D10,0,0,0
1368,-6.0,-5.0,62.0,1645450009.34375,P19,D10,0,0,0
1369,-7.0,-5.0,62.0,1645450009.375,P19,D10,0,0,0
1370,-6.0,-5.0,62.0,1645450009.40625,P19,D10,0,0,0
1371,-7.0,-5.0,62.0,1645450009.4375,P19,D10,0,0,0
1372,-7.0,-5.0,62.0,1645450009.46875,P19,D10,0,0,0
1373,-6.0,-5.0,62.0,1645450009.5,P19,D10,0,0,0
1374,-6.0,-5.0,62.0,1645450009.53125,P19,D10,0,0,0
1375,-6.0,-5.0,62.0,1645450009.5625,P19,D10,0,0,0
1376,-6.0,-6.0,62.0,1645450009.59375,P19,D10,0,0,0
1377,-7.0,-5.0,62.0,1645450009.625,P19,D10,0,0,0
1378,-7.0,-5.0,62.0,1645450009.65625,P19,D10,0,0,0
1379,-6.0,-6.0,62.0,1645450009.6875,P19,D10,0,0,0
1380,-6.0,-5.0,62.0,1645450009.71875,P19,D10,0,0,0
1381,-7.0,-5.0,62.0,1645450009.75,P19,D10,0,0,0
1382,-7.0,-5.0,62.0,1645450009.78125,P19,D10,0,0,0
1383,-7.0,-5.0,62.0,1645450009.8125,P19,D10,0,0,0
1384,-7.0,-5.0,62.0,1645450009.84375,P19,D10,0,0,0
1385,-7.0,-5.0,62.0,1645450009.875,P19,D10,0,0,0
1386,-6.0,-5.0,62.0,1645450009.90625,P19,D10,0,0,0
1387,-6.0,-5.0,62.0,1645450009.9375,P19,D10,0,0,0
1388,-6.0,-6.0,62.0,1645450009.96875,P19,D10,0,0,0
1389,-6.0,-6.0,62.0,1645450010.0,P19,D10,0,0,0
1390,-7.0,-5.0,62.0,1645450010.03125,P19,D10,0,0,0
1391,-7.0,-5.0,62.0,1645450010.0625,P19,D10,0,0,0
1392,-6.0,-6.0,62.0,1645450010.09375,P19,D10,0,0,0
1393,-7.0,-5.0,62.0,1645450010.125,P19,D10,0,0,0
1394,-6.0,-5.0,62.0,1645450010.15625,P19,D10,0,0,0
1395,-7.0,-5.0,62.0,1645450010.1875,P19,D10,0,0,0
1396,-8.0,-5.0,62.0,1645450010.21875,P19,D10,0,0,0
1397,-6.0,-5.0,62.0,1645450010.25,P19,D10,0,0,0
1398,-6.0,-6.0,62.0,1645450010.28125,P19,D10,0,0,0
1399,-7.0,-5.0,62.0,1645450010.3125,P19,D10,0,0,0
1400,-6.0,-6.0,62.0,1645450010.34375,P19,D10,0,0,0
1401,-7.0,-5.0,62.0,1645450010.375,P19,D10,0,0,0
1402,-7.0,-5.0,62.0,1645450010.40625,P19,D10,0,0,0
1403,-6.0,-6.0,62.0,1645450010.4375,P19,D10,0,0,0
1404,-7.0,-6.0,62.0,1645450010.46875,P19,D10,0,0,0
1405,-7.0,-5.0,62.0,1645450010.5,P19,D10,0,0,0
1406,-6.0,-6.0,62.0,1645450010.53125,P19,D10,0,0,0
1407,-7.0,-5.0,62.0,1645450010.5625,P19,D10,0,0,0
1408,-7.0,-6.0,62.0,1645450010.59375,P19,D10,0,0,0
1409,-6.0,-5.0,62.0,1645450010.625,P19,D10,0,0,0
1410,-7.0,-6.0,62.0,1645450010.65625,P19,D10,0,0,0
1411,-7.0,-5.0,62.0,1645450010.6875,P19,D10,0,0,0
1412,-6.0,-6.0,62.0,1645450010.71875,P19,D10,0,0,0
1413,-6.0,-6.0,62.0,1645450010.75,P19,D10,0,0,0
1414,-7.0,-5.0,62.0,1645450010.78125,P19,D10,0,0,0
1415,-6.0,-5.0,62.0,1645450010.8125,P19,D10,0,0,0
1416,-7.0,-5.0,62.0,1645450010.84375,P19,D10,0,0,0
1417,-6.0,-6.0,62.0,1645450010.875,P19,D10,0,0,0
1418,-6.0,-5.0,62.0,1645450010.90625,P19,D10,0,0,0
1419,-7.0,-6.0,62.0,1645450010.9375,P19,D10,0,0,0
1420,-7.0,-5.0,62.0,1645450010.96875,P19,D10,0,0,0
1421,-6.0,-5.0,62.0,1645450011.0,P19,D10,0,0,0
1422,-6.0,-6.0,62.0,1645450011.03125,P19,D10,0,0,0
1423,-7.0,-6.0,62.0,1645450011.0625,P19,D10,0,0,0
1424,-7.0,-6.0,62.0,1645450011.09375,P19,D10,0,0,0
1425,-6.0,-6.0,62.0,1645450011.125,P19,D10,0,0,0
1426,-7.0,-6.0,62.0,1645450011.15625,P19,D10,0,0,0
1427,-6.0,-5.0,62.0,1645450011.1875,P19,D10,0,0,0
1428,-7.0,-6.0,62.0,1645450011.21875,P19,D10,0,0,0
1429,-8.0,-6.0,62.0,1645450011.25,P19,D10,0,0,0
1430,-6.0,-6.0,62.0,1645450011.28125,P19,D10,0,0,0
1431,-7.0,-5.0,62.0,1645450011.3125,P19,D10,0,0,0
1432,-7.0,-6.0,62.0,1645450011.34375,P19,D10,0,0,0
1433,-7.0,-6.0,62.0,1645450011.375,P19,D10,0,0,0
1434,-6.0,-5.0,62.0,1645450011.40625,P19,D10,0,0,0
1435,-6.0,-6.0,62.0,1645450011.4375,P19,D10,0,0,0
1436,-7.0,-6.0,62.0,1645450011.46875,P19,D10,0,0,0
1437,-6.0,-6.0,62.0,1645450011.5,P19,D10,0,0,0
1438,-5.0,-6.0,62.0,1645450011.53125,P19,D10,0,0,0
1439,-8.0,-5.0,62.0,1645450011.5625,P19,D10,0,0,0
1440,-8.0,-5.0,62.0,1645450011.59375,P19,D10,0,0,0
1441,-5.0,-6.0,62.0,1645450011.625,P19,D10,0,0,0
1442,-6.0,-6.0,62.0,1645450011.65625,P19,D10,0,0,0
1443,-7.0,-5.0,62.0,1645450011.6875,P19,D10,0,0,0
1444,-6.0,-5.0,62.0,1645450011.71875,P19,D10,0,0,0
1445,-6.0,-6.0,62.0,1645450011.75,P19,D10,0,0,0
1446,-7.0,-6.0,62.0,1645450011.78125,P19,D10,0,0,0
1447,-6.0,-6.0,62.0,1645450011.8125,P19,D10,0,0,0
1448,-5.0,-6.0,62.0,1645450011.84375,P19,D10,0,0,0
1449,-7.0,-6.0,62.0,1645450011.875,P19,D10,0,0,0
1450,-7.0,-6.0,62.0,1645450011.90625,P19,D10,0,0,0
1451,-6.0,-5.0,62.0,1645450011.9375,P19,D10,0,0,0
1452,-6.0,-6.0,62.0,1645450011.96875,P19,D10,0,0,0
1453,-8.0,-6.0,62.0,1645450012.0,P19,D10,0,0,0
1454,-7.0,-5.0,62.0,1645450012.03125,P19,D10,0,0,0
1455,-6.0,-5.0,62.0,1645450012.0625,P19,D10,0,0,0
1456,-7.0,-6.0,62.0,1645450012.09375,P19,D10,0,0,0
1457,-7.0,-6.0,62.0,1645450012.125,P19,D10,0,0,0
1458,-5.0,-6.0,62.0,1645450012.15625,P19,D10,0,0,0
1459,-6.0,-6.0,62.0,1645450012.1875,P19,D10,0,0,0
1460,-7.0,-6.0,62.0,1645450012.21875,P19,D10,0,0,0
1461,-6.0,-5.0,62.0,1645450012.25,P19,D10,0,0,0
1462,-6.0,-6.0,62.0,1645450012.28125,P19,D10,0,0,0
1463,-6.0,-6.0,62.0,1645450012.3125,P19,D10,0,0,0
1464,-7.0,-6.0,62.0,1645450012.34375,P19,D10,0,0,0
1465,-6.0,-6.0,62.0,1645450012.375,P19,D10,0,0,0
1466,-6.0,-6.0,62.0,1645450012.40625,P19,D10,0,0,0
1467,-7.0,-5.0,62.0,1645450012.4375,P19,D10,0,0,0
1468,-6.0,-6.0,62.0,1645450012.46875,P19,D10,0,0,0
1469,-7.0,-6.0,62.0,1645450012.5,P19,D10,0,0,0
1470,-6.0,-5.0,62.0,1645450012.53125,P19,D10,0,0,0
1471,-7.0,-6.0,62.0,1645450012.5625,P19,D10,0,0,0
1472,-7.0,-6.0,62.0,1645450012.59375,P19,D10,0,0,0
1473,-6.0,-6.0,62.0,1645450012.625,P19,D10,0,0,0
1474,-6.0,-5.0,62.0,1645450012.65625,P19,D10,0,0,0
1475,-6.0,-6.0,62.0,1645450012.6875,P19,D10,0,0,0
1476,-6.0,-6.0,62.0,1645450012.71875,P19,D10,0,0,0
1477,-7.0,-6.0,62.0,1645450012.75,P19,D10,0,0,0
1478,-6.0,-5.0,62.0,1645450012.78125,P19,D10,0,0,0
1479,-7.0,-5.0,62.0,1645450012.8125,P19,D10,0,0,0
1480,-7.0,-6.0,62.0,1645450012.84375,P19,D10,0,0,0
1481,-6.0,-6.0,62.0,1645450012.875,P19,D10,0,0,0
1482,-6.0,-6.0,62.0,1645450012.90625,P19,D10,0,0,0
1483,-7.0,-6.0,62.0,1645450012.9375,P19,D10,0,0,0
1484,-6.0,-6.0,62.0,1645450012.96875,P19,D10,0,0,0
1485,-6.0,-6.0,62.0,1645450013.0,P19,D10,0,0,0
1486,-7.0,-5.0,62.0,1645450013.03125,P19,D10,0,0,0
1487,-6.0,-6.0,62.0,1645450013.0625,P19,D10,0,0,0
1488,-7.0,-6.0,62.0,1645450013.09375,P19,D10,0,0,0
1489,-6.0,-5.0,62.0,1645450013.125,P19,D10,0,0,0
1490,-7.0,-6.0,62.0,1645450013.15625,P19,D10,0,0,0
1491,-7.0,-6.0,62.0,1645450013.1875,P19,D10,0,0,0
1492,-7.0,-6.0,62.0,1645450013.21875,P19,D10,0,0,0
1493,-6.0,-5.0,62.0,1645450013.25,P19,D10,0,0,0
1494,-7.0,-5.0,62.0,1645450013.28125,P19,D10,0,0,0
1495,-6.0,-5.0,62.0,1645450013.3125,P19,D10,0,0,0
1496,-6.0,-6.0,62.0,1645450013.34375,P19,D10,0,0,0
1497,-6.0,-6.0,62.0,1645450013.375,P19,D10,0,0,0
1498,-7.0,-6.0,62.0,1645450013.40625,P19,D10,0,0,0
1499,-7.0,-5.0,62.0,1645450013.4375,P19,D10,0,0,0
1500,-6.0,-6.0,62.0,1645450013.46875,P19,D10,0,0,0
1501,-6.0,-5.0,62.0,1645450013.5,P19,D10,0,0,0
1502,-7.0,-5.0,62.0,1645450013.53125,P19,D10,0,0,0
1503,-6.0,-6.0,62.0,1645450013.5625,P19,D10,0,0,0
1504,-6.0,-6.0,62.0,1645450013.59375,P19,D10,0,0,0
1505,-6.0,-6.0,62.0,1645450013.625,P19,D10,0,0,0
1506,-7.0,-5.0,62.0,1645450013.65625,P19,D10,0,0,0
1507,-6.0,-5.0,62.0,1645450013.6875,P19,D10,0,0,0
1508,-6.0,-5.0,62.0,1645450013.71875,P19,D10,0,0,0
1509,-6.0,-6.0,62.0,1645450013.75,P19,D10,0,0,0
1510,-7.0,-6.0,62.0,1645450013.78125,P19,D10,0,0,0
1511,-6.0,-5.0,62.0,1645450013.8125,P19,D10,0,0,0
1512,-6.0,-6.0,62.0,1645450013.84375,P19,D10,0,0,0
1513,-6.0,-6.0,62.0,1645450013.875,P19,D10,0,0,0
1514,-7.0,-6.0,62.0,1645450013.90625,P19,D10,0,0,0
1515,-7.0,-5.0,62.0,1645450013.9375,P19,D10,0,0,0
1516,-6.0,-6.0,62.0,1645450013.96875,P19,D10,0,0,0
1517,-7.0,-6.0,62.0,1645450014.0,P19,D10,0,0,0
1518,-6.0,-5.0,62.0,1645450014.03125,P19,D10,0,0,0
1519,-7.0,-5.0,62.0,1645450014.0625,P19,D10,0,0,0
1520,-6.0,-6.0,62.0,1645450014.09375,P19,D10,0,0,0
1521,-7.0,-6.0,62.0,1645450014.125,P19,D10,0,0,0
1522,-7.0,-6.0,62.0,1645450014.15625,P19,D10,0,0,0
1523,-6.0,-5.0,62.0,1645450014.1875,P19,D10,0,0,0
1524,-6.0,-6.0,62.0,1645450014.21875,P19,D10,0,0,0
1525,-7.0,-6.0,62.0,1645450014.25,P19,D10,0,0,0
1526,-6.0,-6.0,62.0,1645450014.28125,P19,D10,0,0,0
1527,-6.0,-6.0,62.0,1645450014.3125,P19,D10,0,0,0
1528,-6.0,-5.0,62.0,1645450014.34375,P19,D10,0,0,0
1529,-7.0,-6.0,62.0,1645450014.375,P19,D10,0,0,0
1530,-7.0,-5.0,62.0,1645450014.40625,P19,D10,0,0,0
1531,-7.0,-5.0,62.0,1645450014.4375,P19,D10,0,0,0
1532,-6.0,-6.0,62.0,1645450014.46875,P19,D10,0,0,0
1533,-6.0,-5.0,62.0,1645450014.5,P19,D10,0,0,0
1534,-6.0,-5.0,62.0,1645450014.53125,P19,D10,0,0,0
1535,-6.0,-6.0,62.0,1645450014.5625,P19,D10,0,0,0
1536,-6.0,-6.0,62.0,1645450014.59375,P19,D10,0,0,0
1537,-6.0,-6.0,62.0,1645450014.625,P19,D10,0,0,0
1538,-6.0,-6.0,62.0,1645450014.65625,P19,D10,0,0,0
1539,-6.0,-6.0,62.0,1645450014.6875,P19,D10,0,0,0
1540,-6.0,-6.0,62.0,1645450014.71875,P19,D10,0,0,0
1541,-6.0,-6.0,62.0,1645450014.75,P19,D10,0,0,0
1542,-6.0,-6.0,61.0,1645450014.78125,P19,D10,0,0,0
1543,-6.0,-6.0,62.0,1645450014.8125,P19,D10,0,0,0
1544,-6.0,-5.0,62.0,1645450014.84375,P19,D10,0,0,0
1545,-6.0,-6.0,62.0,1645450014.875,P19,D10,0,0,0
1546,-6.0,-6.0,62.0,1645450014.90625,P19,D10,0,0,0
1547,-7.0,-6.0,62.0,1645450014.9375,P19,D10,0,0,0
1548,-6.0,-6.0,62.0,1645450014.96875,P19,D10,0,0,0
1549,-6.0,-6.0,62.0,1645450015.0,P19,D10,0,0,0
1550,-6.0,-5.0,62.0,1645450015.03125,P19,D10,0,0,0
1551,-6.0,-6.0,62.0,1645450015.0625,P19,D10,0,0,0
1552,-7.0,-6.0,62.0,1645450015.09375,P19,D10,0,0,0
1553,-6.0,-5.0,62.0,1645450015.125,P19,D10,0,0,0
1554,-5.0,-5.0,62.0,1645450015.15625,P19,D10,0,0,0
1555,-6.0,-6.0,62.0,1645450015.1875,P19,D10,0,0,0
1556,-6.0,-6.0,62.0,1645450015.21875,P19,D10,0,0,0
1557,-6.0,-6.0,62.0,1645450015.25,P19,D10,0,0,0
1558,-6.0,-6.0,62.0,1645450015.28125,P19,D10,0,0,0
1559,-6.0,-6.0,62.0,1645450015.3125,P19,D10,0,0,0
1560,-6.0,-6.0,62.0,1645450015.34375,P19,D10,0,0,0
1561,-7.0,-6.0,62.0,1645450015.375,P19,D10,0,0,0
1562,-7.0,-6.0,62.0,1645450015.40625,P19,D10,0,0,0
1563,-6.0,-6.0,62.0,1645450015.4375,P19,D10,0,0,0
1564,-6.0,-6.0,62.0,1645450015.46875,P19,D10,0,0,0
1565,-7.0,-6.0,62.0,1645450015.5,P19,D10,0,0,0
1566,-6.0,-6.0,62.0,1645450015.53125,P19,D10,0,0,0
1567,-6.0,-6.0,62.0,1645450015.5625,P19,D10,0,0,0
1568,-6.0,-5.0,62.0,1645450015.59375,P19,D10,0,0,0
1569,-6.0,-6.0,62.0,1645450015.625,P19,D10,0,0,0
1570,-6.0,-6.0,62.0,1645450015.65625,P19,D10,0,0,0
1571,-6.0,-6.0,62.0,1645450015.6875,P19,D10,0,0,0
1572,-6.0,-6.0,62.0,1645450015.71875,P19,D10,0,0,0
1573,-7.0,-6.0,62.0,1645450015.75,P19,D10,0,0,0
1574,-6.0,-6.0,62.0,1645450015.78125,P19,D10,0,0,0
1575,-6.0,-6.0,62.0,1645450015.8125,P19,D10,0,0,0
1576,-6.0,-6.0,62.0,1645450015.84375,P19,D10,0,0,0
1577,-7.0,-6.0,62.0,1645450015.875,P19,D10,0,0,0
1578,-7.0,-6.0,62.0,1645450015.90625,P19,D10,0,0,0
1579,-6.0,-5.0,62.0,1645450015.9375,P19,D10,0,0,0
1580,-6.0,-6.0,62.0,1645450015.96875,P19,D10,0,0,0
1581,-6.0,-6.0,62.0,1645450016.0,P19,D10,0,0,0
1582,-6.0,-6.0,62.0,1645450016.03125,P19,D10,0,0,0
1583,-6.0,-6.0,62.0,1645450016.0625,P19,D10,0,0,0
1584,-6.0,-6.0,62.0,1645450016.09375,P19,D10,0,0,0
1585,-6.0,-5.0,62.0,1645450016.125,P19,D10,0,0,0
1586,-6.0,-6.0,62.0,1645450016.15625,P19,D10,0,0,0
1587,-6.0,-6.0,62.0,1645450016.1875,P19,D10,0,0,0
1588,-6.0,-6.0,62.0,1645450016.21875,P19,D10,0,0,0
1589,-6.0,-6.0,62.0,1645450016.25,P19,D10,0,0,0
1590,-6.0,-6.0,62.0,1645450016.28125,P19,D10,0,0,0
1591,-7.0,-6.0,62.0,1645450016.3125,P19,D10,0,0,0
1592,-6.0,-6.0,62.0,1645450016.34375,P19,D10,0,0,0
1593,-5.0,-6.0,62.0,1645450016.375,P19,D10,0,0,0
1594,-6.0,-6.0,62.0,1645450016.40625,P19,D10,0,0,0
1595,-6.0,-6.0,62.0,1645450016.4375,P19,D10,0,0,0
1596,-6.0,-6.0,62.0,1645450016.46875,P19,D10,0,0,0
1597,-6.0,-6.0,62.0,1645450016.5,P19,D10,0,0,0
1598,-6.0,-6.0,62.0,1645450016.53125,P19,D10,0,0,0
1599,-6.0,-6.0,62.0,1645450016.5625,P19,D10,0,0,0
1600,-7.0,-6.0,62.0,1645450016.59375,P19,D10,0,0,0
1601,-6.0,-6.0,62.0,1645450016.625,P19,D10,0,0,0
1602,-6.0,-6.0,62.0,1645450016.65625,P19,D10,0,0,0
1603,-6.0,-6.0,62.0,1645450016.6875,P19,D10,0,0,0
1604,-7.0,-6.0,62.0,1645450016.71875,P19,D10,0,0,0
1605,-6.0,-6.0,62.0,1645450016.75,P19,D10,0,0,0
1606,-6.0,-6.0,62.0,1645450016.78125,P19,D10,0,0,0
1607,-6.0,-6.0,62.0,1645450016.8125,P19,D10,0,0,0
1608,-6.0,-6.0,62.0,1645450016.84375,P19,D10,0,0,0
1609,-6.0,-6.0,62.0,1645450016.875,P19,D10,0,0,0
1610,-6.0,-6.0,62.0,1645450016.90625,P19,D10,0,0,0
1611,-6.0,-6.0,62.0,1645450016.9375,P19,D10,0,0,0
1612,-6.0,-6.0,62.0,1645450016.96875,P19,D10,0,0,0
1613,-6.0,-5.0,62.0,1645450017.0,P19,D10,0,0,0
1614,-6.0,-6.0,62.0,1645450017.03125,P19,D10,0,0,0
1615,-7.0,-6.0,62.0,1645450017.0625,P19,D10,0,0,0
1616,-6.0,-6.0,62.0,1645450017.09375,P19,D10,0,0,0
1617,-6.0,-5.0,62.0,1645450017.125,P19,D10,0,0,0
1618,-7.0,-5.0,62.0,1645450017.15625,P19,D10,0,0,0
1619,-6.0,-6.0,62.0,1645450017.1875,P19,D10,0,0,0
1620,-6.0,-6.0,62.0,1645450017.21875,P19,D10,0,0,0
1621,-6.0,-6.0,62.0,1645450017.25,P19,D10,0,0,0
1622,-6.0,-5.0,62.0,1645450017.28125,P19,D10,0,0,0
1623,-6.0,-6.0,62.0,1645450017.3125,P19,D10,0,0,0
1624,-6.0,-6.0,62.0,1645450017.34375,P19,D10,0,0,0
1625,-6.0,-5.0,62.0,1645450017.375,P19,D10,0,0,0
1626,-6.0,-6.0,62.0,1645450017.40625,P19,D10,0,0,0
1627,-6.0,-6.0,62.0,1645450017.4375,P19,D10,0,0,0
1628,-6.0,-6.0,62.0,1645450017.46875,P19,D10,0,0,0
1629,-6.0,-6.0,62.0,1645450017.5,P19,D10,0,0,0
1630,-6.0,-6.0,62.0,1645450017.53125,P19,D10,0,0,0
1631,-6.0,-6.0,62.0,1645450017.5625,P19,D10,0,0,0
1632,-6.0,-6.0,62.0,1645450017.59375,P19,D10,0,0,0
1633,-6.0,-6.0,62.0,1645450017.625,P19,D10,0,0,0
1634,-6.0,-5.0,62.0,1645450017.65625,P19,D10,0,0,0
1635,-6.0,-6.0,62.0,1645450017.6875,P19,D10,0,0,0
1636,-6.0,-6.0,62.0,1645450017.71875,P19,D10,0,0,0
1637,-6.0,-6.0,62.0,1645450017.75,P19,D10,0,0,0
1638,-6.0,-6.0,62.0,1645450017.78125,P19,D10,0,0,0
1639,-6.0,-6.0,62.0,1645450017.8125,P19,D10,0,0,0
1640,-6.0,-6.0,62.0,1645450017.84375,P19,D10,0,0,0
1641,-6.0,-6.0,62.0,1645450017.875,P19,D10,0,0,0
1642,-6.0,-6.0,62.0,1645450017.90625,P19,D10,0,0,0
1643,-6.0,-6.0,62.0,1645450017.9375,P19,D10,0,0,0
1644,-6.0,-6.0,62.0,1645450017.96875,P19,D10,0,0,0
1645,-6.0,-6.0,62.0,1645450018.0,P19,D10,0,0,0
1646,-6.0,-6.0,62.0,1645450018.03125,P19,D10,0,0,0
1647,-6.0,-6.0,62.0,1645450018.0625,P19,D10,0,0,0
1648,-6.0,-6.0,62.0,1645450018.09375,P19,D10,0,0,0
1649,-6.0,-6.0,62.0,1645450018.125,P19,D10,0,0,0
1650,-6.0,-6.0,62.0,1645450018.15625,P19,D10,0,0,0
1651,-6.0,-5.0,62.0,1645450018.1875,P19,D10,0,0,0
1652,-6.0,-6.0,62.0,1645450018.21875,P19,D10,0,0,0
1653,-6.0,-5.0,62.0,1645450018.25,P19,D10,0,0,0
1654,-6.0,-6.0,62.0,1645450018.28125,P19,D10,0,0,0
1655,-6.0,-6.0,62.0,1645450018.3125,P19,D10,0,0,0
1656,-6.0,-6.0,62.0,1645450018.34375,P19,D10,0,0,0
1657,-6.0,-6.0,62.0,1645450018.375,P19,D10,0,0,0
1658,-7.0,-5.0,62.0,1645450018.40625,P19,D10,0,0,0
1659,-6.0,-5.0,62.0,1645450018.4375,P19,D10,0,0,0
1660,-6.0,-6.0,62.0,1645450018.46875,P19,D10,0,0,0
1661,-6.0,-6.0,62.0,1645450018.5,P19,D10,0,0,0
1662,-6.0,-6.0,62.0,1645450018.53125,P19,D10,0,0,0
1663,-6.0,-6.0,62.0,1645450018.5625,P19,D10,0,0,0
1664,-6.0,-6.0,62.0,1645450018.59375,P19,D10,0,0,0
1665,-6.0,-6.0,62.0,1645450018.625,P19,D10,0,0,0
1666,-6.0,-5.0,62.0,1645450018.65625,P19,D10,0,0,0
1667,-6.0,-6.0,62.0,1645450018.6875,P19,D10,0,0,0
1668,-6.0,-6.0,62.0,1645450018.71875,P19,D10,0,0,0
1669,-6.0,-5.0,62.0,1645450018.75,P19,D10,0,0,0
1670,-6.0,-6.0,62.0,1645450018.78125,P19,D10,0,0,0
1671,-6.0,-6.0,62.0,1645450018.8125,P19,D10,0,0,0
1672,-6.0,-6.0,62.0,1645450018.84375,P19,D10,0,0,0
1673,-6.0,-6.0,62.0,1645450018.875,P19,D10,0,0,0
1674,-6.0,-6.0,62.0,1645450018.90625,P19,D10,0,0,0
1675,-6.0,-6.0,62.0,1645450018.9375,P19,D10,0,0,0
1676,-6.0,-6.0,62.0,1645450018.96875,P19,D10,0,0,0
1677,-6.0,-6.0,62.0,1645450019.0,P19,D10,0,0,0
1678,-6.0,-6.0,62.0,1645450019.03125,P19,D10,0,0,0
1679,-6.0,-6.0,62.0,1645450019.0625,P19,D10,0,0,0
1680,-6.0,-6.0,62.0,1645450019.09375,P19,D10,0,0,0
1681,-6.0,-6.0,62.0,1645450019.125,P19,D10,0,0,0
1682,-6.0,-6.0,62.0,1645450019.15625,P19,D10,0,0,0
1683,-6.0,-6.0,62.0,1645450019.1875,P19,D10,0,0,0
1684,-6.0,-6.0,62.0,1645450019.21875,P19,D10,0,0,0
1685,-6.0,-6.0,62.0,1645450019.25,P19,D10,0,0,0
1686,-6.0,-6.0,62.0,1645450019.28125,P19,D10,0,0,0
1687,-6.0,-6.0,62.0,1645450019.3125,P19,D10,0,0,0
1688,-6.0,-6.0,62.0,1645450019.34375,P19,D10,0,0,0
1689,-6.0,-6.0,62.0,1645450019.375,P19,D10,0,0,0
1690,-7.0,-6.0,62.0,1645450019.40625,P19,D10,0,0,0
1691,-6.0,-6.0,62.0,1645450019.4375,P19,D10,0,0,0
1692,-6.0,-5.0,62.0,1645450019.46875,P19,D10,0,0,0
1693,-6.0,-6.0,62.0,1645450019.5,P19,D10,0,0,0
1694,-6.0,-6.0,62.0,1645450019.53125,P19,D10,0,0,0
1695,-7.0,-6.0,62.0,1645450019.5625,P19,D10,0,0,0
1696,-6.0,-6.0,62.0,1645450019.59375,P19,D10,0,0,0
1697,-5.0,-6.0,62.0,1645450019.625,P19,D10,0,0,0
1698,-7.0,-6.0,62.0,1645450019.65625,P19,D10,0,0,0
1699,-6.0,-5.0,62.0,1645450019.6875,P19,D10,0,0,0
1700,-6.0,-6.0,62.0,1645450019.71875,P19,D10,0,0,0
1701,-6.0,-6.0,62.0,1645450019.75,P19,D10,0,0,0
1702,-6.0,-6.0,62.0,1645450019.78125,P19,D10,0,0,0
1703,-6.0,-6.0,62.0,1645450019.8125,P19,D10,0,0,0
1704,-6.0,-6.0,62.0,1645450019.84375,P19,D10,0,0,0
1705,-6.0,-6.0,62.0,1645450019.875,P19,D10,0,0,0
1706,-7.0,-5.0,62.0,1645450019.90625,P19,D10,0,0,0
1707,-6.0,-5.0,62.0,1645450019.9375,P19,D10,0,0,0
1708,-6.0,-6.0,62.0,1645450019.96875,P19,D10,0,0,0
1709,-6.0,-6.0,62.0,1645450020.0,P19,D10,0,0,0
1710,-7.0,-6.0,62.0,1645450020.03125,P19,D10,0,0,0
1711,-6.0,-5.0,62.0,1645450020.0625,P19,D10,0,0,0
1712,-6.0,-5.0,62.0,1645450020.09375,P19,D10,0,0,0
1713,-6.0,-6.0,62.0,1645450020.125,P19,D10,0,0,0
1714,-5.0,-6.0,62.0,1645450020.15625,P19,D10,0,0,0
1715,-6.0,-5.0,62.0,1645450020.1875,P19,D10,0,0,0
1716,-6.0,-5.0,62.0,1645450020.21875,P19,D10,0,0,0
1717,-6.0,-6.0,62.0,1645450020.25,P19,D10,0,0,0
1718,-6.0,-6.0,62.0,1645450020.28125,P19,D10,0,0,0
1719,-6.0,-5.0,62.0,1645450020.3125,P19,D10,0,0,0
1720,-6.0,-6.0,62.0,1645450020.34375,P19,D10,0,0,0
1721,-6.0,-6.0,62.0,1645450020.375,P19,D10,0,0,0
1722,-6.0,-5.0,62.0,1645450020.40625,P19,D10,0,0,0
1723,-7.0,-5.0,62.0,1645450020.4375,P19,D10,0,0,0
1724,-6.0,-6.0,62.0,1645450020.46875,P19,D10,0,0,0
1725,-7.0,-5.0,62.0,1645450020.5,P19,D10,0,0,0
1726,-7.0,-5.0,62.0,1645450020.53125,P19,D10,0,0,0
1727,-6.0,-5.0,62.0,1645450020.5625,P19,D10,0,0,0
1728,-6.0,-6.0,62.0,1645450020.59375,P19,D10,0,0,0
1729,-6.0,-6.0,62.0,1645450020.625,P19,D10,0,0,0
1730,-5.0,-5.0,62.0,1645450020.65625,P19,D10,0,0,0
1731,-5.0,-6.0,61.0,1645450020.6875,P19,D10,0,0,0
1732,-8.0,-5.0,61.0,1645450020.71875,P19,D10,0,0,0
1733,-5.0,-5.0,62.0,1645450020.75,P19,D10,0,0,0
1734,-6.0,-5.0,62.0,1645450020.78125,P19,D10,0,0,0
1735,-6.0,-5.0,62.0,1645450020.8125,P19,D10,0,0,0
1736,-7.0,-6.0,62.0,1645450020.84375,P19,D10,0,0,0
1737,-6.0,-5.0,62.0,1645450020.875,P19,D10,0,0,0
1738,-5.0,-5.0,62.0,1645450020.90625,P19,D10,0,0,0
1739,-6.0,-5.0,62.0,1645450020.9375,P19,D10,0,0,0
1740,-6.0,-6.0,62.0,1645450020.96875,P19,D10,0,0,0
1741,-5.0,-6.0,62.0,1645450021.0,P19,D10,0,0,0
1742,-5.0,-6.0,62.0,1645450021.03125,P19,D10,0,0,0
1743,-7.0,-6.0,62.0,1645450021.0625,P19,D10,0,0,0
1744,-7.0,-6.0,62.0,1645450021.09375,P19,D10,0,0,0
1745,-8.0,-5.0,62.0,1645450021.125,P19,D10,0,0,0
1746,-6.0,-5.0,62.0,1645450021.15625,P19,D10,0,0,0
1747,-7.0,-6.0,62.0,1645450021.1875,P19,D10,0,0,0
1748,-7.0,-4.0,62.0,1645450021.21875,P19,D10,0,0,0
1749,-5.0,-5.0,62.0,1645450021.25,P19,D10,0,0,0
1750,-7.0,-7.0,61.0,1645450021.28125,P19,D10,0,0,0
1751,-5.0,-6.0,62.0,1645450021.3125,P19,D10,0,0,0
1752,-6.0,-5.0,62.0,1645450021.34375,P19,D10,0,0,0
1753,-9.0,-6.0,61.0,1645450021.375,P19,D10,0,0,0
