,acc_x,acc_y,acc_z,timestamp,participant,document,val,arou,eng
0,-6.0,-5.0,62.0,1645447987.625,P19,D04,0,0,0
1,-6.0,-5.0,62.0,1645447987.65625,P19,D04,0,0,0
2,-7.0,-5.0,62.0,1645447987.6875,P19,D04,0,0,0
3,-6.0,-5.0,62.0,1645447987.71875,P19,D04,0,0,0
4,-6.0,-5.0,62.0,1645447987.75,P19,D04,0,0,0
5,-7.0,-5.0,62.0,1645447987.78125,P19,D04,0,0,0
6,-6.0,-4.0,62.0,1645447987.8125,P19,D04,0,0,0
7,-6.0,-5.0,62.0,1645447987.84375,P19,D04,0,0,0
8,-6.0,-5.0,62.0,1645447987.875,P19,D04,0,0,0
9,-6.0,-5.0,62.0,1645447987.90625,P19,D04,0,0,0
10,-6.0,-5.0,62.0,1645447987.9375,P19,D04,0,0,0
11,-6.0,-5.0,62.0,1645447987.96875,P19,D04,0,0,0
12,-6.0,-5.0,62.0,1645447988.0,P19,D04,0,0,0
13,-6.0,-5.0,62.0,1645447988.03125,P19,D04,0,0,0
14,-6.0,-5.0,62.0,1645447988.0625,P19,D04,0,0,0
15,-6.0,-5.0,62.0,1645447988.09375,P19,D04,0,0,0
16,-6.0,-5.0,62.0,1645447988.125,P19,D04,0,0,0
17,-6.0,-5.0,62.0,1645447988.15625,P19,D04,0,0,0
18,-6.0,-5.0,62.0,1645447988.1875,P19,D04,0,0,0
19,-6.0,-5.0,62.0,1645447988.21875,P19,D04,0,0,0
20,-7.0,-5.0,62.0,1645447988.25,P19,D04,0,0,0
21,-7.0,-5.0,62.0,1645447988.28125,P19,D04,0,0,0
22,-6.0,-5.0,62.0,1645447988.3125,P19,D04,0,0,0
23,-6.0,-5.0,62.0,1645447988.34375,P19,D04,0,0,0
24,-7.0,-5.0,62.0,1645447988.375,P19,D04,0,0,0
25,-7.0,-5.0,62.0,1645447988.40625,P19,D04,0,0,0
26,-6.0,-5.0,62.0,1645447988.4375,P19,D04,0,0,0
27,-5.0,-5.0,62.0,1645447988.46875,P19,D04,0,0,0
28,-6.0,-5.0,62.0,1645447988.5,P19,D04,0,0,0
29,-7.0,-5.0,62.0,1645447988.53125,P19,D04,0,0,0
30,-6.0,-5.0,62.0,1645447988.5625,P19,D04,0,0,0
31,-6.0,-5.0,62.0,1645447988.59375,P19,D04,0,0,0
32,-6.0,-5.0,62.0,1645447988.625,P19,D04,0,0,0
33,-6.0,-5.0,62.0,1645447988.65625,P19,D04,0,0,0
34,-6.0,-5.0,62.0,1645447988.6875,P19,D04,0,0,0
35,-6.0,-5.0,62.0,1645447988.71875,P19,D04,0,0,0
36,-6.0,-5.0,62.0,1645447988.75,P19,D04,0,0,0
37,-7.0,-5.0,62.0,1645447988.78125,P19,D04,0,0,0
38,-6.0,-5.0,62.0,1645447988.8125,P19,D04,0,0,0
39,-6.0,-5.0,62.0,1645447988.84375,P19,D04,0,0,0
40,-6.0,-5.0,62.0,1645447988.875,P19,D04,0,0,0
41,-6.0,-5.0,62.0,1645447988.90625,P19,D04,0,0,0
42,-6.0,-5.0,62.0,1645447988.9375,P19,D04,0,0,0
43,-6.0,-5.0,62.0,1645447988.96875,P19,D04,0,0,0
44,-7.0,-5.0,62.0,1645447989.0,P19,D04,0,0,0
45,-6.0,-5.0,62.0,1645447989.03125,P19,D04,0,0,0
46,-6.0,-5.0,62.0,1645447989.0625,P19,D04,0,0,0
47,-6.0,-5.0,62.0,1645447989.09375,P19,D04,0,0,0
48,-6.0,-5.0,62.0,1645447989.125,P19,D04,0,0,0
49,-6.0,-5.0,62.0,1645447989.15625,P19,D04,0,0,0
50,-7.0,-5.0,62.0,1645447989.1875,P19,D04,0,0,0
51,-6.0,-5.0,62.0,1645447989.21875,P19,D04,0,0,0
52,-6.0,-5.0,62.0,1645447989.25,P19,D04,0,0,0
53,-6.0,-5.0,62.0,1645447989.28125,P19,D04,0,0,0
54,-6.0,-5.0,62.0,1645447989.3125,P19,D04,0,0,0
55,-6.0,-5.0,62.0,1645447989.34375,P19,D04,0,0,0
56,-6.0,-5.0,62.0,1645447989.375,P19,D04,0,0,0
57,-6.0,-5.0,62.0,1645447989.40625,P19,D04,0,0,0
58,-6.0,-5.0,62.0,1645447989.4375,P19,D04,0,0,0
59,-6.0,-5.0,62.0,1645447989.46875,P19,D04,0,0,0
60,-6.0,-5.0,62.0,1645447989.5,P19,D04,0,0,0
61,-6.0,-5.0,62.0,1645447989.53125,P19,D04,0,0,0
62,-6.0,-5.0,62.0,1645447989.5625,P19,D04,0,0,0
63,-7.0,-5.0,62.0,1645447989.59375,P19,D04,0,0,0
64,-7.0,-5.0,62.0,1645447989.625,P19,D04,0,0,0
65,-6.0,-5.0,62.0,1645447989.65625,P19,D04,0,0,0
66,-6.0,-5.0,62.0,1645447989.6875,P19,D04,0,0,0
67,-7.0,-5.0,62.0,1645447989.71875,P19,D04,0,0,0
68,-6.0,-5.0,62.0,1645447989.75,P19,D04,0,0,0
69,-6.0,-5.0,62.0,1645447989.78125,P19,D04,0,0,0
70,-6.0,-5.0,62.0,1645447989.8125,P19,D04,0,0,0
71,-6.0,-5.0,62.0,1645447989.84375,P19,D04,0,0,0
72,-6.0,-5.0,62.0,1645447989.875,P19,D04,0,0,0
73,-6.0,-5.0,62.0,1645447989.90625,P19,D04,0,0,0
74,-6.0,-5.0,62.0,1645447989.9375,P19,D04,0,0,0
75,-7.0,-5.0,62.0,1645447989.96875,P19,D04,0,0,0
76,-7.0,-5.0,62.0,1645447990.0,P19,D04,0,0,0
77,-6.0,-5.0,62.0,1645447990.03125,P19,D04,0,0,0
78,-6.0,-4.0,62.0,1645447990.0625,P19,D04,0,0,0
79,-6.0,-4.0,62.0,1645447990.09375,P19,D04,0,0,0
80,-6.0,-5.0,62.0,1645447990.125,P19,D04,0,0,0
81,-6.0,-5.0,62.0,1645447990.15625,P19,D04,0,0,0
82,-6.0,-5.0,62.0,1645447990.1875,P19,D04,0,0,0
83,-6.0,-5.0,62.0,1645447990.21875,P19,D04,0,0,0
84,-6.0,-5.0,62.0,1645447990.25,P19,D04,0,0,0
85,-6.0,-5.0,62.0,1645447990.28125,P19,D04,0,0,0
86,-6.0,-5.0,62.0,1645447990.3125,P19,D04,0,0,0
87,-7.0,-5.0,62.0,1645447990.34375,P19,D04,0,0,0
88,-7.0,-5.0,62.0,1645447990.375,P19,D04,0,0,0
89,-6.0,-5.0,62.0,1645447990.40625,P19,D04,0,0,0
90,-7.0,-5.0,62.0,1645447990.4375,P19,D04,0,0,0
91,-7.0,-5.0,62.0,1645447990.46875,P19,D04,0,0,0
92,-6.0,-5.0,62.0,1645447990.5,P19,D04,0,0,0
93,-6.0,-5.0,62.0,1645447990.53125,P19,D04,0,0,0
94,-6.0,-5.0,62.0,1645447990.5625,P19,D04,0,0,0
95,-6.0,-5.0,62.0,1645447990.59375,P19,D04,0,0,0
96,-6.0,-5.0,62.0,1645447990.625,P19,D04,0,0,0
97,-6.0,-5.0,62.0,1645447990.65625,P19,D04,0,0,0
98,-6.0,-5.0,62.0,1645447990.6875,P19,D04,0,0,0
99,-6.0,-5.0,62.0,1645447990.71875,P19,D04,0,0,0
100,-7.0,-5.0,62.0,1645447990.75,P19,D04,0,0,0
101,-6.0,-5.0,62.0,1645447990.78125,P19,D04,0,0,0
102,-6.0,-5.0,62.0,1645447990.8125,P19,D04,0,0,0
103,-6.0,-5.0,62.0,1645447990.84375,P19,D04,0,0,0
104,-6.0,-5.0,62.0,1645447990.875,P19,D04,0,0,0
105,-6.0,-5.0,62.0,1645447990.90625,P19,D04,0,0,0
106,-6.0,-5.0,62.0,1645447990.9375,P19,D04,0,0,0
107,-6.0,-5.0,62.0,1645447990.96875,P19,D04,0,0,0
108,-6.0,-5.0,62.0,1645447991.0,P19,D04,0,0,0
109,-6.0,-5.0,62.0,1645447991.03125,P19,D04,0,0,0
110,-6.0,-5.0,62.0,1645447991.0625,P19,D04,0,0,0
111,-6.0,-5.0,62.0,1645447991.09375,P19,D04,0,0,0
112,-6.0,-5.0,62.0,1645447991.125,P19,D04,0,0,0
113,-6.0,-5.0,62.0,1645447991.15625,P19,D04,0,0,0
114,-6.0,-5.0,62.0,1645447991.1875,P19,D04,0,0,0
115,-6.0,-5.0,62.0,1645447991.21875,P19,D04,0,0,0
116,-6.0,-5.0,62.0,1645447991.25,P19,D04,0,0,0
117,-6.0,-5.0,62.0,1645447991.28125,P19,D04,0,0,0
118,-6.0,-5.0,62.0,1645447991.3125,P19,D04,0,0,0
119,-7.0,-5.0,62.0,1645447991.34375,P19,D04,0,0,0
120,-7.0,-5.0,62.0,1645447991.375,P19,D04,0,0,0
121,-6.0,-5.0,62.0,1645447991.40625,P19,D04,0,0,0
122,-6.0,-5.0,62.0,1645447991.4375,P19,D04,0,0,0
123,-7.0,-5.0,62.0,1645447991.46875,P19,D04,0,0,0
124,-6.0,-5.0,62.0,1645447991.5,P19,D04,0,0,0
125,-6.0,-5.0,62.0,1645447991.53125,P19,D04,0,0,0
126,-6.0,-5.0,62.0,1645447991.5625,P19,D04,0,0,0
127,-7.0,-5.0,62.0,1645447991.59375,P19,D04,0,0,0
128,-6.0,-5.0,62.0,1645447991.625,P19,D04,0,0,0
129,-6.0,-5.0,62.0,1645447991.65625,P19,D04,0,0,0
130,-7.0,-5.0,62.0,1645447991.6875,P19,D04,0,0,0
131,-7.0,-5.0,62.0,1645447991.71875,P19,D04,0,0,0
132,-6.0,-5.0,62.0,1645447991.75,P19,D04,0,0,0
133,-6.0,-5.0,62.0,1645447991.78125,P19,D04,0,0,0
134,-7.0,-5.0,62.0,1645447991.8125,P19,D04,0,0,0
135,-6.0,-5.0,62.0,1645447991.84375,P19,D04,0,0,0
136,-6.0,-5.0,62.0,1645447991.875,P19,D04,0,0,0
137,-6.0,-5.0,62.0,1645447991.90625,P19,D04,0,0,0
138,-6.0,-5.0,62.0,1645447991.9375,P19,D04,0,0,0
139,-6.0,-5.0,62.0,1645447991.96875,P19,D04,0,0,0
140,-6.0,-5.0,62.0,1645447992.0,P19,D04,0,0,0
141,-6.0,-5.0,62.0,1645447992.03125,P19,D04,0,0,0
142,-6.0,-5.0,62.0,1645447992.0625,P19,D04,0,0,0
143,-7.0,-5.0,62.0,1645447992.09375,P19,D04,0,0,0
144,-7.0,-5.0,62.0,1645447992.125,P19,D04,0,0,0
145,-6.0,-5.0,62.0,1645447992.15625,P19,D04,0,0,0
146,-6.0,-5.0,62.0,1645447992.1875,P19,D04,0,0,0
147,-7.0,-5.0,62.0,1645447992.21875,P19,D04,0,0,0
148,-7.0,-5.0,62.0,1645447992.25,P19,D04,0,0,0
149,-6.0,-5.0,62.0,1645447992.28125,P19,D04,0,0,0
150,-6.0,-5.0,62.0,1645447992.3125,P19,D04,0,0,0
151,-7.0,-5.0,62.0,1645447992.34375,P19,D04,0,0,0
152,-6.0,-5.0,62.0,1645447992.375,P19,D04,0,0,0
153,-6.0,-5.0,62.0,1645447992.40625,P19,D04,0,0,0
154,-6.0,-5.0,62.0,1645447992.4375,P19,D04,0,0,0
155,-6.0,-5.0,62.0,1645447992.46875,P19,D04,0,0,0
156,-6.0,-5.0,62.0,1645447992.5,P19,D04,0,0,0
157,-7.0,-5.0,62.0,1645447992.53125,P19,D04,0,0,0
158,-6.0,-5.0,62.0,1645447992.5625,P19,D04,0,0,0
159,-6.0,-5.0,62.0,1645447992.59375,P19,D04,0,0,0
160,-6.0,-5.0,62.0,1645447992.625,P19,D04,0,0,0
161,-7.0,-5.0,62.0,1645447992.65625,P19,D04,0,0,0
162,-7.0,-5.0,62.0,1645447992.6875,P19,D04,0,0,0
163,-6.0,-5.0,62.0,1645447992.71875,P19,D04,0,0,0
164,-6.0,-5.0,62.0,1645447992.75,P19,D04,0,0,0
165,-6.0,-5.0,62.0,1645447992.78125,P19,D04,0,0,0
166,-7.0,-5.0,62.0,1645447992.8125,P19,D04,0,0,0
167,-6.0,-5.0,62.0,1645447992.84375,P19,D04,0,0,0
168,-6.0,-5.0,62.0,1645447992.875,P19,D04,0,0,0
169,-6.0,-5.0,62.0,1645447992.90625,P19,D04,0,0,0
170,-6.0,-5.0,62.0,1645447992.9375,P19,D04,0,0,0
171,-7.0,-5.0,62.0,1645447992.96875,P19,D04,0,0,0
172,-6.0,-5.0,62.0,1645447993.0,P19,D04,0,0,0
173,-6.0,-5.0,62.0,1645447993.03125,P19,D04,0,0,0
174,-7.0,-5.0,62.0,1645447993.0625,P19,D04,0,0,0
175,-6.0,-5.0,62.0,1645447993.09375,P19,D04,0,0,0
176,-6.0,-5.0,62.0,1645447993.125,P19,D04,0,0,0
177,-6.0,-5.0,62.0,1645447993.15625,P19,D04,0,0,0
178,-6.0,-5.0,62.0,1645447993.1875,P19,D04,0,0,0
179,-6.0,-5.0,62.0,1645447993.21875,P19,D04,0,0,0
180,-6.0,-5.0,62.0,1645447993.25,P19,D04,0,0,0
181,-6.0,-5.0,62.0,1645447993.28125,P19,D04,0,0,0
182,-6.0,-5.0,62.0,1645447993.3125,P19,D04,0,0,0
183,-6.0,-5.0,62.0,1645447993.34375,P19,D04,0,0,0
184,-6.0,-5.0,62.0,1645447993.375,P19,D04,0,0,0
185,-6.0,-5.0,62.0,1645447993.40625,P19,D04,0,0,0
186,-6.0,-5.0,62.0,1645447993.4375,P19,D04,0,0,0
187,-6.0,-5.0,62.0,1645447993.46875,P19,D04,0,0,0
188,-6.0,-5.0,62.0,1645447993.5,P19,D04,0,0,0
189,-7.0,-5.0,62.0,1645447993.53125,P19,D04,0,0,0
190,-6.0,-5.0,62.0,1645447993.5625,P19,D04,0,0,0
191,-6.0,-5.0,62.0,1645447993.59375,P19,D04,0,0,0
192,-6.0,-5.0,62.0,1645447993.625,P19,D04,0,0,0
193,-7.0,-5.0,62.0,1645447993.65625,P19,D04,0,0,0
194,-6.0,-5.0,62.0,1645447993.6875,P19,D04,0,0,0
195,-6.0,-5.0,62.0,1645447993.71875,P19,D04,0,0,0
196,-6.0,-5.0,62.0,1645447993.75,P19,D04,0,0,0
197,-6.0,-5.0,62.0,1645447993.78125,P19,D04,0,0,0
198,-6.0,-5.0,62.0,1645447993.8125,P19,D04,0,0,0
199,-6.0,-5.0,62.0,1645447993.84375,P19,D04,0,0,0
200,-6.0,-5.0,62.0,1645447993.875,P19,D04,0,0,0
201,-6.0,-5.0,62.0,1645447993.90625,P19,D04,0,0,0
202,-6.0,-5.0,62.0,1645447993.9375,P19,D04,0,0,0
203,-6.0,-5.0,62.0,1645447993.96875,P19,D04,0,0,0
204,-7.0,-5.0,62.0,1645447994.0,P19,D04,0,0,0
205,-6.0,-5.0,62.0,1645447994.03125,P19,D04,0,0,0
206,-6.0,-5.0,62.0,1645447994.0625,P19,D04,0,0,0
207,-6.0,-5.0,62.0,1645447994.09375,P19,D04,0,0,0
208,-7.0,-5.0,62.0,1645447994.125,P19,D04,0,0,0
209,-5.0,-5.0,62.0,1645447994.15625,P19,D04,0,0,0
210,-6.0,-5.0,62.0,1645447994.1875,P19,D04,0,0,0
211,-7.0,-5.0,62.0,1645447994.21875,P19,D04,0,0,0
212,-6.0,-5.0,62.0,1645447994.25,P19,D04,0,0,0
213,-6.0,-5.0,62.0,1645447994.28125,P19,D04,0,0,0
214,-6.0,-5.0,62.0,1645447994.3125,P19,D04,0,0,0
215,-6.0,-5.0,62.0,1645447994.34375,P19,D04,0,0,0
216,-6.0,-5.0,62.0,1645447994.375,P19,D04,0,0,0
217,-6.0,-5.0,62.0,1645447994.40625,P19,D04,0,0,0
218,-6.0,-5.0,62.0,1645447994.4375,P19,D04,0,0,0
219,-6.0,-5.0,62.0,1645447994.46875,P19,D04,0,0,0
220,-6.0,-5.0,62.0,1645447994.5,P19,D04,0,0,0
221,-7.0,-5.0,62.0,1645447994.53125,P19,D04,0,0,0
222,-6.0,-5.0,62.0,1645447994.5625,P19,D04,0,0,0
223,-6.0,-5.0,62.0,1645447994.59375,P19,D04,0,0,0
224,-6.0,-5.0,62.0,1645447994.625,P19,D04,0,0,0
225,-6.0,-5.0,62.0,1645447994.65625,P19,D04,0,0,0
226,-6.0,-5.0,62.0,1645447994.6875,P19,D04,0,0,0
227,-6.0,-5.0,62.0,1645447994.71875,P19,D04,0,0,0
228,-6.0,-5.0,62.0,1645447994.75,P19,D04,0,0,0
229,-7.0,-5.0,62.0,1645447994.78125,P19,D04,0,0,0
230,-6.0,-5.0,62.0,1645447994.8125,P19,D04,0,0,0
231,-6.0,-5.0,62.0,1645447994.84375,P19,D04,0,0,0
232,-6.0,-5.0,62.0,1645447994.875,P19,D04,0,0,0
233,-7.0,-5.0,62.0,1645447994.90625,P19,D04,0,0,0
234,-7.0,-5.0,62.0,1645447994.9375,P19,D04,0,0,0
235,-6.0,-5.0,62.0,1645447994.96875,P19,D04,0,0,0
236,-5.0,-5.0,62.0,1645447995.0,P19,D04,0,0,0
237,-7.0,-5.0,62.0,1645447995.03125,P19,D04,0,0,0
238,-7.0,-5.0,62.0,1645447995.0625,P19,D04,0,0,0
239,-6.0,-5.0,62.0,1645447995.09375,P19,D04,0,0,0
240,-6.0,-5.0,62.0,1645447995.125,P19,D04,0,0,0
241,-6.0,-5.0,62.0,1645447995.15625,P19,D04,0,0,0
242,-6.0,-5.0,62.0,1645447995.1875,P19,D04,0,0,0
243,-6.0,-5.0,62.0,1645447995.21875,P19,D04,0,0,0
244,-6.0,-5.0,62.0,1645447995.25,P19,D04,0,0,0
245,-7.0,-5.0,62.0,1645447995.28125,P19,D04,0,0,0
246,-6.0,-4.0,62.0,1645447995.3125,P19,D04,0,0,0
247,-6.0,-5.0,62.0,1645447995.34375,P19,D04,0,0,0
248,-8.0,-5.0,62.0,1645447995.375,P19,D04,0,0,0
249,-7.0,-5.0,62.0,1645447995.40625,P19,D04,0,0,0
250,-6.0,-5.0,62.0,1645447995.4375,P19,D04,0,0,0
251,-7.0,-5.0,62.0,1645447995.46875,P19,D04,0,0,0
252,-6.0,-5.0,62.0,1645447995.5,P19,D04,0,0,0
253,-6.0,-5.0,62.0,1645447995.53125,P19,D04,0,0,0
254,-6.0,-5.0,62.0,1645447995.5625,P19,D04,0,0,0
255,-7.0,-5.0,62.0,1645447995.59375,P19,D04,0,0,0
256,-7.0,-5.0,62.0,1645447995.625,P19,D04,0,0,0
257,-6.0,-5.0,62.0,1645447995.65625,P19,D04,0,0,0
258,-6.0,-5.0,62.0,1645447995.6875,P19,D04,0,0,0
259,-7.0,-5.0,62.0,1645447995.71875,P19,D04,0,0,0
260,-7.0,-5.0,62.0,1645447995.75,P19,D04,0,0,0
261,-6.0,-5.0,62.0,1645447995.78125,P19,D04,0,0,0
262,-7.0,-5.0,62.0,1645447995.8125,P19,D04,0,0,0
263,-7.0,-5.0,62.0,1645447995.84375,P19,D04,0,0,0
264,-6.0,-5.0,62.0,1645447995.875,P19,D04,0,0,0
265,-6.0,-5.0,62.0,1645447995.90625,P19,D04,0,0,0
266,-7.0,-5.0,62.0,1645447995.9375,P19,D04,0,0,0
267,-7.0,-5.0,62.0,1645447995.96875,P19,D04,0,0,0
268,-7.0,-5.0,62.0,1645447996.0,P19,D04,0,0,0
269,-7.0,-5.0,62.0,1645447996.03125,P19,D04,0,0,0
270,-7.0,-5.0,62.0,1645447996.0625,P19,D04,0,0,0
271,-6.0,-5.0,62.0,1645447996.09375,P19,D04,0,0,0
272,-7.0,-5.0,62.0,1645447996.125,P19,D04,0,0,0
273,-7.0,-5.0,62.0,1645447996.15625,P19,D04,0,0,0
274,-7.0,-5.0,62.0,1645447996.1875,P19,D04,0,0,0
275,-7.0,-5.0,62.0,1645447996.21875,P19,D04,0,0,0
276,-7.0,-5.0,62.0,1645447996.25,P19,D04,0,0,0
277,-7.0,-5.0,62.0,1645447996.28125,P19,D04,0,0,0
278,-7.0,-5.0,62.0,1645447996.3125,P19,D04,0,0,0
279,-6.0,-5.0,62.0,1645447996.34375,P19,D04,0,0,0
280,-6.0,-5.0,62.0,1645447996.375,P19,D04,0,0,0
281,-7.0,-5.0,62.0,1645447996.40625,P19,D04,0,0,0
282,-7.0,-5.0,62.0,1645447996.4375,P19,D04,0,0,0
283,-6.0,-5.0,62.0,1645447996.46875,P19,D04,0,0,0
284,-6.0,-5.0,62.0,1645447996.5,P19,D04,0,0,0
285,-7.0,-5.0,62.0,1645447996.53125,P19,D04,0,0,0
286,-7.0,-5.0,62.0,1645447996.5625,P19,D04,0,0,0
287,-6.0,-5.0,62.0,1645447996.59375,P19,D04,0,0,0
288,-6.0,-5.0,62.0,1645447996.625,P19,D04,0,0,0
289,-6.0,-5.0,62.0,1645447996.65625,P19,D04,0,0,0
290,-7.0,-5.0,62.0,1645447996.6875,P19,D04,0,0,0
291,-7.0,-5.0,62.0,1645447996.71875,P19,D04,0,0,0
292,-6.0,-5.0,62.0,1645447996.75,P19,D04,0,0,0
293,-6.0,-5.0,62.0,1645447996.78125,P19,D04,0,0,0
294,-7.0,-5.0,62.0,1645447996.8125,P19,D04,0,0,0
295,-7.0,-5.0,62.0,1645447996.84375,P19,D04,0,0,0
296,-7.0,-5.0,62.0,1645447996.875,P19,D04,0,0,0
297,-7.0,-5.0,62.0,1645447996.90625,P19,D04,0,0,0
298,-7.0,-5.0,62.0,1645447996.9375,P19,D04,0,0,0
299,-7.0,-5.0,62.0,1645447996.96875,P19,D04,0,0,0
300,-7.0,-5.0,62.0,1645447997.0,P19,D04,0,0,0
301,-6.0,-5.0,62.0,1645447997.03125,P19,D04,0,0,0
302,-6.0,-5.0,62.0,1645447997.0625,P19,D04,0,0,0
303,-6.0,-5.0,62.0,1645447997.09375,P19,D04,0,0,0
304,-7.0,-5.0,62.0,1645447997.125,P19,D04,0,0,0
305,-6.0,-5.0,62.0,1645447997.15625,P19,D04,0,0,0
306,-6.0,-5.0,62.0,1645447997.1875,P19,D04,0,0,0
307,-7.0,-5.0,62.0,1645447997.21875,P19,D04,0,0,0
308,-7.0,-5.0,62.0,1645447997.25,P19,D04,0,0,0
309,-6.0,-5.0,62.0,1645447997.28125,P19,D04,0,0,0
310,-7.0,-5.0,62.0,1645447997.3125,P19,D04,0,0,0
311,-7.0,-5.0,62.0,1645447997.34375,P19,D04,0,0,0
312,-6.0,-5.0,62.0,1645447997.375,P19,D04,0,0,0
313,-6.0,-5.0,62.0,1645447997.40625,P19,D04,0,0,0
314,-7.0,-5.0,62.0,1645447997.4375,P19,D04,0,0,0
315,-6.0,-5.0,62.0,1645447997.46875,P19,D04,0,0,0
316,-6.0,-5.0,62.0,1645447997.5,P19,D04,0,0,0
317,-6.0,-5.0,62.0,1645447997.53125,P19,D04,0,0,0
318,-7.0,-5.0,62.0,1645447997.5625,P19,D04,0,0,0
319,-6.0,-5.0,62.0,1645447997.59375,P19,D04,0,0,0
320,-6.0,-5.0,62.0,1645447997.625,P19,D04,0,0,0
321,-7.0,-5.0,62.0,1645447997.65625,P19,D04,0,0,0
322,-7.0,-5.0,62.0,1645447997.6875,P19,D04,0,0,0
323,-6.0,-5.0,62.0,1645447997.71875,P19,D04,0,0,0
324,-6.0,-5.0,62.0,1645447997.75,P19,D04,0,0,0
325,-7.0,-5.0,62.0,1645447997.78125,P19,D04,0,0,0
326,-7.0,-5.0,62.0,1645447997.8125,P19,D04,0,0,0
327,-7.0,-5.0,62.0,1645447997.84375,P19,D04,0,0,0
328,-6.0,-5.0,62.0,1645447997.875,P19,D04,0,0,0
329,-7.0,-5.0,62.0,1645447997.90625,P19,D04,0,0,0
330,-7.0,-5.0,62.0,1645447997.9375,P19,D04,0,0,0
331,-7.0,-5.0,62.0,1645447997.96875,P19,D04,0,0,0
332,-7.0,-5.0,62.0,1645447998.0,P19,D04,0,0,0
333,-6.0,-5.0,62.0,1645447998.03125,P19,D04,0,0,0
334,-7.0,-5.0,62.0,1645447998.0625,P19,D04,0,0,0
335,-7.0,-5.0,62.0,1645447998.09375,P19,D04,0,0,0
336,-6.0,-5.0,62.0,1645447998.125,P19,D04,0,0,0
337,-6.0,-5.0,62.0,1645447998.15625,P19,D04,0,0,0
338,-7.0,-5.0,62.0,1645447998.1875,P19,D04,0,0,0
339,-7.0,-5.0,62.0,1645447998.21875,P19,D04,0,0,0
340,-7.0,-5.0,62.0,1645447998.25,P19,D04,0,0,0
341,-6.0,-5.0,62.0,1645447998.28125,P19,D04,0,0,0
342,-7.0,-5.0,62.0,1645447998.3125,P19,D04,0,0,0
343,-7.0,-5.0,62.0,1645447998.34375,P19,D04,0,0,0
344,-7.0,-5.0,62.0,1645447998.375,P19,D04,0,0,0
345,-6.0,-5.0,62.0,1645447998.40625,P19,D04,0,0,0
346,-7.0,-5.0,62.0,1645447998.4375,P19,D04,0,0,0
347,-6.0,-5.0,62.0,1645447998.46875,P19,D04,0,0,0
348,-6.0,-5.0,62.0,1645447998.5,P19,D04,0,0,0
349,-7.0,-5.0,62.0,1645447998.53125,P19,D04,0,0,0
350,-7.0,-5.0,62.0,1645447998.5625,P19,D04,0,0,0
351,-6.0,-5.0,62.0,1645447998.59375,P19,D04,0,0,0
352,-6.0,-5.0,62.0,1645447998.625,P19,D04,0,0,0
353,-7.0,-5.0,62.0,1645447998.65625,P19,D04,0,0,0
354,-6.0,-5.0,62.0,1645447998.6875,P19,D04,0,0,0
355,-6.0,-5.0,62.0,1645447998.71875,P19,D04,0,0,0
356,-7.0,-5.0,62.0,1645447998.75,P19,D04,0,0,0
357,-7.0,-5.0,62.0,1645447998.78125,P19,D04,0,0,0
358,-6.0,-5.0,62.0,1645447998.8125,P19,D04,0,0,0
359,-6.0,-5.0,62.0,1645447998.84375,P19,D04,0,0,0
360,-7.0,-5.0,62.0,1645447998.875,P19,D04,0,0,0
361,-7.0,-5.0,62.0,1645447998.90625,P19,D04,0,0,0
362,-6.0,-5.0,62.0,1645447998.9375,P19,D04,0,0,0
363,-7.0,-5.0,62.0,1645447998.96875,P19,D04,0,0,0
364,-7.0,-5.0,62.0,1645447999.0,P19,D04,0,0,0
365,-6.0,-5.0,62.0,1645447999.03125,P19,D04,0,0,0
366,-7.0,-5.0,62.0,1645447999.0625,P19,D04,0,0,0
367,-7.0,-5.0,62.0,1645447999.09375,P19,D04,0,0,0
368,-6.0,-5.0,62.0,1645447999.125,P19,D04,0,0,0
369,-6.0,-5.0,62.0,1645447999.15625,P19,D04,0,0,0
370,-6.0,-5.0,62.0,1645447999.1875,P19,D04,0,0,0
371,-6.0,-5.0,62.0,1645447999.21875,P19,D04,0,0,0
372,-7.0,-5.0,62.0,1645447999.25,P19,D04,0,0,0
373,-6.0,-5.0,62.0,1645447999.28125,P19,D04,0,0,0
374,-6.0,-5.0,62.0,1645447999.3125,P19,D04,0,0,0
375,-7.0,-5.0,62.0,1645447999.34375,P19,D04,0,0,0
376,-7.0,-5.0,62.0,1645447999.375,P19,D04,0,0,0
377,-6.0,-5.0,62.0,1645447999.40625,P19,D04,0,0,0
378,-6.0,-5.0,62.0,1645447999.4375,P19,D04,0,0,0
379,-6.0,-5.0,62.0,1645447999.46875,P19,D04,0,0,0
380,-6.0,-5.0,62.0,1645447999.5,P19,D04,0,0,0
381,-6.0,-5.0,62.0,1645447999.53125,P19,D04,0,0,0
382,-7.0,-5.0,62.0,1645447999.5625,P19,D04,0,0,0
383,-7.0,-5.0,62.0,1645447999.59375,P19,D04,0,0,0
384,-6.0,-5.0,62.0,1645447999.625,P19,D04,0,0,0
385,-7.0,-5.0,62.0,1645447999.65625,P19,D04,0,0,0
386,-6.0,-5.0,62.0,1645447999.6875,P19,D04,0,0,0
387,-6.0,-5.0,62.0,1645447999.71875,P19,D04,0,0,0
388,-7.0,-5.0,62.0,1645447999.75,P19,D04,0,0,0
389,-6.0,-5.0,62.0,1645447999.78125,P19,D04,0,0,0
390,-6.0,-5.0,62.0,1645447999.8125,P19,D04,0,0,0
391,-7.0,-5.0,62.0,1645447999.84375,P19,D04,0,0,0
392,-7.0,-5.0,62.0,1645447999.875,P19,D04,0,0,0
393,-6.0,-5.0,62.0,1645447999.90625,P19,D04,0,0,0
394,-6.0,-5.0,62.0,1645447999.9375,P19,D04,0,0,0
395,-7.0,-5.0,62.0,1645447999.96875,P19,D04,0,0,0
396,-6.0,-5.0,62.0,1645448000.0,P19,D04,0,0,0
397,-6.0,-5.0,62.0,1645448000.03125,P19,D04,0,0,0
398,-6.0,-5.0,62.0,1645448000.0625,P19,D04,0,0,0
399,-6.0,-5.0,62.0,1645448000.09375,P19,D04,0,0,0
400,-6.0,-5.0,62.0,1645448000.125,P19,D04,0,0,0
401,-6.0,-5.0,62.0,1645448000.15625,P19,D04,0,0,0
402,-5.0,-5.0,62.0,1645448000.1875,P19,D04,0,0,0
403,-6.0,-6.0,62.0,1645448000.21875,P19,D04,0,0,0
404,-6.0,-5.0,62.0,1645448000.25,P19,D04,0,0,0
405,-5.0,-5.0,62.0,1645448000.28125,P19,D04,0,0,0
406,-6.0,-5.0,62.0,1645448000.3125,P19,D04,0,0,0
407,-6.0,-5.0,62.0,1645448000.34375,P19,D04,0,0,0
408,-6.0,-5.0,62.0,1645448000.375,P19,D04,0,0,0
409,-7.0,-5.0,62.0,1645448000.40625,P19,D04,0,0,0
410,-6.0,-5.0,62.0,1645448000.4375,P19,D04,0,0,0
411,-6.0,-5.0,62.0,1645448000.46875,P19,D04,0,0,0
412,-6.0,-5.0,62.0,1645448000.5,P19,D04,0,0,0
413,-6.0,-5.0,62.0,1645448000.53125,P19,D04,0,0,0
414,-6.0,-5.0,62.0,1645448000.5625,P19,D04,0,0,0
415,-6.0,-5.0,62.0,1645448000.59375,P19,D04,0,0,0
416,-6.0,-5.0,62.0,1645448000.625,P19,D04,0,0,0
417,-6.0,-5.0,62.0,1645448000.65625,P19,D04,0,0,0
418,-5.0,-5.0,62.0,1645448000.6875,P19,D04,0,0,0
419,-7.0,-5.0,62.0,1645448000.71875,P19,D04,0,0,0
420,-6.0,-5.0,62.0,1645448000.75,P19,D04,0,0,0
421,-6.0,-5.0,62.0,1645448000.78125,P19,D04,0,0,0
422,-6.0,-5.0,62.0,1645448000.8125,P19,D04,0,0,0
423,-7.0,-5.0,62.0,1645448000.84375,P19,D04,0,0,0
424,-6.0,-5.0,62.0,1645448000.875,P19,D04,0,0,0
425,-6.0,-5.0,62.0,1645448000.90625,P19,D04,0,0,0
426,-7.0,-5.0,62.0,1645448000.9375,P19,D04,0,0,0
427,-6.0,-5.0,62.0,1645448000.96875,P19,D04,0,0,0
428,-6.0,-5.0,62.0,1645448001.0,P19,D04,0,0,0
429,-6.0,-5.0,62.0,1645448001.03125,P19,D04,0,0,0
430,-6.0,-5.0,62.0,1645448001.0625,P19,D04,0,0,0
431,-6.0,-5.0,62.0,1645448001.09375,P19,D04,0,0,0
432,-6.0,-5.0,62.0,1645448001.125,P19,D04,0,0,0
433,-6.0,-5.0,62.0,1645448001.15625,P19,D04,0,0,0
434,-7.0,-5.0,62.0,1645448001.1875,P19,D04,0,0,0
435,-6.0,-5.0,62.0,1645448001.21875,P19,D04,0,0,0
436,-6.0,-5.0,62.0,1645448001.25,P19,D04,0,0,0
437,-6.0,-5.0,62.0,1645448001.28125,P19,D04,0,0,0
438,-7.0,-5.0,62.0,1645448001.3125,P19,D04,0,0,0
439,-6.0,-5.0,62.0,1645448001.34375,P19,D04,0,0,0
440,-6.0,-5.0,62.0,1645448001.375,P19,D04,0,0,0
441,-6.0,-5.0,62.0,1645448001.40625,P19,D04,0,0,0
442,-8.0,-5.0,62.0,1645448001.4375,P19,D04,0,0,0
443,-6.0,-5.0,62.0,1645448001.46875,P19,D04,0,0,0
444,-5.0,-5.0,62.0,1645448001.5,P19,D04,0,0,0
445,-7.0,-5.0,62.0,1645448001.53125,P19,D04,0,0,0
446,-7.0,-5.0,62.0,1645448001.5625,P19,D04,0,0,0
447,-6.0,-5.0,62.0,1645448001.59375,P19,D04,0,0,0
448,-6.0,-5.0,62.0,1645448001.625,P19,D04,0,0,0
449,-6.0,-5.0,62.0,1645448001.65625,P19,D04,0,0,0
450,-7.0,-5.0,62.0,1645448001.6875,P19,D04,0,0,0
451,-7.0,-5.0,62.0,1645448001.71875,P19,D04,0,0,0
452,-6.0,-5.0,62.0,1645448001.75,P19,D04,0,0,0
453,-6.0,-5.0,62.0,1645448001.78125,P19,D04,0,0,0
454,-7.0,-5.0,62.0,1645448001.8125,P19,D04,0,0,0
455,-7.0,-5.0,62.0,1645448001.84375,P19,D04,0,0,0
456,-6.0,-5.0,62.0,1645448001.875,P19,D04,0,0,0
457,-6.0,-5.0,62.0,1645448001.90625,P19,D04,0,0,0
458,-6.0,-5.0,62.0,1645448001.9375,P19,D04,0,0,0
459,-7.0,-5.0,62.0,1645448001.96875,P19,D04,0,0,0
460,-7.0,-5.0,62.0,1645448002.0,P19,D04,0,0,0
461,-6.0,-5.0,62.0,1645448002.03125,P19,D04,0,0,0
462,-6.0,-5.0,62.0,1645448002.0625,P19,D04,0,0,0
463,-7.0,-5.0,62.0,1645448002.09375,P19,D04,0,0,0
464,-7.0,-5.0,62.0,1645448002.125,P19,D04,0,0,0
465,-6.0,-5.0,62.0,1645448002.15625,P19,D04,0,0,0
466,-6.0,-5.0,62.0,1645448002.1875,P19,D04,0,0,0
467,-7.0,-5.0,62.0,1645448002.21875,P19,D04,0,0,0
468,-6.0,-5.0,62.0,1645448002.25,P19,D04,0,0,0
469,-6.0,-5.0,62.0,1645448002.28125,P19,D04,0,0,0
470,-6.0,-5.0,62.0,1645448002.3125,P19,D04,0,0,0
471,-6.0,-5.0,62.0,1645448002.34375,P19,D04,0,0,0
472,-6.0,-5.0,62.0,1645448002.375,P19,D04,0,0,0
473,-7.0,-5.0,62.0,1645448002.40625,P19,D04,0,0,0
474,-6.0,-5.0,62.0,1645448002.4375,P19,D04,0,0,0
475,-6.0,-5.0,62.0,1645448002.46875,P19,D04,0,0,0
476,-7.0,-5.0,62.0,1645448002.5,P19,D04,0,0,0
477,-6.0,-5.0,62.0,1645448002.53125,P19,D04,0,0,0
478,-6.0,-5.0,62.0,1645448002.5625,P19,D04,0,0,0
479,-7.0,-5.0,62.0,1645448002.59375,P19,D04,0,0,0
480,-6.0,-5.0,62.0,1645448002.625,P19,D04,0,0,0
481,-6.0,-5.0,62.0,1645448002.65625,P19,D04,0,0,0
482,-6.0,-5.0,62.0,1645448002.6875,P19,D04,0,0,0
483,-7.0,-5.0,62.0,1645448002.71875,P19,D04,0,0,0
484,-6.0,-5.0,62.0,1645448002.75,P19,D04,0,0,0
485,-7.0,-5.0,62.0,1645448002.78125,P19,D04,0,0,0
486,-6.0,-5.0,62.0,1645448002.8125,P19,D04,0,0,0
487,-6.0,-5.0,62.0,1645448002.84375,P19,D04,0,0,0
488,-6.0,-5.0,61.0,1645448002.875,P19,D04,0,0,0
489,-6.0,-5.0,62.0,1645448002.90625,P19,D04,0,0,0
490,-6.0,-5.0,62.0,1645448002.9375,P19,D04,0,0,0
491,-7.0,-5.0,62.0,1645448002.96875,P19,D04,0,0,0
492,-7.0,-5.0,62.0,1645448003.0,P19,D04,0,0,0
493,-7.0,-5.0,62.0,1645448003.03125,P19,D04,0,0,0
494,-6.0,-5.0,62.0,1645448003.0625,P19,D04,0,0,0
495,-6.0,-5.0,62.0,1645448003.09375,P19,D04,0,0,0
496,-6.0,-5.0,62.0,1645448003.125,P19,D04,0,0,0
497,-6.0,-5.0,62.0,1645448003.15625,P19,D04,0,0,0
498,-6.0,-5.0,62.0,1645448003.1875,P19,D04,0,0,0
499,-6.0,-5.0,62.0,1645448003.21875,P19,D04,0,0,0
500,-6.0,-5.0,62.0,1645448003.25,P19,D04,0,0,0
501,-6.0,-5.0,62.0,1645448003.28125,P19,D04,0,0,0
502,-6.0,-5.0,62.0,1645448003.3125,P19,D04,0,0,0
503,-6.0,-5.0,62.0,1645448003.34375,P19,D04,0,0,0
504,-6.0,-5.0,62.0,1645448003.375,P19,D04,0,0,0
505,-6.0,-5.0,62.0,1645448003.40625,P19,D04,0,0,0
506,-6.0,-5.0,62.0,1645448003.4375,P19,D04,0,0,0
507,-6.0,-5.0,62.0,1645448003.46875,P19,D04,0,0,0
508,-6.0,-5.0,62.0,1645448003.5,P19,D04,0,0,0
509,-6.0,-5.0,62.0,1645448003.53125,P19,D04,0,0,0
510,-6.0,-5.0,62.0,1645448003.5625,P19,D04,0,0,0
511,-6.0,-5.0,62.0,1645448003.59375,P19,D04,0,0,0
512,-6.0,-5.0,62.0,1645448003.625,P19,D04,0,0,0
513,-6.0,-5.0,62.0,1645448003.65625,P19,D04,0,0,0
514,-6.0,-5.0,62.0,1645448003.6875,P19,D04,0,0,0
515,-6.0,-5.0,62.0,1645448003.71875,P19,D04,0,0,0
516,-6.0,-5.0,62.0,1645448003.75,P19,D04,0,0,0
517,-6.0,-5.0,62.0,1645448003.78125,P19,D04,0,0,0
518,-6.0,-5.0,62.0,1645448003.8125,P19,D04,0,0,0
519,-6.0,-5.0,62.0,1645448003.84375,P19,D04,0,0,0
520,-6.0,-5.0,62.0,1645448003.875,P19,D04,0,0,0
521,-6.0,-5.0,62.0,1645448003.90625,P19,D04,0,0,0
522,-6.0,-5.0,62.0,1645448003.9375,P19,D04,0,0,0
523,-6.0,-5.0,62.0,1645448003.96875,P19,D04,0,0,0
524,-6.0,-5.0,62.0,1645448004.0,P19,D04,0,0,0
525,-6.0,-5.0,62.0,1645448004.03125,P19,D04,0,0,0
526,-6.0,-5.0,62.0,1645448004.0625,P19,D04,0,0,0
527,-6.0,-5.0,62.0,1645448004.09375,P19,D04,0,0,0
528,-6.0,-5.0,62.0,1645448004.125,P19,D04,0,0,0
529,-7.0,-5.0,62.0,1645448004.15625,P19,D04,0,0,0
530,-6.0,-5.0,62.0,1645448004.1875,P19,D04,0,0,0
531,-6.0,-5.0,62.0,1645448004.21875,P19,D04,0,0,0
532,-6.0,-5.0,62.0,1645448004.25,P19,D04,0,0,0
533,-6.0,-5.0,62.0,1645448004.28125,P19,D04,0,0,0
534,-6.0,-5.0,62.0,1645448004.3125,P19,D04,0,0,0
535,-6.0,-5.0,62.0,1645448004.34375,P19,D04,0,0,0
536,-6.0,-5.0,62.0,1645448004.375,P19,D04,0,0,0
537,-6.0,-5.0,62.0,1645448004.40625,P19,D04,0,0,0
538,-6.0,-5.0,62.0,1645448004.4375,P19,D04,0,0,0
539,-6.0,-5.0,62.0,1645448004.46875,P19,D04,0,0,0
540,-6.0,-5.0,62.0,1645448004.5,P19,D04,0,0,0
541,-6.0,-5.0,62.0,1645448004.53125,P19,D04,0,0,0
542,-6.0,-5.0,62.0,1645448004.5625,P19,D04,0,0,0
543,-6.0,-5.0,62.0,1645448004.59375,P19,D04,0,0,0
544,-6.0,-5.0,62.0,1645448004.625,P19,D04,0,0,0
545,-6.0,-5.0,62.0,1645448004.65625,P19,D04,0,0,0
546,-7.0,-5.0,62.0,1645448004.6875,P19,D04,0,0,0
547,-6.0,-5.0,62.0,1645448004.71875,P19,D04,0,0,0
548,-6.0,-5.0,62.0,1645448004.75,P19,D04,0,0,0
549,-7.0,-5.0,62.0,1645448004.78125,P19,D04,0,0,0
550,-6.0,-5.0,62.0,1645448004.8125,P19,D04,0,0,0
551,-6.0,-5.0,62.0,1645448004.84375,P19,D04,0,0,0
552,-6.0,-5.0,62.0,1645448004.875,P19,D04,0,0,0
553,-6.0,-5.0,62.0,1645448004.90625,P19,D04,0,0,0
554,-6.0,-5.0,62.0,1645448004.9375,P19,D04,0,0,0
555,-6.0,-5.0,62.0,1645448004.96875,P19,D04,0,0,0
556,-6.0,-5.0,62.0,1645448005.0,P19,D04,0,0,0
557,-6.0,-5.0,62.0,1645448005.03125,P19,D04,0,0,0
558,-6.0,-5.0,62.0,1645448005.0625,P19,D04,0,0,0
559,-6.0,-5.0,62.0,1645448005.09375,P19,D04,0,0,0
560,-6.0,-5.0,62.0,1645448005.125,P19,D04,0,0,0
561,-6.0,-5.0,62.0,1645448005.15625,P19,D04,0,0,0
562,-6.0,-5.0,62.0,1645448005.1875,P19,D04,0,0,0
563,-6.0,-5.0,62.0,1645448005.21875,P19,D04,0,0,0
564,-6.0,-5.0,62.0,1645448005.25,P19,D04,0,0,0
565,-6.0,-5.0,62.0,1645448005.28125,P19,D04,0,0,0
566,-6.0,-5.0,62.0,1645448005.3125,P19,D04,0,0,0
567,-6.0,-5.0,62.0,1645448005.34375,P19,D04,0,0,0
568,-6.0,-5.0,62.0,1645448005.375,P19,D04,0,0,0
569,-6.0,-5.0,62.0,1645448005.40625,P19,D04,0,0,0
570,-6.0,-5.0,62.0,1645448005.4375,P19,D04,0,0,0
571,-6.0,-5.0,62.0,1645448005.46875,P19,D04,0,0,0
572,-6.0,-5.0,62.0,1645448005.5,P19,D04,0,0,0
573,-6.0,-5.0,62.0,1645448005.53125,P19,D04,0,0,0
574,-6.0,-5.0,62.0,1645448005.5625,P19,D04,0,0,0
575,-6.0,-5.0,62.0,1645448005.59375,P19,D04,0,0,0
576,-7.0,-5.0,62.0,1645448005.625,P19,D04,0,0,0
577,-6.0,-5.0,62.0,1645448005.65625,P19,D04,0,0,0
578,-6.0,-5.0,62.0,1645448005.6875,P19,D04,0,0,0
579,-6.0,-5.0,62.0,1645448005.71875,P19,D04,0,0,0
580,-6.0,-5.0,62.0,1645448005.75,P19,D04,0,0,0
581,-6.0,-5.0,62.0,1645448005.78125,P19,D04,0,0,0
582,-6.0,-5.0,62.0,1645448005.8125,P19,D04,0,0,0
583,-6.0,-5.0,62.0,1645448005.84375,P19,D04,0,0,0
584,-6.0,-5.0,62.0,1645448005.875,P19,D04,0,0,0
585,-6.0,-5.0,62.0,1645448005.90625,P19,D04,0,0,0
586,-6.0,-5.0,62.0,1645448005.9375,P19,D04,0,0,0
587,-6.0,-5.0,62.0,1645448005.96875,P19,D04,0,0,0
588,-7.0,-5.0,62.0,1645448006.0,P19,D04,0,0,0
589,-7.0,-5.0,62.0,1645448006.03125,P19,D04,0,0,0
590,-6.0,-5.0,62.0,1645448006.0625,P19,D04,0,0,0
591,-6.0,-5.0,62.0,1645448006.09375,P19,D04,0,0,0
592,-7.0,-5.0,62.0,1645448006.125,P19,D04,0,0,0
593,-6.0,-5.0,62.0,1645448006.15625,P19,D04,0,0,0
594,-6.0,-5.0,62.0,1645448006.1875,P19,D04,0,0,0
595,-6.0,-5.0,62.0,1645448006.21875,P19,D04,0,0,0
596,-6.0,-5.0,62.0,1645448006.25,P19,D04,0,0,0
597,-6.0,-5.0,62.0,1645448006.28125,P19,D04,0,0,0
598,-6.0,-5.0,62.0,1645448006.3125,P19,D04,0,0,0
599,-6.0,-5.0,62.0,1645448006.34375,P19,D04,0,0,0
600,-5.0,-5.0,62.0,1645448006.375,P19,D04,0,0,0
601,-6.0,-5.0,62.0,1645448006.40625,P19,D04,0,0,0
602,-6.0,-5.0,62.0,1645448006.4375,P19,D04,0,0,0
603,-7.0,-5.0,62.0,1645448006.46875,P19,D04,0,0,0
604,-6.0,-5.0,62.0,1645448006.5,P19,D04,0,0,0
605,-6.0,-5.0,62.0,1645448006.53125,P19,D04,0,0,0
606,-7.0,-5.0,62.0,1645448006.5625,P19,D04,0,0,0
607,-6.0,-5.0,62.0,1645448006.59375,P19,D04,0,0,0
608,-6.0,-5.0,62.0,1645448006.625,P19,D04,0,0,0
609,-7.0,-5.0,62.0,1645448006.65625,P19,D04,0,0,0
610,-6.0,-5.0,62.0,1645448006.6875,P19,D04,0,0,0
611,-6.0,-5.0,62.0,1645448006.71875,P19,D04,0,0,0
612,-6.0,-5.0,62.0,1645448006.75,P19,D04,0,0,0
613,-6.0,-5.0,62.0,1645448006.78125,P19,D04,0,0,0
614,-6.0,-5.0,62.0,1645448006.8125,P19,D04,0,0,0
615,-6.0,-5.0,62.0,1645448006.84375,P19,D04,0,0,0
616,-6.0,-5.0,62.0,1645448006.875,P19,D04,0,0,0
617,-6.0,-5.0,62.0,1645448006.90625,P19,D04,0,0,0
618,-6.0,-5.0,62.0,1645448006.9375,P19,D04,0,0,0
619,-6.0,-5.0,62.0,1645448006.96875,P19,D04,0,0,0
620,-6.0,-5.0,62.0,1645448007.0,P19,D04,0,0,0
621,-6.0,-5.0,62.0,1645448007.03125,P19,D04,0,0,0
622,-6.0,-5.0,62.0,1645448007.0625,P19,D04,0,0,0
623,-6.0,-5.0,62.0,1645448007.09375,P19,D04,0,0,0
624,-6.0,-5.0,62.0,1645448007.125,P19,D04,0,0,0
625,-6.0,-5.0,62.0,1645448007.15625,P19,D04,0,0,0
626,-6.0,-5.0,62.0,1645448007.1875,P19,D04,0,0,0
627,-6.0,-5.0,62.0,1645448007.21875,P19,D04,0,0,0
628,-6.0,-5.0,62.0,1645448007.25,P19,D04,0,0,0
629,-6.0,-5.0,62.0,1645448007.28125,P19,D04,0,0,0
630,-6.0,-5.0,62.0,1645448007.3125,P19,D04,0,0,0
631,-6.0,-5.0,62.0,1645448007.34375,P19,D04,0,0,0
632,-6.0,-5.0,62.0,1645448007.375,P19,D04,0,0,0
633,-6.0,-5.0,62.0,1645448007.40625,P19,D04,0,0,0
634,-6.0,-5.0,62.0,1645448007.4375,P19,D04,0,0,0
635,-6.0,-5.0,62.0,1645448007.46875,P19,D04,0,0,0
636,-6.0,-5.0,62.0,1645448007.5,P19,D04,0,0,0
637,-6.0,-5.0,62.0,1645448007.53125,P19,D04,0,0,0
638,-6.0,-5.0,62.0,1645448007.5625,P19,D04,0,0,0
639,-6.0,-5.0,62.0,1645448007.59375,P19,D04,0,0,0
640,-6.0,-5.0,62.0,1645448007.625,P19,D04,0,0,0
641,-6.0,-5.0,62.0,1645448007.65625,P19,D04,0,0,0
642,-6.0,-5.0,62.0,1645448007.6875,P19,D04,0,0,0
643,-6.0,-5.0,62.0,1645448007.71875,P19,D04,0,0,0
644,-6.0,-5.0,62.0,1645448007.75,P19,D04,0,0,0
645,-6.0,-5.0,62.0,1645448007.78125,P19,D04,0,0,0
646,-6.0,-5.0,62.0,1645448007.8125,P19,D04,0,0,0
647,-6.0,-5.0,62.0,1645448007.84375,P19,D04,0,0,0
648,-6.0,-5.0,62.0,1645448007.875,P19,D04,0,0,0
649,-6.0,-5.0,62.0,1645448007.90625,P19,D04,0,0,0
650,-6.0,-5.0,62.0,1645448007.9375,P19,D04,0,0,0
651,-6.0,-5.0,62.0,1645448007.96875,P19,D04,0,0,0
652,-6.0,-5.0,62.0,1645448008.0,P19,D04,0,0,0
653,-6.0,-5.0,62.0,1645448008.03125,P19,D04,0,0,0
654,-6.0,-5.0,62.0,1645448008.0625,P19,D04,0,0,0
655,-6.0,-5.0,62.0,1645448008.09375,P19,D04,0,0,0
656,-6.0,-5.0,62.0,1645448008.125,P19,D04,0,0,0
657,-6.0,-5.0,62.0,1645448008.15625,P19,D04,0,0,0
658,-6.0,-5.0,62.0,1645448008.1875,P19,D04,0,0,0
659,-6.0,-5.0,62.0,1645448008.21875,P19,D04,0,0,0
660,-6.0,-5.0,62.0,1645448008.25,P19,D04,0,0,0
661,-6.0,-5.0,62.0,1645448008.28125,P19,D04,0,0,0
662,-6.0,-5.0,62.0,1645448008.3125,P19,D04,0,0,0
663,-6.0,-5.0,62.0,1645448008.34375,P19,D04,0,0,0
664,-6.0,-5.0,62.0,1645448008.375,P19,D04,0,0,0
665,-6.0,-5.0,62.0,1645448008.40625,P19,D04,0,0,0
666,-6.0,-5.0,62.0,1645448008.4375,P19,D04,0,0,0
667,-6.0,-5.0,62.0,1645448008.46875,P19,D04,0,0,0
668,-6.0,-5.0,62.0,1645448008.5,P19,D04,0,0,0
669,-6.0,-5.0,62.0,1645448008.53125,P19,D04,0,0,0
670,-6.0,-5.0,62.0,1645448008.5625,P19,D04,0,0,0
671,-6.0,-5.0,62.0,1645448008.59375,P19,D04,0,0,0
672,-6.0,-5.0,62.0,1645448008.625,P19,D04,0,0,0
673,-6.0,-5.0,62.0,1645448008.65625,P19,D04,0,0,0
674,-6.0,-5.0,62.0,1645448008.6875,P19,D04,0,0,0
675,-6.0,-5.0,62.0,1645448008.71875,P19,D04,0,0,0
676,-7.0,-5.0,62.0,1645448008.75,P19,D04,0,0,0
677,-6.0,-5.0,62.0,1645448008.78125,P19,D04,0,0,0
678,-6.0,-5.0,62.0,1645448008.8125,P19,D04,0,0,0
679,-6.0,-5.0,62.0,1645448008.84375,P19,D04,0,0,0
680,-7.0,-5.0,62.0,1645448008.875,P19,D04,0,0,0
681,-6.0,-5.0,62.0,1645448008.90625,P19,D04,0,0,0
682,-6.0,-5.0,62.0,1645448008.9375,P19,D04,0,0,0
683,-6.0,-5.0,62.0,1645448008.96875,P19,D04,0,0,0
684,-6.0,-5.0,62.0,1645448009.0,P19,D04,0,0,0
685,-6.0,-5.0,62.0,1645448009.03125,P19,D04,0,0,0
686,-6.0,-5.0,62.0,1645448009.0625,P19,D04,0,0,0
687,-6.0,-5.0,62.0,1645448009.09375,P19,D04,0,0,0
688,-6.0,-5.0,62.0,1645448009.125,P19,D04,0,0,0
689,-6.0,-5.0,62.0,1645448009.15625,P19,D04,0,0,0
690,-6.0,-5.0,62.0,1645448009.1875,P19,D04,0,0,0
691,-6.0,-5.0,62.0,1645448009.21875,P19,D04,0,0,0
692,-6.0,-5.0,62.0,1645448009.25,P19,D04,0,0,0
693,-6.0,-5.0,62.0,1645448009.28125,P19,D04,0,0,0
694,-7.0,-5.0,62.0,1645448009.3125,P19,D04,0,0,0
695,-6.0,-5.0,62.0,1645448009.34375,P19,D04,0,0,0
696,-6.0,-5.0,62.0,1645448009.375,P19,D04,0,0,0
697,-6.0,-5.0,62.0,1645448009.40625,P19,D04,0,0,0
698,-6.0,-5.0,62.0,1645448009.4375,P19,D04,0,0,0
699,-6.0,-5.0,62.0,1645448009.46875,P19,D04,0,0,0
700,-6.0,-5.0,62.0,1645448009.5,P19,D04,0,0,0
701,-6.0,-5.0,62.0,1645448009.53125,P19,D04,0,0,0
702,-6.0,-5.0,62.0,1645448009.5625,P19,D04,0,0,0
703,-6.0,-5.0,62.0,1645448009.59375,P19,D04,0,0,0
704,-6.0,-5.0,62.0,1645448009.625,P19,D04,0,0,0
705,-6.0,-5.0,62.0,1645448009.65625,P19,D04,0,0,0
706,-6.0,-5.0,62.0,1645448009.6875,P19,D04,0,0,0
707,-6.0,-5.0,62.0,1645448009.71875,P19,D04,0,0,0
708,-6.0,-5.0,62.0,1645448009.75,P19,D04,0,0,0
709,-6.0,-5.0,62.0,1645448009.78125,P19,D04,0,0,0
710,-6.0,-5.0,62.0,1645448009.8125,P19,D04,0,0,0
711,-6.0,-5.0,62.0,1645448009.84375,P19,D04,0,0,0
712,-7.0,-5.0,62.0,1645448009.875,P19,D04,0,0,0
713,-6.0,-5.0,62.0,1645448009.90625,P19,D04,0,0,0
714,-6.0,-5.0,62.0,1645448009.9375,P19,D04,0,0,0
715,-7.0,-5.0,62.0,1645448009.96875,P19,D04,0,0,0
716,-6.0,-5.0,62.0,1645448010.0,P19,D04,0,0,0
717,-6.0,-5.0,62.0,1645448010.03125,P19,D04,0,0,0
718,-6.0,-5.0,62.0,1645448010.0625,P19,D04,0,0,0
719,-6.0,-5.0,62.0,1645448010.09375,P19,D04,0,0,0
720,-6.0,-5.0,62.0,1645448010.125,P19,D04,0,0,0
721,-6.0,-5.0,62.0,1645448010.15625,P19,D04,0,0,0
722,-6.0,-5.0,62.0,1645448010.1875,P19,D04,0,0,0
723,-6.0,-5.0,62.0,1645448010.21875,P19,D04,0,0,0
724,-6.0,-5.0,62.0,1645448010.25,P19,D04,0,0,0
725,-6.0,-5.0,62.0,1645448010.28125,P19,D04,0,0,0
726,-6.0,-5.0,62.0,1645448010.3125,P19,D04,0,0,0
727,-6.0,-5.0,62.0,1645448010.34375,P19,D04,0,0,0
728,-6.0,-5.0,62.0,1645448010.375,P19,D04,0,0,0
729,-6.0,-5.0,62.0,1645448010.40625,P19,D04,0,0,0
730,-6.0,-5.0,62.0,1645448010.4375,P19,D04,0,0,0
731,-6.0,-5.0,62.0,1645448010.46875,P19,D04,0,0,0
732,-6.0,-5.0,62.0,1645448010.5,P19,D04,0,0,0
733,-6.0,-5.0,62.0,1645448010.53125,P19,D04,0,0,0
734,-6.0,-5.0,62.0,1645448010.5625,P19,D04,0,0,0
735,-6.0,-5.0,62.0,1645448010.59375,P19,D04,0,0,0
736,-7.0,-5.0,62.0,1645448010.625,P19,D04,0,0,0
737,-5.0,-5.0,62.0,1645448010.65625,P19,D04,0,0,0
738,-6.0,-5.0,62.0,1645448010.6875,P19,D04,0,0,0
739,-6.0,-5.0,62.0,1645448010.71875,P19,D04,0,0,0
740,-5.0,-5.0,62.0,1645448010.75,P19,D04,0,0,0
741,-6.0,-5.0,62.0,1645448010.78125,P19,D04,0,0,0
742,-6.0,-5.0,62.0,1645448010.8125,P19,D04,0,0,0
743,-6.0,-5.0,62.0,1645448010.84375,P19,D04,0,0,0
744,-7.0,-5.0,62.0,1645448010.875,P19,D04,0,0,0
745,-6.0,-5.0,62.0,1645448010.90625,P19,D04,0,0,0
746,-6.0,-5.0,62.0,1645448010.9375,P19,D04,0,0,0
747,-6.0,-5.0,62.0,1645448010.96875,P19,D04,0,0,0
748,-7.0,-5.0,62.0,1645448011.0,P19,D04,0,0,0
749,-7.0,-5.0,62.0,1645448011.03125,P19,D04,0,0,0
750,-6.0,-5.0,62.0,1645448011.0625,P19,D04,0,0,0
751,-7.0,-5.0,62.0,1645448011.09375,P19,D04,0,0,0
752,-6.0,-5.0,62.0,1645448011.125,P19,D04,0,0,0
753,-6.0,-5.0,62.0,1645448011.15625,P19,D04,0,0,0
754,-7.0,-5.0,62.0,1645448011.1875,P19,D04,0,0,0
755,-6.0,-5.0,62.0,1645448011.21875,P19,D04,0,0,0
756,-6.0,-5.0,62.0,1645448011.25,P19,D04,0,0,0
757,-6.0,-5.0,62.0,1645448011.28125,P19,D04,0,0,0
758,-6.0,-5.0,62.0,1645448011.3125,P19,D04,0,0,0
759,-6.0,-5.0,62.0,1645448011.34375,P19,D04,0,0,0
760,-7.0,-5.0,62.0,1645448011.375,P19,D04,0,0,0
761,-6.0,-5.0,62.0,1645448011.40625,P19,D04,0,0,0
762,-6.0,-5.0,62.0,1645448011.4375,P19,D04,0,0,0
763,-6.0,-5.0,63.0,1645448011.46875,P19,D04,0,0,0
764,-5.0,-5.0,62.0,1645448011.5,P19,D04,0,0,0
765,-9.0,-5.0,62.0,1645448011.53125,P19,D04,0,0,0
766,-6.0,-5.0,62.0,1645448011.5625,P19,D04,0,0,0
767,-6.0,-4.0,62.0,1645448011.59375,P19,D04,0,0,0
768,-7.0,-5.0,61.0,1645448011.625,P19,D04,0,0,0
769,-7.0,-5.0,62.0,1645448011.65625,P19,D04,0,0,0
770,-7.0,-5.0,62.0,1645448011.6875,P19,D04,0,0,0
771,-6.0,-5.0,62.0,1645448011.71875,P19,D04,0,0,0
772,-7.0,-5.0,62.0,1645448011.75,P19,D04,0,0,0
773,-7.0,-5.0,61.0,1645448011.78125,P19,D04,0,0,0
774,-6.0,-5.0,62.0,1645448011.8125,P19,D04,0,0,0
775,-6.0,-5.0,62.0,1645448011.84375,P19,D04,0,0,0
776,-7.0,-5.0,62.0,1645448011.875,P19,D04,0,0,0
777,-5.0,-5.0,62.0,1645448011.90625,P19,D04,0,0,0
778,-6.0,-5.0,62.0,1645448011.9375,P19,D04,0,0,0
779,-8.0,-5.0,62.0,1645448011.96875,P19,D04,0,0,0
780,-9.0,-5.0,61.0,1645448012.0,P19,D04,0,0,0
781,-7.0,-5.0,62.0,1645448012.03125,P19,D04,0,0,0
782,-6.0,-5.0,62.0,1645448012.0625,P19,D04,0,0,0
783,-7.0,-5.0,62.0,1645448012.09375,P19,D04,0,0,0
784,-8.0,-5.0,62.0,1645448012.125,P19,D04,0,0,0
785,-7.0,-5.0,62.0,1645448012.15625,P19,D04,0,0,0
786,-7.0,-5.0,62.0,1645448012.1875,P19,D04,0,0,0
787,-7.0,-5.0,62.0,1645448012.21875,P19,D04,0,0,0
788,-7.0,-5.0,62.0,1645448012.25,P19,D04,0,0,0
789,-6.0,-5.0,62.0,1645448012.28125,P19,D04,0,0,0
790,-6.0,-5.0,62.0,1645448012.3125,P19,D04,0,0,0
791,-6.0,-5.0,62.0,1645448012.34375,P19,D04,0,0,0
792,-6.0,-5.0,62.0,1645448012.375,P19,D04,0,0,0
793,-6.0,-5.0,62.0,1645448012.40625,P19,D04,0,0,0
794,-6.0,-5.0,62.0,1645448012.4375,P19,D04,0,0,0
795,-7.0,-5.0,62.0,1645448012.46875,P19,D04,0,0,0
796,-7.0,-5.0,62.0,1645448012.5,P19,D04,0,0,0
797,-6.0,-5.0,62.0,1645448012.53125,P19,D04,0,0,0
798,-7.0,-5.0,62.0,1645448012.5625,P19,D04,0,0,0
799,-7.0,-5.0,62.0,1645448012.59375,P19,D04,0,0,0
800,-6.0,-5.0,62.0,1645448012.625,P19,D04,0,0,0
801,-7.0,-5.0,62.0,1645448012.65625,P19,D04,0,0,0
802,-7.0,-5.0,62.0,1645448012.6875,P19,D04,0,0,0
803,-6.0,-5.0,62.0,1645448012.71875,P19,D04,0,0,0
804,-6.0,-5.0,62.0,1645448012.75,P19,D04,0,0,0
805,-7.0,-5.0,62.0,1645448012.78125,P19,D04,0,0,0
806,-7.0,-5.0,62.0,1645448012.8125,P19,D04,0,0,0
807,-6.0,-5.0,62.0,1645448012.84375,P19,D04,0,0,0
808,-6.0,-5.0,62.0,1645448012.875,P19,D04,0,0,0
809,-7.0,-5.0,62.0,1645448012.90625,P19,D04,0,0,0
810,-7.0,-5.0,62.0,1645448012.9375,P19,D04,0,0,0
811,-6.0,-5.0,62.0,1645448012.96875,P19,D04,0,0,0
812,-7.0,-5.0,62.0,1645448013.0,P19,D04,0,0,0
813,-7.0,-5.0,62.0,1645448013.03125,P19,D04,0,0,0
814,-6.0,-5.0,62.0,1645448013.0625,P19,D04,0,0,0
815,-6.0,-5.0,62.0,1645448013.09375,P19,D04,0,0,0
816,-6.0,-5.0,62.0,1645448013.125,P19,D04,0,0,0
817,-7.0,-5.0,62.0,1645448013.15625,P19,D04,0,0,0
818,-6.0,-5.0,62.0,1645448013.1875,P19,D04,0,0,0
819,-6.0,-5.0,62.0,1645448013.21875,P19,D04,0,0,0
820,-6.0,-5.0,62.0,1645448013.25,P19,D04,0,0,0
821,-6.0,-5.0,62.0,1645448013.28125,P19,D04,0,0,0
822,-6.0,-5.0,62.0,1645448013.3125,P19,D04,0,0,0
823,-7.0,-5.0,62.0,1645448013.34375,P19,D04,0,0,0
824,-6.0,-5.0,62.0,1645448013.375,P19,D04,0,0,0
825,-6.0,-5.0,62.0,1645448013.40625,P19,D04,0,0,0
826,-7.0,-5.0,62.0,1645448013.4375,P19,D04,0,0,0
827,-6.0,-5.0,62.0,1645448013.46875,P19,D04,0,0,0
828,-6.0,-5.0,62.0,1645448013.5,P19,D04,0,0,0
829,-7.0,-5.0,62.0,1645448013.53125,P19,D04,0,0,0
830,-6.0,-5.0,62.0,1645448013.5625,P19,D04,0,0,0
831,-6.0,-5.0,62.0,1645448013.59375,P19,D04,0,0,0
832,-6.0,-5.0,62.0,1645448013.625,P19,D04,0,0,0
833,-6.0,-5.0,62.0,1645448013.65625,P19,D04,0,0,0
834,-6.0,-5.0,62.0,1645448013.6875,P19,D04,0,0,0
835,-6.0,-5.0,62.0,1645448013.71875,P19,D04,0,0,0
836,-6.0,-5.0,62.0,1645448013.75,P19,D04,0,0,0
837,-7.0,-5.0,62.0,1645448013.78125,P19,D04,0,0,0
838,-6.0,-5.0,62.0,1645448013.8125,P19,D04,0,0,0
839,-6.0,-5.0,62.0,1645448013.84375,P19,D04,0,0,0
840,-6.0,-5.0,62.0,1645448013.875,P19,D04,0,0,0
841,-6.0,-5.0,62.0,1645448013.90625,P19,D04,0,0,0
842,-6.0,-5.0,62.0,1645448013.9375,P19,D04,0,0,0
843,-6.0,-5.0,62.0,1645448013.96875,P19,D04,0,0,0
844,-7.0,-5.0,62.0,1645448014.0,P19,D04,0,0,0
845,-6.0,-5.0,62.0,1645448014.03125,P19,D04,0,0,0
846,-6.0,-5.0,62.0,1645448014.0625,P19,D04,0,0,0
847,-6.0,-5.0,62.0,1645448014.09375,P19,D04,0,0,0
848,-7.0,-5.0,62.0,1645448014.125,P19,D04,0,0,0
849,-7.0,-5.0,62.0,1645448014.15625,P19,D04,0,0,0
850,-6.0,-5.0,62.0,1645448014.1875,P19,D04,0,0,0
851,-6.0,-5.0,62.0,1645448014.21875,P19,D04,0,0,0
852,-6.0,-5.0,62.0,1645448014.25,P19,D04,0,0,0
853,-7.0,-5.0,62.0,1645448014.28125,P19,D04,0,0,0
854,-6.0,-5.0,62.0,1645448014.3125,P19,D04,0,0,0
855,-6.0,-5.0,62.0,1645448014.34375,P19,D04,0,0,0
856,-7.0,-5.0,62.0,1645448014.375,P19,D04,0,0,0
857,-7.0,-5.0,62.0,1645448014.40625,P19,D04,0,0,0
858,-6.0,-5.0,62.0,1645448014.4375,P19,D04,0,0,0
859,-6.0,-5.0,62.0,1645448014.46875,P19,D04,0,0,0
860,-6.0,-5.0,62.0,1645448014.5,P19,D04,0,0,0
861,-6.0,-5.0,62.0,1645448014.53125,P19,D04,0,0,0
862,-7.0,-5.0,62.0,1645448014.5625,P19,D04,0,0,0
863,-7.0,-5.0,62.0,1645448014.59375,P19,D04,0,0,0
864,-6.0,-5.0,62.0,1645448014.625,P19,D04,0,0,0
865,-6.0,-5.0,62.0,1645448014.65625,P19,D04,0,0,0
866,-6.0,-5.0,62.0,1645448014.6875,P19,D04,0,0,0
867,-6.0,-5.0,62.0,1645448014.71875,P19,D04,0,0,0
868,-7.0,-5.0,62.0,1645448014.75,P19,D04,0,0,0
869,-6.0,-5.0,62.0,1645448014.78125,P19,D04,0,0,0
870,-6.0,-5.0,62.0,1645448014.8125,P19,D04,0,0,0
871,-6.0,-5.0,62.0,1645448014.84375,P19,D04,0,0,0
872,-6.0,-5.0,62.0,1645448014.875,P19,D04,0,0,0
873,-7.0,-5.0,62.0,1645448014.90625,P19,D04,0,0,0
874,-6.0,-5.0,62.0,1645448014.9375,P19,D04,0,0,0
875,-6.0,-5.0,62.0,1645448014.96875,P19,D04,0,0,0
876,-6.0,-5.0,62.0,1645448015.0,P19,D04,0,0,0
877,-6.0,-5.0,62.0,1645448015.03125,P19,D04,0,0,0
878,-6.0,-5.0,62.0,1645448015.0625,P19,D04,0,0,0
879,-6.0,-5.0,62.0,1645448015.09375,P19,D04,0,0,0
880,-7.0,-5.0,62.0,1645448015.125,P19,D04,0,0,0
881,-7.0,-5.0,62.0,1645448015.15625,P19,D04,0,0,0
882,-6.0,-5.0,62.0,1645448015.1875,P19,D04,0,0,0
883,-6.0,-5.0,62.0,1645448015.21875,P19,D04,0,0,0
884,-7.0,-5.0,62.0,1645448015.25,P19,D04,0,0,0
885,-6.0,-5.0,62.0,1645448015.28125,P19,D04,0,0,0
886,-6.0,-5.0,62.0,1645448015.3125,P19,D04,0,0,0
887,-6.0,-5.0,62.0,1645448015.34375,P19,D04,0,0,0
888,-6.0,-5.0,62.0,1645448015.375,P19,D04,0,0,0
889,-6.0,-5.0,62.0,1645448015.40625,P19,D04,0,0,0
890,-7.0,-5.0,62.0,1645448015.4375,P19,D04,0,0,0
891,-6.0,-5.0,62.0,1645448015.46875,P19,D04,0,0,0
892,-6.0,-5.0,62.0,1645448015.5,P19,D04,0,0,0
893,-7.0,-5.0,62.0,1645448015.53125,P19,D04,0,0,0
894,-7.0,-5.0,62.0,1645448015.5625,P19,D04,0,0,0
895,-6.0,-5.0,62.0,1645448015.59375,P19,D04,0,0,0
896,-6.0,-5.0,62.0,1645448015.625,P19,D04,0,0,0
897,-6.0,-5.0,62.0,1645448015.65625,P19,D04,0,0,0
898,-6.0,-5.0,62.0,1645448015.6875,P19,D04,0,0,0
899,-6.0,-5.0,62.0,1645448015.71875,P19,D04,0,0,0
900,-6.0,-5.0,62.0,1645448015.75,P19,D04,0,0,0
901,-6.0,-5.0,62.0,1645448015.78125,P19,D04,0,0,0
902,-6.0,-5.0,62.0,1645448015.8125,P19,D04,0,0,0
903,-6.0,-5.0,62.0,1645448015.84375,P19,D04,0,0,0
904,-7.0,-5.0,62.0,1645448015.875,P19,D04,0,0,0
905,-7.0,-5.0,62.0,1645448015.90625,P19,D04,0,0,0
906,-6.0,-5.0,62.0,1645448015.9375,P19,D04,0,0,0
907,-6.0,-5.0,62.0,1645448015.96875,P19,D04,0,0,0
908,-6.0,-5.0,62.0,1645448016.0,P19,D04,0,0,0
909,-6.0,-5.0,62.0,1645448016.03125,P19,D04,0,0,0
910,-6.0,-5.0,62.0,1645448016.0625,P19,D04,0,0,0
911,-6.0,-5.0,62.0,1645448016.09375,P19,D04,0,0,0
912,-6.0,-5.0,62.0,1645448016.125,P19,D04,0,0,0
913,-7.0,-5.0,62.0,1645448016.15625,P19,D04,0,0,0
914,-7.0,-5.0,62.0,1645448016.1875,P19,D04,0,0,0
915,-6.0,-5.0,62.0,1645448016.21875,P19,D04,0,0,0
916,-6.0,-5.0,62.0,1645448016.25,P19,D04,0,0,0
917,-6.0,-5.0,62.0,1645448016.28125,P19,D04,0,0,0
918,-6.0,-5.0,62.0,1645448016.3125,P19,D04,0,0,0
919,-6.0,-5.0,62.0,1645448016.34375,P19,D04,0,0,0
920,-7.0,-5.0,62.0,1645448016.375,P19,D04,0,0,0
921,-6.0,-5.0,62.0,1645448016.40625,P19,D04,0,0,0
922,-6.0,-5.0,62.0,1645448016.4375,P19,D04,0,0,0
923,-6.0,-5.0,62.0,1645448016.46875,P19,D04,0,0,0
924,-6.0,-5.0,62.0,1645448016.5,P19,D04,0,0,0
925,-6.0,-5.0,62.0,1645448016.53125,P19,D04,0,0,0
926,-6.0,-5.0,62.0,1645448016.5625,P19,D04,0,0,0
927,-6.0,-5.0,62.0,1645448016.59375,P19,D04,0,0,0
928,-6.0,-5.0,62.0,1645448016.625,P19,D04,0,0,0
929,-7.0,-5.0,62.0,1645448016.65625,P19,D04,0,0,0
930,-6.0,-5.0,62.0,1645448016.6875,P19,D04,0,0,0
931,-6.0,-5.0,62.0,1645448016.71875,P19,D04,0,0,0
932,-6.0,-5.0,62.0,1645448016.75,P19,D04,0,0,0
933,-6.0,-5.0,62.0,1645448016.78125,P19,D04,0,0,0
934,-6.0,-5.0,62.0,1645448016.8125,P19,D04,0,0,0
935,-6.0,-5.0,62.0,1645448016.84375,P19,D04,0,0,0
936,-7.0,-5.0,62.0,1645448016.875,P19,D04,0,0,0
937,-6.0,-5.0,62.0,1645448016.90625,P19,D04,0,0,0
938,-6.0,-5.0,62.0,1645448016.9375,P19,D04,0,0,0
939,-7.0,-5.0,62.0,1645448016.96875,P19,D04,0,0,0
940,-7.0,-5.0,62.0,1645448017.0,P19,D04,0,0,0
941,-6.0,-5.0,62.0,1645448017.03125,P19,D04,0,0,0
942,-6.0,-5.0,62.0,1645448017.0625,P19,D04,0,0,0
943,-7.0,-5.0,62.0,1645448017.09375,P19,D04,0,0,0
944,-6.0,-5.0,62.0,1645448017.125,P19,D04,0,0,0
945,-6.0,-5.0,62.0,1645448017.15625,P19,D04,0,0,0
946,-6.0,-5.0,62.0,1645448017.1875,P19,D04,0,0,0
947,-6.0,-5.0,62.0,1645448017.21875,P19,D04,0,0,0
948,-6.0,-5.0,62.0,1645448017.25,P19,D04,0,0,0
949,-6.0,-5.0,62.0,1645448017.28125,P19,D04,0,0,0
950,-6.0,-5.0,62.0,1645448017.3125,P19,D04,0,0,0
951,-6.0,-5.0,62.0,1645448017.34375,P19,D04,0,0,0
952,-6.0,-5.0,62.0,1645448017.375,P19,D04,0,0,0
953,-6.0,-5.0,62.0,1645448017.40625,P19,D04,0,0,0
954,-6.0,-5.0,62.0,1645448017.4375,P19,D04,0,0,0
955,-6.0,-5.0,62.0,1645448017.46875,P19,D04,0,0,0
956,-6.0,-5.0,62.0,1645448017.5,P19,D04,0,0,0
957,-6.0,-5.0,62.0,1645448017.53125,P19,D04,0,0,0
958,-6.0,-5.0,62.0,1645448017.5625,P19,D04,0,0,0
959,-6.0,-5.0,62.0,1645448017.59375,P19,D04,0,0,0
960,-6.0,-5.0,62.0,1645448017.625,P19,D04,0,0,0
961,-6.0,-5.0,62.0,1645448017.65625,P19,D04,0,0,0
962,-6.0,-5.0,62.0,1645448017.6875,P19,D04,0,0,0
963,-6.0,-5.0,62.0,1645448017.71875,P19,D04,0,0,0
964,-7.0,-5.0,62.0,1645448017.75,P19,D04,0,0,0
965,-6.0,-5.0,62.0,1645448017.78125,P19,D04,0,0,0
966,-6.0,-5.0,62.0,1645448017.8125,P19,D04,0,0,0
967,-7.0,-5.0,62.0,1645448017.84375,P19,D04,0,0,0
968,-7.0,-5.0,62.0,1645448017.875,P19,D04,0,0,0
969,-6.0,-5.0,62.0,1645448017.90625,P19,D04,0,0,0
970,-7.0,-5.0,62.0,1645448017.9375,P19,D04,0,0,0
971,-6.0,-5.0,62.0,1645448017.96875,P19,D04,0,0,0
972,-6.0,-5.0,62.0,1645448018.0,P19,D04,0,0,0
973,-6.0,-5.0,62.0,1645448018.03125,P19,D04,0,0,0
974,-6.0,-5.0,62.0,1645448018.0625,P19,D04,0,0,0
975,-6.0,-5.0,62.0,1645448018.09375,P19,D04,0,0,0
976,-6.0,-5.0,62.0,1645448018.125,P19,D04,0,0,0
977,-6.0,-5.0,62.0,1645448018.15625,P19,D04,0,0,0
978,-6.0,-5.0,62.0,1645448018.1875,P19,D04,0,0,0
979,-6.0,-5.0,62.0,1645448018.21875,P19,D04,0,0,0
980,-6.0,-5.0,62.0,1645448018.25,P19,D04,0,0,0
981,-6.0,-5.0,62.0,1645448018.28125,P19,D04,0,0,0
982,-6.0,-5.0,62.0,1645448018.3125,P19,D04,0,0,0
983,-7.0,-5.0,62.0,1645448018.34375,P19,D04,0,0,0
984,-6.0,-5.0,62.0,1645448018.375,P19,D04,0,0,0
985,-6.0,-5.0,62.0,1645448018.40625,P19,D04,0,0,0
986,-6.0,-5.0,62.0,1645448018.4375,P19,D04,0,0,0
987,-7.0,-5.0,62.0,1645448018.46875,P19,D04,0,0,0
988,-6.0,-5.0,62.0,1645448018.5,P19,D04,0,0,0
989,-6.0,-5.0,62.0,1645448018.53125,P19,D04,0,0,0
990,-6.0,-5.0,62.0,1645448018.5625,P19,D04,0,0,0
991,-6.0,-5.0,62.0,1645448018.59375,P19,D04,0,0,0
992,-6.0,-5.0,62.0,1645448018.625,P19,D04,0,0,0
993,-7.0,-5.0,62.0,1645448018.65625,P19,D04,0,0,0
994,-6.0,-5.0,62.0,1645448018.6875,P19,D04,0,0,0
995,-6.0,-5.0,62.0,1645448018.71875,P19,D04,0,0,0
996,-6.0,-5.0,62.0,1645448018.75,P19,D04,0,0,0
997,-7.0,-5.0,62.0,1645448018.78125,P19,D04,0,0,0
998,-6.0,-5.0,62.0,1645448018.8125,P19,D04,0,0,0
999,-7.0,-5.0,62.0,1645448018.84375,P19,D04,0,0,0
1000,-6.0,-5.0,62.0,1645448018.875,P19,D04,0,0,0
1001,-6.0,-5.0,62.0,1645448018.90625,P19,D04,0,0,0
1002,-7.0,-5.0,62.0,1645448018.9375,P19,D04,0,0,0
1003,-6.0,-5.0,62.0,1645448018.96875,P19,D04,0,0,0
1004,-6.0,-5.0,62.0,1645448019.0,P19,D04,0,0,0
1005,-6.0,-5.0,62.0,1645448019.03125,P19,D04,0,0,0
1006,-6.0,-5.0,62.0,1645448019.0625,P19,D04,0,0,0
1007,-6.0,-5.0,62.0,1645448019.09375,P19,D04,0,0,0
1008,-7.0,-5.0,62.0,1645448019.125,P19,D04,0,0,0
1009,-6.0,-5.0,62.0,1645448019.15625,P19,D04,0,0,0
1010,-6.0,-5.0,62.0,1645448019.1875,P19,D04,0,0,0
1011,-7.0,-5.0,62.0,1645448019.21875,P19,D04,0,0,0
1012,-6.0,-5.0,62.0,1645448019.25,P19,D04,0,0,0
1013,-7.0,-5.0,62.0,1645448019.28125,P19,D04,0,0,0
1014,-6.0,-5.0,62.0,1645448019.3125,P19,D04,0,0,0
1015,-6.0,-5.0,62.0,1645448019.34375,P19,D04,0,0,0
1016,-7.0,-5.0,62.0,1645448019.375,P19,D04,0,0,0
1017,-7.0,-5.0,62.0,1645448019.40625,P19,D04,0,0,0
1018,-6.0,-5.0,62.0,1645448019.4375,P19,D04,0,0,0
1019,-6.0,-5.0,62.0,1645448019.46875,P19,D04,0,0,0
1020,-7.0,-5.0,62.0,1645448019.5,P19,D04,0,0,0
1021,-6.0,-5.0,62.0,1645448019.53125,P19,D04,0,0,0
1022,-6.0,-5.0,62.0,1645448019.5625,P19,D04,0,0,0
1023,-7.0,-5.0,62.0,1645448019.59375,P19,D04,0,0,0
1024,-6.0,-5.0,62.0,1645448019.625,P19,D04,0,0,0
1025,-7.0,-5.0,62.0,1645448019.65625,P19,D04,0,0,0
1026,-7.0,-5.0,62.0,1645448019.6875,P19,D04,0,0,0
1027,-6.0,-5.0,62.0,1645448019.71875,P19,D04,0,0,0
1028,-6.0,-5.0,62.0,1645448019.75,P19,D04,0,0,0
1029,-7.0,-5.0,62.0,1645448019.78125,P19,D04,0,0,0
1030,-7.0,-5.0,62.0,1645448019.8125,P19,D04,0,0,0
1031,-6.0,-5.0,62.0,1645448019.84375,P19,D04,0,0,0
1032,-7.0,-5.0,62.0,1645448019.875,P19,D04,0,0,0
1033,-6.0,-5.0,62.0,1645448019.90625,P19,D04,0,0,0
1034,-6.0,-5.0,62.0,1645448019.9375,P19,D04,0,0,0
1035,-6.0,-5.0,62.0,1645448019.96875,P19,D04,0,0,0
1036,-6.0,-5.0,62.0,1645448020.0,P19,D04,0,0,0
1037,-6.0,-5.0,62.0,1645448020.03125,P19,D04,0,0,0
1038,-6.0,-5.0,62.0,1645448020.0625,P19,D04,0,0,0
1039,-6.0,-5.0,62.0,1645448020.09375,P19,D04,0,0,0
1040,-7.0,-5.0,62.0,1645448020.125,P19,D04,0,0,0
1041,-6.0,-5.0,62.0,1645448020.15625,P19,D04,0,0,0
1042,-6.0,-5.0,62.0,1645448020.1875,P19,D04,0,0,0
1043,-7.0,-5.0,62.0,1645448020.21875,P19,D04,0,0,0
1044,-6.0,-5.0,62.0,1645448020.25,P19,D04,0,0,0
1045,-6.0,-5.0,62.0,1645448020.28125,P19,D04,0,0,0
1046,-6.0,-5.0,62.0,1645448020.3125,P19,D04,0,0,0
1047,-7.0,-5.0,62.0,1645448020.34375,P19,D04,0,0,0
1048,-6.0,-5.0,62.0,1645448020.375,P19,D04,0,0,0
1049,-6.0,-5.0,62.0,1645448020.40625,P19,D04,0,0,0
1050,-6.0,-5.0,62.0,1645448020.4375,P19,D04,0,0,0
1051,-6.0,-5.0,62.0,1645448020.46875,P19,D04,0,0,0
1052,-6.0,-5.0,62.0,1645448020.5,P19,D04,0,0,0
1053,-6.0,-5.0,62.0,1645448020.53125,P19,D04,0,0,0
1054,-7.0,-5.0,62.0,1645448020.5625,P19,D04,0,0,0
1055,-6.0,-5.0,62.0,1645448020.59375,P19,D04,0,0,0
1056,-6.0,-5.0,62.0,1645448020.625,P19,D04,0,0,0
1057,-7.0,-5.0,62.0,1645448020.65625,P19,D04,0,0,0
1058,-6.0,-5.0,62.0,1645448020.6875,P19,D04,0,0,0
1059,-6.0,-5.0,62.0,1645448020.71875,P19,D04,0,0,0
1060,-7.0,-5.0,62.0,1645448020.75,P19,D04,0,0,0
1061,-6.0,-5.0,62.0,1645448020.78125,P19,D04,0,0,0
1062,-6.0,-5.0,62.0,1645448020.8125,P19,D04,0,0,0
1063,-6.0,-5.0,62.0,1645448020.84375,P19,D04,0,0,0
1064,-6.0,-5.0,62.0,1645448020.875,P19,D04,0,0,0
1065,-6.0,-5.0,62.0,1645448020.90625,P19,D04,0,0,0
1066,-6.0,-5.0,62.0,1645448020.9375,P19,D04,0,0,0
1067,-6.0,-5.0,62.0,1645448020.96875,P19,D04,0,0,0
1068,-6.0,-5.0,62.0,1645448021.0,P19,D04,0,0,0
1069,-6.0,-5.0,62.0,1645448021.03125,P19,D04,0,0,0
1070,-7.0,-5.0,62.0,1645448021.0625,P19,D04,0,0,0
1071,-6.0,-5.0,62.0,1645448021.09375,P19,D04,0,0,0
1072,-6.0,-5.0,62.0,1645448021.125,P19,D04,0,0,0
1073,-6.0,-5.0,62.0,1645448021.15625,P19,D04,0,0,0
1074,-6.0,-5.0,62.0,1645448021.1875,P19,D04,0,0,0
1075,-6.0,-5.0,62.0,1645448021.21875,P19,D04,0,0,0
1076,-6.0,-5.0,62.0,1645448021.25,P19,D04,0,0,0
1077,-6.0,-5.0,62.0,1645448021.28125,P19,D04,0,0,0
1078,-6.0,-5.0,62.0,1645448021.3125,P19,D04,0,0,0
1079,-7.0,-5.0,62.0,1645448021.34375,P19,D04,0,0,0
1080,-7.0,-5.0,62.0,1645448021.375,P19,D04,0,0,0
1081,-6.0,-5.0,62.0,1645448021.40625,P19,D04,0,0,0
1082,-6.0,-5.0,62.0,1645448021.4375,P19,D04,0,0,0
1083,-7.0,-5.0,62.0,1645448021.46875,P19,D04,0,0,0
1084,-6.0,-5.0,62.0,1645448021.5,P19,D04,0,0,0
1085,-6.0,-5.0,62.0,1645448021.53125,P19,D04,0,0,0
1086,-6.0,-5.0,62.0,1645448021.5625,P19,D04,0,0,0
1087,-6.0,-5.0,62.0,1645448021.59375,P19,D04,0,0,0
1088,-7.0,-5.0,62.0,1645448021.625,P19,D04,0,0,0
1089,-6.0,-5.0,62.0,1645448021.65625,P19,D04,0,0,0
1090,-6.0,-5.0,62.0,1645448021.6875,P19,D04,0,0,0
1091,-6.0,-5.0,62.0,1645448021.71875,P19,D04,0,0,0
1092,-7.0,-5.0,62.0,1645448021.75,P19,D04,0,0,0
1093,-7.0,-5.0,62.0,1645448021.78125,P19,D04,0,0,0
1094,-6.0,-5.0,62.0,1645448021.8125,P19,D04,0,0,0
1095,-7.0,-5.0,62.0,1645448021.84375,P19,D04,0,0,0
1096,-6.0,-5.0,62.0,1645448021.875,P19,D04,0,0,0
1097,-6.0,-5.0,62.0,1645448021.90625,P19,D04,0,0,0
1098,-7.0,-5.0,62.0,1645448021.9375,P19,D04,0,0,0
1099,-6.0,-5.0,62.0,1645448021.96875,P19,D04,0,0,0
1100,-6.0,-5.0,62.0,1645448022.0,P19,D04,0,0,0
1101,-7.0,-5.0,62.0,1645448022.03125,P19,D04,0,0,0
1102,-7.0,-5.0,62.0,1645448022.0625,P19,D04,0,0,0
1103,-6.0,-5.0,62.0,1645448022.09375,P19,D04,0,0,0
1104,-6.0,-5.0,62.0,1645448022.125,P19,D04,0,0,0
1105,-7.0,-5.0,62.0,1645448022.15625,P19,D04,0,0,0
1106,-7.0,-5.0,62.0,1645448022.1875,P19,D04,0,0,0
1107,-6.0,-5.0,62.0,1645448022.21875,P19,D04,0,0,0
1108,-6.0,-5.0,62.0,1645448022.25,P19,D04,0,0,0
1109,-6.0,-5.0,62.0,1645448022.28125,P19,D04,0,0,0
1110,-7.0,-5.0,62.0,1645448022.3125,P19,D04,0,0,0
1111,-6.0,-5.0,62.0,1645448022.34375,P19,D04,0,0,0
1112,-7.0,-5.0,62.0,1645448022.375,P19,D04,0,0,0
1113,-7.0,-5.0,62.0,1645448022.40625,P19,D04,0,0,0
1114,-6.0,-5.0,62.0,1645448022.4375,P19,D04,0,0,0
1115,-7.0,-5.0,62.0,1645448022.46875,P19,D04,0,0,0
1116,-7.0,-5.0,62.0,1645448022.5,P19,D04,0,0,0
1117,-6.0,-5.0,62.0,1645448022.53125,P19,D04,0,0,0
1118,-7.0,-5.0,62.0,1645448022.5625,P19,D04,0,0,0
1119,-7.0,-5.0,62.0,1645448022.59375,P19,D04,0,0,0
1120,-6.0,-5.0,62.0,1645448022.625,P19,D04,0,0,0
1121,-6.0,-5.0,62.0,1645448022.65625,P19,D04,0,0,0
1122,-6.0,-5.0,62.0,1645448022.6875,P19,D04,0,0,0
1123,-6.0,-5.0,62.0,1645448022.71875,P19,D04,0,0,0
1124,-6.0,-5.0,62.0,1645448022.75,P19,D04,0,0,0
1125,-6.0,-5.0,62.0,1645448022.78125,P19,D04,0,0,0
1126,-6.0,-5.0,62.0,1645448022.8125,P19,D04,0,0,0
1127,-6.0,-5.0,62.0,1645448022.84375,P19,D04,0,0,0
1128,-6.0,-5.0,62.0,1645448022.875,P19,D04,0,0,0
1129,-6.0,-5.0,62.0,1645448022.90625,P19,D04,0,0,0
1130,-6.0,-5.0,62.0,1645448022.9375,P19,D04,0,0,0
1131,-6.0,-5.0,62.0,1645448022.96875,P19,D04,0,0,0
1132,-7.0,-5.0,62.0,1645448023.0,P19,D04,0,0,0
1133,-7.0,-5.0,62.0,1645448023.03125,P19,D04,0,0,0
1134,-6.0,-5.0,62.0,1645448023.0625,P19,D04,0,0,0
1135,-6.0,-5.0,62.0,1645448023.09375,P19,D04,0,0,0
1136,-7.0,-5.0,62.0,1645448023.125,P19,D04,0,0,0
1137,-7.0,-5.0,62.0,1645448023.15625,P19,D04,0,0,0
1138,-6.0,-5.0,62.0,1645448023.1875,P19,D04,0,0,0
1139,-6.0,-5.0,62.0,1645448023.21875,P19,D04,0,0,0
1140,-6.0,-5.0,62.0,1645448023.25,P19,D04,0,0,0
1141,-7.0,-5.0,62.0,1645448023.28125,P19,D04,0,0,0
1142,-7.0,-5.0,62.0,1645448023.3125,P19,D04,0,0,0
1143,-6.0,-5.0,62.0,1645448023.34375,P19,D04,0,0,0
1144,-6.0,-5.0,62.0,1645448023.375,P19,D04,0,0,0
1145,-6.0,-5.0,62.0,1645448023.40625,P19,D04,0,0,0
1146,-6.0,-5.0,62.0,1645448023.4375,P19,D04,0,0,0
1147,-7.0,-5.0,62.0,1645448023.46875,P19,D04,0,0,0
1148,-6.0,-5.0,62.0,1645448023.5,P19,D04,0,0,0
1149,-6.0,-5.0,62.0,1645448023.53125,P19,D04,0,0,0
1150,-7.0,-5.0,62.0,1645448023.5625,P19,D04,0,0,0
1151,-6.0,-5.0,62.0,1645448023.59375,P19,D04,0,0,0
1152,-6.0,-5.0,62.0,1645448023.625,P19,D04,0,0,0
1153,-6.0,-5.0,62.0,1645448023.65625,P19,D04,0,0,0
1154,-6.0,-5.0,62.0,1645448023.6875,P19,D04,0,0,0
1155,-6.0,-5.0,62.0,1645448023.71875,P19,D04,0,0,0
1156,-7.0,-5.0,62.0,1645448023.75,P19,D04,0,0,0
1157,-7.0,-5.0,62.0,1645448023.78125,P19,D04,0,0,0
1158,-6.0,-5.0,62.0,1645448023.8125,P19,D04,0,0,0
1159,-6.0,-5.0,62.0,1645448023.84375,P19,D04,0,0,0
1160,-7.0,-5.0,62.0,1645448023.875,P19,D04,0,0,0
1161,-6.0,-5.0,62.0,1645448023.90625,P19,D04,0,0,0
1162,-6.0,-5.0,62.0,1645448023.9375,P19,D04,0,0,0
1163,-7.0,-5.0,62.0,1645448023.96875,P19,D04,0,0,0
1164,-7.0,-5.0,62.0,1645448024.0,P19,D04,0,0,0
1165,-6.0,-5.0,62.0,1645448024.03125,P19,D04,0,0,0
1166,-6.0,-5.0,62.0,1645448024.0625,P19,D04,0,0,0
1167,-6.0,-5.0,62.0,1645448024.09375,P19,D04,0,0,0
1168,-6.0,-5.0,62.0,1645448024.125,P19,D04,0,0,0
1169,-6.0,-5.0,62.0,1645448024.15625,P19,D04,0,0,0
1170,-6.0,-5.0,62.0,1645448024.1875,P19,D04,0,0,0
1171,-6.0,-5.0,62.0,1645448024.21875,P19,D04,0,0,0
1172,-6.0,-5.0,62.0,1645448024.25,P19,D04,0,0,0
1173,-7.0,-5.0,62.0,1645448024.28125,P19,D04,0,0,0
1174,-6.0,-5.0,62.0,1645448024.3125,P19,D04,0,0,0
1175,-6.0,-5.0,62.0,1645448024.34375,P19,D04,0,0,0
1176,-6.0,-5.0,62.0,1645448024.375,P19,D04,0,0,0
1177,-6.0,-5.0,62.0,1645448024.40625,P19,D04,0,0,0
1178,-7.0,-5.0,62.0,1645448024.4375,P19,D04,0,0,0
1179,-7.0,-5.0,62.0,1645448024.46875,P19,D04,0,0,0
1180,-6.0,-5.0,62.0,1645448024.5,P19,D04,0,0,0
1181,-6.0,-5.0,62.0,1645448024.53125,P19,D04,0,0,0
1182,-6.0,-5.0,62.0,1645448024.5625,P19,D04,0,0,0
1183,-7.0,-5.0,62.0,1645448024.59375,P19,D04,0,0,0
1184,-6.0,-5.0,62.0,1645448024.625,P19,D04,0,0,0
1185,-6.0,-5.0,62.0,1645448024.65625,P19,D04,0,0,0
1186,-7.0,-5.0,62.0,1645448024.6875,P19,D04,0,0,0
1187,-6.0,-5.0,62.0,1645448024.71875,P19,D04,0,0,0
1188,-6.0,-5.0,62.0,1645448024.75,P19,D04,0,0,0
1189,-6.0,-5.0,62.0,1645448024.78125,P19,D04,0,0,0
1190,-6.0,-5.0,62.0,1645448024.8125,P19,D04,0,0,0
1191,-6.0,-5.0,62.0,1645448024.84375,P19,D04,0,0,0
1192,-6.0,-5.0,62.0,1645448024.875,P19,D04,0,0,0
1193,-6.0,-5.0,62.0,1645448024.90625,P19,D04,0,0,0
1194,-6.0,-5.0,62.0,1645448024.9375,P19,D04,0,0,0
1195,-6.0,-5.0,62.0,1645448024.96875,P19,D04,0,0,0
1196,-6.0,-5.0,62.0,1645448025.0,P19,D04,0,0,0
1197,-6.0,-5.0,62.0,1645448025.03125,P19,D04,0,0,0
1198,-6.0,-5.0,62.0,1645448025.0625,P19,D04,0,0,0
1199,-6.0,-5.0,62.0,1645448025.09375,P19,D04,0,0,0
1200,-6.0,-5.0,62.0,1645448025.125,P19,D04,0,0,0
1201,-6.0,-5.0,62.0,1645448025.15625,P19,D04,0,0,0
1202,-6.0,-5.0,62.0,1645448025.1875,P19,D04,0,0,0
1203,-6.0,-5.0,62.0,1645448025.21875,P19,D04,0,0,0
1204,-7.0,-5.0,62.0,1645448025.25,P19,D04,0,0,0
1205,-7.0,-5.0,62.0,1645448025.28125,P19,D04,0,0,0
1206,-6.0,-5.0,62.0,1645448025.3125,P19,D04,0,0,0
1207,-6.0,-5.0,62.0,1645448025.34375,P19,D04,0,0,0
1208,-7.0,-5.0,62.0,1645448025.375,P19,D04,0,0,0
1209,-6.0,-5.0,62.0,1645448025.40625,P19,D04,0,0,0
1210,-6.0,-5.0,62.0,1645448025.4375,P19,D04,0,0,0
1211,-7.0,-5.0,62.0,1645448025.46875,P19,D04,0,0,0
1212,-6.0,-5.0,62.0,1645448025.5,P19,D04,0,0,0
1213,-6.0,-5.0,62.0,1645448025.53125,P19,D04,0,0,0
1214,-6.0,-5.0,62.0,1645448025.5625,P19,D04,0,0,0
1215,-6.0,-5.0,62.0,1645448025.59375,P19,D04,0,0,0
1216,-6.0,-5.0,62.0,1645448025.625,P19,D04,0,0,0
1217,-6.0,-5.0,62.0,1645448025.65625,P19,D04,0,0,0
1218,-6.0,-5.0,62.0,1645448025.6875,P19,D04,0,0,0
1219,-6.0,-5.0,62.0,1645448025.71875,P19,D04,0,0,0
1220,-7.0,-5.0,62.0,1645448025.75,P19,D04,0,0,0
1221,-6.0,-5.0,62.0,1645448025.78125,P19,D04,0,0,0
1222,-6.0,-5.0,62.0,1645448025.8125,P19,D04,0,0,0
1223,-6.0,-5.0,62.0,1645448025.84375,P19,D04,0,0,0
1224,-6.0,-5.0,62.0,1645448025.875,P19,D04,0,0,0
1225,-6.0,-5.0,62.0,1645448025.90625,P19,D04,0,0,0
1226,-6.0,-5.0,62.0,1645448025.9375,P19,D04,0,0,0
1227,-6.0,-5.0,62.0,1645448025.96875,P19,D04,0,0,0
1228,-6.0,-5.0,62.0,1645448026.0,P19,D04,0,0,0
1229,-6.0,-5.0,62.0,1645448026.03125,P19,D04,0,0,0
1230,-6.0,-5.0,62.0,1645448026.0625,P19,D04,0,0,0
1231,-6.0,-5.0,62.0,1645448026.09375,P19,D04,0,0,0
1232,-6.0,-5.0,62.0,1645448026.125,P19,D04,0,0,0
1233,-7.0,-5.0,62.0,1645448026.15625,P19,D04,0,0,0
1234,-7.0,-5.0,62.0,1645448026.1875,P19,D04,0,0,0
1235,-6.0,-5.0,62.0,1645448026.21875,P19,D04,0,0,0
1236,-6.0,-5.0,62.0,1645448026.25,P19,D04,0,0,0
1237,-7.0,-5.0,62.0,1645448026.28125,P19,D04,0,0,0
1238,-6.0,-5.0,62.0,1645448026.3125,P19,D04,0,0,0
1239,-6.0,-5.0,62.0,1645448026.34375,P19,D04,0,0,0
1240,-6.0,-5.0,62.0,1645448026.375,P19,D04,0,0,0
1241,-6.0,-5.0,62.0,1645448026.40625,P19,D04,0,0,0
1242,-7.0,-5.0,62.0,1645448026.4375,P19,D04,0,0,0
1243,-6.0,-5.0,62.0,1645448026.46875,P19,D04,0,0,0
1244,-7.0,-5.0,62.0,1645448026.5,P19,D04,0,0,0
1245,-7.0,-5.0,62.0,1645448026.53125,P19,D04,0,0,0
1246,-6.0,-5.0,62.0,1645448026.5625,P19,D04,0,0,0
1247,-6.0,-5.0,62.0,1645448026.59375,P19,D04,0,0,0
1248,-7.0,-5.0,62.0,1645448026.625,P19,D04,0,0,0
1249,-7.0,-5.0,62.0,1645448026.65625,P19,D04,0,0,0
1250,-6.0,-5.0,62.0,1645448026.6875,P19,D04,0,0,0
1251,-6.0,-5.0,62.0,1645448026.71875,P19,D04,0,0,0
1252,-6.0,-5.0,62.0,1645448026.75,P19,D04,0,0,0
1253,-6.0,-5.0,62.0,1645448026.78125,P19,D04,0,0,0
1254,-6.0,-5.0,62.0,1645448026.8125,P19,D04,0,0,0
1255,-6.0,-5.0,62.0,1645448026.84375,P19,D04,0,0,0
1256,-6.0,-5.0,62.0,1645448026.875,P19,D04,0,0,0
1257,-6.0,-5.0,62.0,1645448026.90625,P19,D04,0,0,0
1258,-6.0,-5.0,62.0,1645448026.9375,P19,D04,0,0,0
1259,-6.0,-5.0,62.0,1645448026.96875,P19,D04,0,0,0
1260,-7.0,-5.0,62.0,1645448027.0,P19,D04,0,0,0
1261,-6.0,-5.0,62.0,1645448027.03125,P19,D04,0,0,0
1262,-6.0,-5.0,62.0,1645448027.0625,P19,D04,0,0,0
1263,-7.0,-5.0,62.0,1645448027.09375,P19,D04,0,0,0
1264,-6.0,-5.0,62.0,1645448027.125,P19,D04,0,0,0
1265,-6.0,-5.0,62.0,1645448027.15625,P19,D04,0,0,0
1266,-6.0,-5.0,62.0,1645448027.1875,P19,D04,0,0,0
1267,-6.0,-5.0,62.0,1645448027.21875,P19,D04,0,0,0
1268,-6.0,-5.0,62.0,1645448027.25,P19,D04,0,0,0
1269,-7.0,-5.0,62.0,1645448027.28125,P19,D04,0,0,0
1270,-6.0,-5.0,62.0,1645448027.3125,P19,D04,0,0,0
1271,-6.0,-5.0,62.0,1645448027.34375,P19,D04,0,0,0
1272,-6.0,-5.0,62.0,1645448027.375,P19,D04,0,0,0
1273,-7.0,-5.0,62.0,1645448027.40625,P19,D04,0,0,0
1274,-6.0,-5.0,62.0,1645448027.4375,P19,D04,0,0,0
1275,-6.0,-5.0,62.0,1645448027.46875,P19,D04,0,0,0
1276,-6.0,-5.0,62.0,1645448027.5,P19,D04,0,0,0
1277,-6.0,-5.0,62.0,1645448027.53125,P19,D04,0,0,0
1278,-6.0,-5.0,62.0,1645448027.5625,P19,D04,0,0,0
1279,-6.0,-5.0,62.0,1645448027.59375,P19,D04,0,0,0
1280,-7.0,-5.0,62.0,1645448027.625,P19,D04,0,0,0
1281,-6.0,-5.0,62.0,1645448027.65625,P19,D04,0,0,0
1282,-6.0,-5.0,62.0,1645448027.6875,P19,D04,0,0,0
1283,-6.0,-5.0,62.0,1645448027.71875,P19,D04,0,0,0
1284,-7.0,-5.0,62.0,1645448027.75,P19,D04,0,0,0
1285,-6.0,-5.0,62.0,1645448027.78125,P19,D04,0,0,0
1286,-6.0,-5.0,62.0,1645448027.8125,P19,D04,0,0,0
1287,-7.0,-5.0,62.0,1645448027.84375,P19,D04,0,0,0
1288,-6.0,-5.0,62.0,1645448027.875,P19,D04,0,0,0
1289,-6.0,-5.0,62.0,1645448027.90625,P19,D04,0,0,0
1290,-6.0,-5.0,62.0,1645448027.9375,P19,D04,0,0,0
1291,-6.0,-5.0,62.0,1645448027.96875,P19,D04,0,0,0
1292,-6.0,-5.0,62.0,1645448028.0,P19,D04,0,0,0
1293,-7.0,-5.0,62.0,1645448028.03125,P19,D04,0,0,0
1294,-6.0,-5.0,62.0,1645448028.0625,P19,D04,0,0,0
1295,-6.0,-5.0,62.0,1645448028.09375,P19,D04,0,0,0
1296,-6.0,-5.0,62.0,1645448028.125,P19,D04,0,0,0
1297,-6.0,-5.0,62.0,1645448028.15625,P19,D04,0,0,0
1298,-6.0,-5.0,62.0,1645448028.1875,P19,D04,0,0,0
1299,-6.0,-5.0,62.0,1645448028.21875,P19,D04,0,0,0
1300,-6.0,-5.0,62.0,1645448028.25,P19,D04,0,0,0
1301,-6.0,-5.0,62.0,1645448028.28125,P19,D04,0,0,0
1302,-6.0,-5.0,62.0,1645448028.3125,P19,D04,0,0,0
1303,-7.0,-5.0,62.0,1645448028.34375,P19,D04,0,0,0
1304,-6.0,-5.0,62.0,1645448028.375,P19,D04,0,0,0
1305,-6.0,-5.0,62.0,1645448028.40625,P19,D04,0,0,0
1306,-7.0,-5.0,62.0,1645448028.4375,P19,D04,0,0,0
1307,-6.0,-5.0,62.0,1645448028.46875,P19,D04,0,0,0
1308,-6.0,-5.0,62.0,1645448028.5,P19,D04,0,0,0
1309,-6.0,-5.0,62.0,1645448028.53125,P19,D04,0,0,0
1310,-6.0,-5.0,62.0,1645448028.5625,P19,D04,0,0,0
1311,-6.0,-5.0,62.0,1645448028.59375,P19,D04,0,0,0
1312,-6.0,-5.0,62.0,1645448028.625,P19,D04,0,0,0
1313,-6.0,-5.0,62.0,1645448028.65625,P19,D04,0,0,0
1314,-6.0,-5.0,62.0,1645448028.6875,P19,D04,0,0,0
1315,-6.0,-5.0,62.0,1645448028.71875,P19,D04,0,0,0
1316,-6.0,-5.0,62.0,1645448028.75,P19,D04,0,0,0
1317,-7.0,-5.0,62.0,1645448028.78125,P19,D04,0,0,0
1318,-6.0,-5.0,62.0,1645448028.8125,P19,D04,0,0,0
1319,-6.0,-5.0,62.0,1645448028.84375,P19,D04,0,0,0
1320,-7.0,-5.0,62.0,1645448028.875,P19,D04,0,0,0
1321,-6.0,-5.0,62.0,1645448028.90625,P19,D04,0,0,0
1322,-6.0,-5.0,62.0,1645448028.9375,P19,D04,0,0,0
1323,-7.0,-5.0,62.0,1645448028.96875,P19,D04,0,0,0
1324,-7.0,-5.0,62.0,1645448029.0,P19,D04,0,0,0
1325,-6.0,-5.0,62.0,1645448029.03125,P19,D04,0,0,0
1326,-6.0,-5.0,62.0,1645448029.0625,P19,D04,0,0,0
1327,-7.0,-5.0,62.0,1645448029.09375,P19,D04,0,0,0
1328,-6.0,-5.0,62.0,1645448029.125,P19,D04,0,0,0
1329,-6.0,-5.0,62.0,1645448029.15625,P19,D04,0,0,0
1330,-6.0,-5.0,62.0,1645448029.1875,P19,D04,0,0,0
1331,-6.0,-5.0,62.0,1645448029.21875,P19,D04,0,0,0
1332,-6.0,-5.0,62.0,1645448029.25,P19,D04,0,0,0
1333,-6.0,-5.0,62.0,1645448029.28125,P19,D04,0,0,0
1334,-6.0,-5.0,62.0,1645448029.3125,P19,D04,0,0,0
1335,-6.0,-5.0,62.0,1645448029.34375,P19,D04,0,0,0
1336,-6.0,-5.0,62.0,1645448029.375,P19,D04,0,0,0
1337,-7.0,-5.0,62.0,1645448029.40625,P19,D04,0,0,0
1338,-6.0,-5.0,62.0,1645448029.4375,P19,D04,0,0,0
1339,-6.0,-5.0,62.0,1645448029.46875,P19,D04,0,0,0
1340,-6.0,-5.0,62.0,1645448029.5,P19,D04,0,0,0
1341,-6.0,-5.0,62.0,1645448029.53125,P19,D04,0,0,0
1342,-6.0,-5.0,62.0,1645448029.5625,P19,D04,0,0,0
1343,-6.0,-5.0,62.0,1645448029.59375,P19,D04,0,0,0
1344,-6.0,-5.0,62.0,1645448029.625,P19,D04,0,0,0
1345,-6.0,-5.0,62.0,1645448029.65625,P19,D04,0,0,0
1346,-6.0,-5.0,62.0,1645448029.6875,P19,D04,0,0,0
1347,-6.0,-5.0,62.0,1645448029.71875,P19,D04,0,0,0
1348,-6.0,-5.0,62.0,1645448029.75,P19,D04,0,0,0
1349,-6.0,-5.0,62.0,1645448029.78125,P19,D04,0,0,0
1350,-6.0,-5.0,62.0,1645448029.8125,P19,D04,0,0,0
1351,-6.0,-5.0,62.0,1645448029.84375,P19,D04,0,0,0
1352,-6.0,-5.0,62.0,1645448029.875,P19,D04,0,0,0
1353,-6.0,-5.0,62.0,1645448029.90625,P19,D04,0,0,0
1354,-6.0,-5.0,62.0,1645448029.9375,P19,D04,0,0,0
1355,-6.0,-5.0,62.0,1645448029.96875,P19,D04,0,0,0
1356,-6.0,-5.0,62.0,1645448030.0,P19,D04,0,0,0
1357,-6.0,-5.0,62.0,1645448030.03125,P19,D04,0,0,0
1358,-6.0,-5.0,62.0,1645448030.0625,P19,D04,0,0,0
1359,-6.0,-5.0,62.0,1645448030.09375,P19,D04,0,0,0
1360,-6.0,-5.0,62.0,1645448030.125,P19,D04,0,0,0
1361,-6.0,-5.0,62.0,1645448030.15625,P19,D04,0,0,0
1362,-6.0,-5.0,62.0,1645448030.1875,P19,D04,0,0,0
1363,-6.0,-5.0,62.0,1645448030.21875,P19,D04,0,0,0
1364,-6.0,-5.0,62.0,1645448030.25,P19,D04,0,0,0
1365,-6.0,-5.0,62.0,1645448030.28125,P19,D04,0,0,0
1366,-6.0,-5.0,62.0,1645448030.3125,P19,D04,0,0,0
1367,-6.0,-6.0,62.0,1645448030.34375,P19,D04,0,0,0
1368,-6.0,-5.0,62.0,1645448030.375,P19,D04,0,0,0
1369,-6.0,-5.0,62.0,1645448030.40625,P19,D04,0,0,0
1370,-6.0,-5.0,62.0,1645448030.4375,P19,D04,0,0,0
1371,-6.0,-5.0,62.0,1645448030.46875,P19,D04,0,0,0
1372,-6.0,-5.0,62.0,1645448030.5,P19,D04,0,0,0
1373,-6.0,-5.0,62.0,1645448030.53125,P19,D04,0,0,0
1374,-6.0,-5.0,62.0,1645448030.5625,P19,D04,0,0,0
1375,-6.0,-5.0,62.0,1645448030.59375,P19,D04,0,0,0
1376,-6.0,-5.0,62.0,1645448030.625,P19,D04,0,0,0
1377,-6.0,-5.0,62.0,1645448030.65625,P19,D04,0,0,0
1378,-6.0,-5.0,62.0,1645448030.6875,P19,D04,0,0,0
1379,-6.0,-5.0,62.0,1645448030.71875,P19,D04,0,0,0
1380,-6.0,-5.0,62.0,1645448030.75,P19,D04,0,0,0
1381,-6.0,-5.0,62.0,1645448030.78125,P19,D04,0,0,0
1382,-6.0,-5.0,62.0,1645448030.8125,P19,D04,0,0,0
1383,-6.0,-5.0,62.0,1645448030.84375,P19,D04,0,0,0
1384,-6.0,-5.0,62.0,1645448030.875,P19,D04,0,0,0
1385,-6.0,-5.0,62.0,1645448030.90625,P19,D04,0,0,0
1386,-6.0,-5.0,62.0,1645448030.9375,P19,D04,0,0,0
1387,-6.0,-5.0,62.0,1645448030.96875,P19,D04,0,0,0
1388,-6.0,-5.0,62.0,1645448031.0,P19,D04,0,0,0
1389,-6.0,-5.0,62.0,1645448031.03125,P19,D04,0,0,0
1390,-7.0,-5.0,62.0,1645448031.0625,P19,D04,0,0,0
1391,-6.0,-5.0,62.0,1645448031.09375,P19,D04,0,0,0
1392,-6.0,-5.0,62.0,1645448031.125,P19,D04,0,0,0
1393,-6.0,-5.0,62.0,1645448031.15625,P19,D04,0,0,0
1394,-6.0,-5.0,62.0,1645448031.1875,P19,D04,0,0,0
1395,-6.0,-5.0,62.0,1645448031.21875,P19,D04,0,0,0
1396,-6.0,-5.0,62.0,1645448031.25,P19,D04,0,0,0
1397,-6.0,-5.0,62.0,1645448031.28125,P19,D04,0,0,0
1398,-6.0,-5.0,62.0,1645448031.3125,P19,D04,0,0,0
1399,-6.0,-5.0,62.0,1645448031.34375,P19,D04,0,0,0
1400,-6.0,-5.0,62.0,1645448031.375,P19,D04,0,0,0
1401,-6.0,-5.0,62.0,1645448031.40625,P19,D04,0,0,0
1402,-6.0,-5.0,62.0,1645448031.4375,P19,D04,0,0,0
1403,-6.0,-5.0,62.0,1645448031.46875,P19,D04,0,0,0
1404,-6.0,-5.0,62.0,1645448031.5,P19,D04,0,0,0
1405,-6.0,-5.0,62.0,1645448031.53125,P19,D04,0,0,0
1406,-6.0,-5.0,62.0,1645448031.5625,P19,D04,0,0,0
1407,-6.0,-5.0,62.0,1645448031.59375,P19,D04,0,0,0
1408,-6.0,-5.0,62.0,1645448031.625,P19,D04,0,0,0
1409,-6.0,-5.0,62.0,1645448031.65625,P19,D04,0,0,0
1410,-6.0,-5.0,62.0,1645448031.6875,P19,D04,0,0,0
1411,-6.0,-5.0,62.0,1645448031.71875,P19,D04,0,0,0
1412,-6.0,-5.0,62.0,1645448031.75,P19,D04,0,0,0
1413,-7.0,-5.0,62.0,1645448031.78125,P19,D04,0,0,0
1414,-6.0,-5.0,62.0,1645448031.8125,P19,D04,0,0,0
1415,-6.0,-5.0,62.0,1645448031.84375,P19,D04,0,0,0
1416,-6.0,-5.0,62.0,1645448031.875,P19,D04,0,0,0
1417,-6.0,-5.0,62.0,1645448031.90625,P19,D04,0,0,0
1418,-6.0,-5.0,62.0,1645448031.9375,P19,D04,0,0,0
1419,-6.0,-5.0,62.0,1645448031.96875,P19,D04,0,0,0
1420,-6.0,-5.0,62.0,1645448032.0,P19,D04,0,0,0
1421,-6.0,-5.0,62.0,1645448032.03125,P19,D04,0,0,0
1422,-6.0,-5.0,62.0,1645448032.0625,P19,D04,0,0,0
1423,-6.0,-5.0,62.0,1645448032.09375,P19,D04,0,0,0
1424,-6.0,-5.0,62.0,1645448032.125,P19,D04,0,0,0
1425,-6.0,-5.0,62.0,1645448032.15625,P19,D04,0,0,0
1426,-6.0,-5.0,62.0,1645448032.1875,P19,D04,0,0,0
1427,-6.0,-5.0,62.0,1645448032.21875,P19,D04,0,0,0
1428,-6.0,-5.0,62.0,1645448032.25,P19,D04,0,0,0
1429,-6.0,-5.0,62.0,1645448032.28125,P19,D04,0,0,0
1430,-6.0,-5.0,62.0,1645448032.3125,P19,D04,0,0,0
1431,-6.0,-5.0,62.0,1645448032.34375,P19,D04,0,0,0
1432,-6.0,-5.0,62.0,1645448032.375,P19,D04,0,0,0
1433,-6.0,-5.0,62.0,1645448032.40625,P19,D04,0,0,0
1434,-6.0,-5.0,62.0,1645448032.4375,P19,D04,0,0,0
1435,-6.0,-5.0,62.0,1645448032.46875,P19,D04,0,0,0
1436,-6.0,-5.0,62.0,1645448032.5,P19,D04,0,0,0
1437,-6.0,-5.0,62.0,1645448032.53125,P19,D04,0,0,0
1438,-6.0,-5.0,62.0,1645448032.5625,P19,D04,0,0,0
1439,-6.0,-5.0,62.0,1645448032.59375,P19,D04,0,0,0
1440,-6.0,-5.0,62.0,1645448032.625,P19,D04,0,0,0
1441,-6.0,-5.0,62.0,1645448032.65625,P19,D04,0,0,0
1442,-7.0,-5.0,62.0,1645448032.6875,P19,D04,0,0,0
1443,-6.0,-5.0,62.0,1645448032.71875,P19,D04,0,0,0
1444,-6.0,-5.0,62.0,1645448032.75,P19,D04,0,0,0
1445,-7.0,-5.0,62.0,1645448032.78125,P19,D04,0,0,0
1446,-6.0,-5.0,62.0,1645448032.8125,P19,D04,0,0,0
1447,-6.0,-5.0,62.0,1645448032.84375,P19,D04,0,0,0
1448,-6.0,-5.0,62.0,1645448032.875,P19,D04,0,0,0
1449,-6.0,-5.0,62.0,1645448032.90625,P19,D04,0,0,0
1450,-6.0,-5.0,62.0,1645448032.9375,P19,D04,0,0,0
1451,-6.0,-5.0,62.0,1645448032.96875,P19,D04,0,0,0
1452,-6.0,-5.0,62.0,1645448033.0,P19,D04,0,0,0
1453,-6.0,-5.0,62.0,1645448033.03125,P19,D04,0,0,0
1454,-6.0,-5.0,62.0,1645448033.0625,P19,D04,0,0,0
1455,-6.0,-5.0,62.0,1645448033.09375,P19,D04,0,0,0
1456,-7.0,-5.0,62.0,1645448033.125,P19,D04,0,0,0
1457,-6.0,-5.0,62.0,1645448033.15625,P19,D04,0,0,0
1458,-6.0,-5.0,62.0,1645448033.1875,P19,D04,0,0,0
1459,-6.0,-5.0,62.0,1645448033.21875,P19,D04,0,0,0
1460,-6.0,-5.0,62.0,1645448033.25,P19,D04,0,0,0
1461,-6.0,-5.0,62.0,1645448033.28125,P19,D04,0,0,0
1462,-6.0,-5.0,62.0,1645448033.3125,P19,D04,0,0,0
1463,-6.0,-5.0,62.0,1645448033.34375,P19,D04,0,0,0
1464,-6.0,-5.0,62.0,1645448033.375,P19,D04,0,0,0
1465,-6.0,-5.0,62.0,1645448033.40625,P19,D04,0,0,0
1466,-6.0,-5.0,62.0,1645448033.4375,P19,D04,0,0,0
1467,-6.0,-5.0,62.0,1645448033.46875,P19,D04,0,0,0
1468,-6.0,-5.0,62.0,1645448033.5,P19,D04,0,0,0
1469,-7.0,-5.0,62.0,1645448033.53125,P19,D04,0,0,0
1470,-6.0,-5.0,62.0,1645448033.5625,P19,D04,0,0,0
1471,-6.0,-5.0,62.0,1645448033.59375,P19,D04,0,0,0
1472,-6.0,-5.0,62.0,1645448033.625,P19,D04,0,0,0
1473,-6.0,-5.0,62.0,1645448033.65625,P19,D04,0,0,0
1474,-6.0,-5.0,62.0,1645448033.6875,P19,D04,0,0,0
1475,-6.0,-5.0,62.0,1645448033.71875,P19,D04,0,0,0
1476,-6.0,-5.0,62.0,1645448033.75,P19,D04,0,0,0
1477,-6.0,-5.0,62.0,1645448033.78125,P19,D04,0,0,0
1478,-6.0,-5.0,62.0,1645448033.8125,P19,D04,0,0,0
1479,-6.0,-5.0,62.0,1645448033.84375,P19,D04,0,0,0
1480,-6.0,-5.0,62.0,1645448033.875,P19,D04,0,0,0
1481,-6.0,-5.0,62.0,1645448033.90625,P19,D04,0,0,0
1482,-6.0,-5.0,62.0,1645448033.9375,P19,D04,0,0,0
1483,-6.0,-5.0,62.0,1645448033.96875,P19,D04,0,0,0
1484,-6.0,-5.0,62.0,1645448034.0,P19,D04,0,0,0
1485,-6.0,-5.0,62.0,1645448034.03125,P19,D04,0,0,0
1486,-6.0,-5.0,62.0,1645448034.0625,P19,D04,0,0,0
1487,-6.0,-5.0,62.0,1645448034.09375,P19,D04,0,0,0
1488,-6.0,-5.0,62.0,1645448034.125,P19,D04,0,0,0
1489,-6.0,-5.0,62.0,1645448034.15625,P19,D04,0,0,0
1490,-6.0,-5.0,62.0,1645448034.1875,P19,D04,0,0,0
1491,-6.0,-5.0,62.0,1645448034.21875,P19,D04,0,0,0
1492,-6.0,-5.0,62.0,1645448034.25,P19,D04,0,0,0
1493,-6.0,-5.0,62.0,1645448034.28125,P19,D04,0,0,0
1494,-6.0,-5.0,62.0,1645448034.3125,P19,D04,0,0,0
1495,-6.0,-5.0,62.0,1645448034.34375,P19,D04,0,0,0
1496,-6.0,-5.0,62.0,1645448034.375,P19,D04,0,0,0
1497,-6.0,-5.0,62.0,1645448034.40625,P19,D04,0,0,0
1498,-6.0,-5.0,62.0,1645448034.4375,P19,D04,0,0,0
1499,-6.0,-5.0,62.0,1645448034.46875,P19,D04,0,0,0
1500,-6.0,-5.0,62.0,1645448034.5,P19,D04,0,0,0
1501,-6.0,-5.0,62.0,1645448034.53125,P19,D04,0,0,0
1502,-6.0,-5.0,62.0,1645448034.5625,P19,D04,0,0,0
1503,-6.0,-5.0,62.0,1645448034.59375,P19,D04,0,0,0
1504,-6.0,-5.0,62.0,1645448034.625,P19,D04,0,0,0
1505,-6.0,-5.0,62.0,1645448034.65625,P19,D04,0,0,0
1506,-6.0,-5.0,62.0,1645448034.6875,P19,D04,0,0,0
1507,-6.0,-5.0,62.0,1645448034.71875,P19,D04,0,0,0
1508,-6.0,-5.0,62.0,1645448034.75,P19,D04,0,0,0
1509,-6.0,-5.0,62.0,1645448034.78125,P19,D04,0,0,0
1510,-6.0,-5.0,62.0,1645448034.8125,P19,D04,0,0,0
1511,-6.0,-5.0,62.0,1645448034.84375,P19,D04,0,0,0
1512,-6.0,-5.0,62.0,1645448034.875,P19,D04,0,0,0
1513,-6.0,-5.0,62.0,1645448034.90625,P19,D04,0,0,0
1514,-6.0,-5.0,62.0,1645448034.9375,P19,D04,0,0,0
1515,-6.0,-5.0,62.0,1645448034.96875,P19,D04,0,0,0
1516,-6.0,-5.0,62.0,1645448035.0,P19,D04,0,0,0
1517,-6.0,-5.0,62.0,1645448035.03125,P19,D04,0,0,0
1518,-6.0,-5.0,62.0,1645448035.0625,P19,D04,0,0,0
1519,-6.0,-5.0,62.0,1645448035.09375,P19,D04,0,0,0
1520,-6.0,-5.0,62.0,1645448035.125,P19,D04,0,0,0
1521,-6.0,-5.0,62.0,1645448035.15625,P19,D04,0,0,0
1522,-6.0,-5.0,62.0,1645448035.1875,P19,D04,0,0,0
1523,-6.0,-5.0,62.0,1645448035.21875,P19,D04,0,0,0
1524,-6.0,-5.0,62.0,1645448035.25,P19,D04,0,0,0
1525,-6.0,-5.0,62.0,1645448035.28125,P19,D04,0,0,0
1526,-6.0,-5.0,62.0,1645448035.3125,P19,D04,0,0,0
1527,-6.0,-5.0,62.0,1645448035.34375,P19,D04,0,0,0
1528,-6.0,-5.0,62.0,1645448035.375,P19,D04,0,0,0
1529,-6.0,-5.0,62.0,1645448035.40625,P19,D04,0,0,0
1530,-6.0,-5.0,62.0,1645448035.4375,P19,D04,0,0,0
1531,-6.0,-5.0,62.0,1645448035.46875,P19,D04,0,0,0
1532,-6.0,-5.0,62.0,1645448035.5,P19,D04,0,0,0
1533,-6.0,-5.0,62.0,1645448035.53125,P19,D04,0,0,0
1534,-6.0,-5.0,62.0,1645448035.5625,P19,D04,0,0,0
1535,-6.0,-5.0,62.0,1645448035.59375,P19,D04,0,0,0
1536,-6.0,-5.0,62.0,1645448035.625,P19,D04,0,0,0
1537,-6.0,-5.0,62.0,1645448035.65625,P19,D04,0,0,0
1538,-6.0,-5.0,62.0,1645448035.6875,P19,D04,0,0,0
1539,-6.0,-5.0,62.0,1645448035.71875,P19,D04,0,0,0
1540,-6.0,-5.0,62.0,1645448035.75,P19,D04,0,0,0
1541,-6.0,-5.0,62.0,1645448035.78125,P19,D04,0,0,0
1542,-6.0,-5.0,62.0,1645448035.8125,P19,D04,0,0,0
1543,-6.0,-5.0,62.0,1645448035.84375,P19,D04,0,0,0
1544,-6.0,-5.0,62.0,1645448035.875,P19,D04,0,0,0
1545,-6.0,-5.0,62.0,1645448035.90625,P19,D04,0,0,0
1546,-6.0,-5.0,62.0,1645448035.9375,P19,D04,0,0,0
1547,-6.0,-5.0,62.0,1645448035.96875,P19,D04,0,0,0
1548,-6.0,-5.0,62.0,1645448036.0,P19,D04,0,0,0
1549,-6.0,-5.0,62.0,1645448036.03125,P19,D04,0,0,0
1550,-6.0,-5.0,62.0,1645448036.0625,P19,D04,0,0,0
1551,-6.0,-5.0,62.0,1645448036.09375,P19,D04,0,0,0
1552,-6.0,-5.0,62.0,1645448036.125,P19,D04,0,0,0
1553,-6.0,-5.0,62.0,1645448036.15625,P19,D04,0,0,0
1554,-6.0,-5.0,62.0,1645448036.1875,P19,D04,0,0,0
1555,-6.0,-5.0,62.0,1645448036.21875,P19,D04,0,0,0
1556,-6.0,-5.0,62.0,1645448036.25,P19,D04,0,0,0
1557,-6.0,-5.0,62.0,1645448036.28125,P19,D04,0,0,0
1558,-6.0,-5.0,62.0,1645448036.3125,P19,D04,0,0,0
1559,-6.0,-5.0,62.0,1645448036.34375,P19,D04,0,0,0
1560,-6.0,-5.0,62.0,1645448036.375,P19,D04,0,0,0
1561,-7.0,-5.0,62.0,1645448036.40625,P19,D04,0,0,0
1562,-6.0,-5.0,62.0,1645448036.4375,P19,D04,0,0,0
1563,-6.0,-5.0,62.0,1645448036.46875,P19,D04,0,0,0
1564,-6.0,-5.0,62.0,1645448036.5,P19,D04,0,0,0
1565,-6.0,-5.0,62.0,1645448036.53125,P19,D04,0,0,0
1566,-6.0,-5.0,62.0,1645448036.5625,P19,D04,0,0,0
1567,-6.0,-5.0,62.0,1645448036.59375,P19,D04,0,0,0
1568,-6.0,-5.0,62.0,1645448036.625,P19,D04,0,0,0
1569,-6.0,-5.0,62.0,1645448036.65625,P19,D04,0,0,0
1570,-6.0,-5.0,62.0,1645448036.6875,P19,D04,0,0,0
1571,-6.0,-5.0,62.0,1645448036.71875,P19,D04,0,0,0
1572,-6.0,-5.0,62.0,1645448036.75,P19,D04,0,0,0
1573,-6.0,-5.0,62.0,1645448036.78125,P19,D04,0,0,0
1574,-6.0,-5.0,62.0,1645448036.8125,P19,D04,0,0,0
1575,-6.0,-5.0,62.0,1645448036.84375,P19,D04,0,0,0
1576,-7.0,-5.0,62.0,1645448036.875,P19,D04,0,0,0
1577,-6.0,-5.0,62.0,1645448036.90625,P19,D04,0,0,0
1578,-6.0,-5.0,62.0,1645448036.9375,P19,D04,0,0,0
1579,-6.0,-5.0,62.0,1645448036.96875,P19,D04,0,0,0
1580,-6.0,-5.0,62.0,1645448037.0,P19,D04,0,0,0
1581,-6.0,-5.0,62.0,1645448037.03125,P19,D04,0,0,0
1582,-6.0,-5.0,62.0,1645448037.0625,P19,D04,0,0,0
1583,-6.0,-5.0,62.0,1645448037.09375,P19,D04,0,0,0
1584,-6.0,-5.0,62.0,1645448037.125,P19,D04,0,0,0
1585,-6.0,-5.0,62.0,1645448037.15625,P19,D04,0,0,0
1586,-6.0,-5.0,62.0,1645448037.1875,P19,D04,0,0,0
1587,-6.0,-5.0,62.0,1645448037.21875,P19,D04,0,0,0
1588,-6.0,-5.0,62.0,1645448037.25,P19,D04,0,0,0
1589,-6.0,-5.0,62.0,1645448037.28125,P19,D04,0,0,0
1590,-6.0,-5.0,62.0,1645448037.3125,P19,D04,0,0,0
1591,-6.0,-5.0,62.0,1645448037.34375,P19,D04,0,0,0
1592,-6.0,-5.0,62.0,1645448037.375,P19,D04,0,0,0
1593,-6.0,-5.0,62.0,1645448037.40625,P19,D04,0,0,0
1594,-6.0,-5.0,62.0,1645448037.4375,P19,D04,0,0,0
1595,-6.0,-5.0,62.0,1645448037.46875,P19,D04,0,0,0
1596,-6.0,-5.0,62.0,1645448037.5,P19,D04,0,0,0
1597,-6.0,-5.0,62.0,1645448037.53125,P19,D04,0,0,0
1598,-6.0,-5.0,62.0,1645448037.5625,P19,D04,0,0,0
1599,-6.0,-5.0,62.0,1645448037.59375,P19,D04,0,0,0
1600,-7.0,-5.0,62.0,1645448037.625,P19,D04,0,0,0
1601,-6.0,-5.0,62.0,1645448037.65625,P19,D04,0,0,0
1602,-6.0,-5.0,62.0,1645448037.6875,P19,D04,0,0,0
1603,-7.0,-5.0,62.0,1645448037.71875,P19,D04,0,0,0
1604,-6.0,-5.0,62.0,1645448037.75,P19,D04,0,0,0
1605,-6.0,-5.0,62.0,1645448037.78125,P19,D04,0,0,0
1606,-6.0,-5.0,62.0,1645448037.8125,P19,D04,0,0,0
1607,-6.0,-5.0,62.0,1645448037.84375,P19,D04,0,0,0
1608,-6.0,-5.0,62.0,1645448037.875,P19,D04,0,0,0
1609,-6.0,-5.0,62.0,1645448037.90625,P19,D04,0,0,0
1610,-6.0,-5.0,62.0,1645448037.9375,P19,D04,0,0,0
1611,-6.0,-5.0,62.0,1645448037.96875,P19,D04,0,0,0
1612,-6.0,-5.0,62.0,1645448038.0,P19,D04,0,0,0
1613,-6.0,-5.0,62.0,1645448038.03125,P19,D04,0,0,0
1614,-6.0,-5.0,62.0,1645448038.0625,P19,D04,0,0,0
1615,-6.0,-5.0,62.0,1645448038.09375,P19,D04,0,0,0
1616,-6.0,-5.0,62.0,1645448038.125,P19,D04,0,0,0
1617,-6.0,-5.0,62.0,1645448038.15625,P19,D04,0,0,0
1618,-6.0,-5.0,62.0,1645448038.1875,P19,D04,0,0,0
1619,-6.0,-5.0,62.0,1645448038.21875,P19,D04,0,0,0
1620,-6.0,-5.0,62.0,1645448038.25,P19,D04,0,0,0
1621,-6.0,-5.0,62.0,1645448038.28125,P19,D04,0,0,0
1622,-7.0,-5.0,62.0,1645448038.3125,P19,D04,0,0,0
1623,-6.0,-5.0,62.0,1645448038.34375,P19,D04,0,0,0
1624,-6.0,-5.0,62.0,1645448038.375,P19,D04,0,0,0
1625,-7.0,-5.0,62.0,1645448038.40625,P19,D04,0,0,0
1626,-7.0,-5.0,62.0,1645448038.4375,P19,D04,0,0,0
1627,-6.0,-5.0,62.0,1645448038.46875,P19,D04,0,0,0
1628,-6.0,-5.0,62.0,1645448038.5,P19,D04,0,0,0
1629,-6.0,-5.0,62.0,1645448038.53125,P19,D04,0,0,0
1630,-6.0,-5.0,62.0,1645448038.5625,P19,D04,0,0,0
1631,-6.0,-5.0,62.0,1645448038.59375,P19,D04,0,0,0
1632,-6.0,-5.0,62.0,1645448038.625,P19,D04,0,0,0
1633,-6.0,-5.0,62.0,1645448038.65625,P19,D04,0,0,0
1634,-6.0,-5.0,62.0,1645448038.6875,P19,D04,0,0,0
1635,-6.0,-5.0,62.0,1645448038.71875,P19,D04,0,0,0
1636,-6.0,-5.0,62.0,1645448038.75,P19,D04,0,0,0
1637,-6.0,-5.0,62.0,1645448038.78125,P19,D04,0,0,0
1638,-6.0,-5.0,62.0,1645448038.8125,P19,D04,0,0,0
1639,-6.0,-5.0,62.0,1645448038.84375,P19,D04,0,0,0
1640,-6.0,-5.0,62.0,1645448038.875,P19,D04,0,0,0
1641,-6.0,-5.0,62.0,1645448038.90625,P19,D04,0,0,0
1642,-6.0,-5.0,62.0,1645448038.9375,P19,D04,0,0,0
1643,-6.0,-5.0,62.0,1645448038.96875,P19,D04,0,0,0
1644,-6.0,-5.0,62.0,1645448039.0,P19,D04,0,0,0
1645,-6.0,-5.0,62.0,1645448039.03125,P19,D04,0,0,0
1646,-6.0,-5.0,62.0,1645448039.0625,P19,D04,0,0,0
1647,-6.0,-5.0,62.0,1645448039.09375,P19,D04,0,0,0
1648,-6.0,-5.0,62.0,1645448039.125,P19,D04,0,0,0
1649,-6.0,-5.0,62.0,1645448039.15625,P19,D04,0,0,0
1650,-6.0,-5.0,62.0,1645448039.1875,P19,D04,0,0,0
1651,-6.0,-5.0,62.0,1645448039.21875,P19,D04,0,0,0
1652,-6.0,-5.0,62.0,1645448039.25,P19,D04,0,0,0
1653,-6.0,-5.0,62.0,1645448039.28125,P19,D04,0,0,0
1654,-6.0,-5.0,62.0,1645448039.3125,P19,D04,0,0,0
1655,-6.0,-5.0,62.0,1645448039.34375,P19,D04,0,0,0
1656,-6.0,-5.0,62.0,1645448039.375,P19,D04,0,0,0
1657,-6.0,-5.0,62.0,1645448039.40625,P19,D04,0,0,0
1658,-6.0,-5.0,62.0,1645448039.4375,P19,D04,0,0,0
1659,-6.0,-5.0,62.0,1645448039.46875,P19,D04,0,0,0
1660,-6.0,-5.0,62.0,1645448039.5,P19,D04,0,0,0
1661,-6.0,-5.0,62.0,1645448039.53125,P19,D04,0,0,0
1662,-6.0,-5.0,62.0,1645448039.5625,P19,D04,0,0,0
1663,-6.0,-5.0,62.0,1645448039.59375,P19,D04,0,0,0
1664,-7.0,-5.0,62.0,1645448039.625,P19,D04,0,0,0
1665,-6.0,-5.0,62.0,1645448039.65625,P19,D04,0,0,0
1666,-6.0,-5.0,62.0,1645448039.6875,P19,D04,0,0,0
1667,-7.0,-5.0,62.0,1645448039.71875,P19,D04,0,0,0
1668,-6.0,-5.0,62.0,1645448039.75,P19,D04,0,0,0
1669,-5.0,-5.0,62.0,1645448039.78125,P19,D04,0,0,0
1670,-6.0,-5.0,62.0,1645448039.8125,P19,D04,0,0,0
1671,-7.0,-5.0,62.0,1645448039.84375,P19,D04,0,0,0
1672,-6.0,-5.0,62.0,1645448039.875,P19,D04,0,0,0
1673,-6.0,-5.0,62.0,1645448039.90625,P19,D04,0,0,0
1674,-6.0,-5.0,62.0,1645448039.9375,P19,D04,0,0,0
1675,-6.0,-5.0,62.0,1645448039.96875,P19,D04,0,0,0
1676,-6.0,-5.0,62.0,1645448040.0,P19,D04,0,0,0
1677,-6.0,-5.0,62.0,1645448040.03125,P19,D04,0,0,0
1678,-6.0,-5.0,62.0,1645448040.0625,P19,D04,0,0,0
1679,-6.0,-5.0,62.0,1645448040.09375,P19,D04,0,0,0
1680,-6.0,-5.0,62.0,1645448040.125,P19,D04,0,0,0
1681,-6.0,-5.0,62.0,1645448040.15625,P19,D04,0,0,0
1682,-6.0,-5.0,62.0,1645448040.1875,P19,D04,0,0,0
1683,-6.0,-5.0,62.0,1645448040.21875,P19,D04,0,0,0
1684,-6.0,-5.0,62.0,1645448040.25,P19,D04,0,0,0
1685,-6.0,-5.0,62.0,1645448040.28125,P19,D04,0,0,0
1686,-6.0,-5.0,62.0,1645448040.3125,P19,D04,0,0,0
1687,-7.0,-5.0,62.0,1645448040.34375,P19,D04,0,0,0
1688,-6.0,-5.0,62.0,1645448040.375,P19,D04,0,0,0
1689,-6.0,-5.0,62.0,1645448040.40625,P19,D04,0,0,0
1690,-6.0,-5.0,62.0,1645448040.4375,P19,D04,0,0,0
1691,-6.0,-5.0,62.0,1645448040.46875,P19,D04,0,0,0
1692,-7.0,-5.0,62.0,1645448040.5,P19,D04,0,0,0
1693,-6.0,-5.0,62.0,1645448040.53125,P19,D04,0,0,0
1694,-6.0,-5.0,62.0,1645448040.5625,P19,D04,0,0,0
1695,-6.0,-5.0,62.0,1645448040.59375,P19,D04,0,0,0
1696,-6.0,-5.0,62.0,1645448040.625,P19,D04,0,0,0
1697,-6.0,-5.0,62.0,1645448040.65625,P19,D04,0,0,0
1698,-6.0,-5.0,62.0,1645448040.6875,P19,D04,0,0,0
1699,-6.0,-5.0,62.0,1645448040.71875,P19,D04,0,0,0
1700,-6.0,-5.0,62.0,1645448040.75,P19,D04,0,0,0
1701,-6.0,-5.0,62.0,1645448040.78125,P19,D04,0,0,0
1702,-6.0,-5.0,62.0,1645448040.8125,P19,D04,0,0,0
1703,-6.0,-5.0,62.0,1645448040.84375,P19,D04,0,0,0
1704,-6.0,-5.0,62.0,1645448040.875,P19,D04,0,0,0
1705,-6.0,-5.0,62.0,1645448040.90625,P19,D04,0,0,0
1706,-6.0,-5.0,62.0,1645448040.9375,P19,D04,0,0,0
1707,-6.0,-5.0,62.0,1645448040.96875,P19,D04,0,0,0
1708,-6.0,-5.0,62.0,1645448041.0,P19,D04,0,0,0
1709,-6.0,-5.0,62.0,1645448041.03125,P19,D04,0,0,0
1710,-6.0,-5.0,62.0,1645448041.0625,P19,D04,0,0,0
1711,-6.0,-5.0,62.0,1645448041.09375,P19,D04,0,0,0
1712,-6.0,-5.0,62.0,1645448041.125,P19,D04,0,0,0
1713,-6.0,-5.0,62.0,1645448041.15625,P19,D04,0,0,0
1714,-6.0,-5.0,62.0,1645448041.1875,P19,D04,0,0,0
1715,-7.0,-5.0,62.0,1645448041.21875,P19,D04,0,0,0
1716,-6.0,-5.0,62.0,1645448041.25,P19,D04,0,0,0
1717,-6.0,-5.0,62.0,1645448041.28125,P19,D04,0,0,0
1718,-6.0,-5.0,62.0,1645448041.3125,P19,D04,0,0,0
1719,-6.0,-5.0,62.0,1645448041.34375,P19,D04,0,0,0
1720,-6.0,-5.0,62.0,1645448041.375,P19,D04,0,0,0
1721,-7.0,-5.0,62.0,1645448041.40625,P19,D04,0,0,0
1722,-6.0,-5.0,62.0,1645448041.4375,P19,D04,0,0,0
1723,-6.0,-5.0,62.0,1645448041.46875,P19,D04,0,0,0
1724,-6.0,-5.0,62.0,1645448041.5,P19,D04,0,0,0
1725,-6.0,-5.0,62.0,1645448041.53125,P19,D04,0,0,0
1726,-6.0,-5.0,62.0,1645448041.5625,P19,D04,0,0,0
1727,-6.0,-5.0,62.0,1645448041.59375,P19,D04,0,0,0
1728,-6.0,-5.0,62.0,1645448041.625,P19,D04,0,0,0
1729,-6.0,-5.0,62.0,1645448041.65625,P19,D04,0,0,0
1730,-6.0,-5.0,62.0,1645448041.6875,P19,D04,0,0,0
1731,-7.0,-5.0,62.0,1645448041.71875,P19,D04,0,0,0
1732,-6.0,-5.0,62.0,1645448041.75,P19,D04,0,0,0
1733,-6.0,-5.0,62.0,1645448041.78125,P19,D04,0,0,0
1734,-6.0,-5.0,62.0,1645448041.8125,P19,D04,0,0,0
1735,-6.0,-5.0,62.0,1645448041.84375,P19,D04,0,0,0
1736,-6.0,-5.0,62.0,1645448041.875,P19,D04,0,0,0
1737,-6.0,-5.0,62.0,1645448041.90625,P19,D04,0,0,0
1738,-6.0,-5.0,62.0,1645448041.9375,P19,D04,0,0,0
1739,-6.0,-5.0,62.0,1645448041.96875,P19,D04,0,0,0
1740,-6.0,-5.0,62.0,1645448042.0,P19,D04,0,0,0
1741,-6.0,-5.0,62.0,1645448042.03125,P19,D04,0,0,0
1742,-6.0,-5.0,62.0,1645448042.0625,P19,D04,0,0,0
1743,-6.0,-5.0,62.0,1645448042.09375,P19,D04,0,0,0
1744,-7.0,-5.0,62.0,1645448042.125,P19,D04,0,0,0
1745,-6.0,-5.0,62.0,1645448042.15625,P19,D04,0,0,0
1746,-6.0,-5.0,62.0,1645448042.1875,P19,D04,0,0,0
1747,-6.0,-5.0,62.0,1645448042.21875,P19,D04,0,0,0
1748,-6.0,-5.0,62.0,1645448042.25,P19,D04,0,0,0
1749,-6.0,-5.0,62.0,1645448042.28125,P19,D04,0,0,0
1750,-6.0,-5.0,62.0,1645448042.3125,P19,D04,0,0,0
1751,-6.0,-5.0,62.0,1645448042.34375,P19,D04,0,0,0
1752,-6.0,-5.0,62.0,1645448042.375,P19,D04,0,0,0
1753,-6.0,-5.0,62.0,1645448042.40625,P19,D04,0,0,0
1754,-6.0,-5.0,62.0,1645448042.4375,P19,D04,0,0,0
1755,-6.0,-5.0,62.0,1645448042.46875,P19,D04,0,0,0
1756,-6.0,-5.0,62.0,1645448042.5,P19,D04,0,0,0
1757,-7.0,-5.0,62.0,1645448042.53125,P19,D04,0,0,0
1758,-6.0,-5.0,62.0,1645448042.5625,P19,D04,0,0,0
1759,-6.0,-5.0,62.0,1645448042.59375,P19,D04,0,0,0
1760,-6.0,-5.0,62.0,1645448042.625,P19,D04,0,0,0
1761,-6.0,-5.0,62.0,1645448042.65625,P19,D04,0,0,0
1762,-6.0,-5.0,62.0,1645448042.6875,P19,D04,0,0,0
1763,-6.0,-5.0,62.0,1645448042.71875,P19,D04,0,0,0
1764,-6.0,-5.0,62.0,1645448042.75,P19,D04,0,0,0
1765,-6.0,-5.0,62.0,1645448042.78125,P19,D04,0,0,0
1766,-6.0,-5.0,62.0,1645448042.8125,P19,D04,0,0,0
1767,-6.0,-5.0,62.0,1645448042.84375,P19,D04,0,0,0
1768,-6.0,-5.0,62.0,1645448042.875,P19,D04,0,0,0
1769,-6.0,-5.0,62.0,1645448042.90625,P19,D04,0,0,0
1770,-6.0,-5.0,62.0,1645448042.9375,P19,D04,0,0,0
1771,-6.0,-5.0,62.0,1645448042.96875,P19,D04,0,0,0
1772,-6.0,-5.0,62.0,1645448043.0,P19,D04,0,0,0
1773,-6.0,-5.0,62.0,1645448043.03125,P19,D04,0,0,0
1774,-6.0,-5.0,62.0,1645448043.0625,P19,D04,0,0,0
1775,-6.0,-5.0,62.0,1645448043.09375,P19,D04,0,0,0
1776,-6.0,-5.0,62.0,1645448043.125,P19,D04,0,0,0
1777,-6.0,-5.0,62.0,1645448043.15625,P19,D04,0,0,0
1778,-6.0,-5.0,62.0,1645448043.1875,P19,D04,0,0,0
1779,-6.0,-5.0,62.0,1645448043.21875,P19,D04,0,0,0
1780,-6.0,-5.0,62.0,1645448043.25,P19,D04,0,0,0
1781,-6.0,-5.0,62.0,1645448043.28125,P19,D04,0,0,0
1782,-6.0,-5.0,62.0,1645448043.3125,P19,D04,0,0,0
1783,-6.0,-5.0,62.0,1645448043.34375,P19,D04,0,0,0
1784,-6.0,-5.0,62.0,1645448043.375,P19,D04,0,0,0
1785,-6.0,-5.0,62.0,1645448043.40625,P19,D04,0,0,0
1786,-6.0,-5.0,62.0,1645448043.4375,P19,D04,0,0,0
1787,-6.0,-5.0,62.0,1645448043.46875,P19,D04,0,0,0
1788,-6.0,-5.0,62.0,1645448043.5,P19,D04,0,0,0
1789,-6.0,-5.0,62.0,1645448043.53125,P19,D04,0,0,0
1790,-6.0,-5.0,62.0,1645448043.5625,P19,D04,0,0,0
1791,-6.0,-5.0,62.0,1645448043.59375,P19,D04,0,0,0
1792,-6.0,-5.0,62.0,1645448043.625,P19,D04,0,0,0
1793,-6.0,-5.0,62.0,1645448043.65625,P19,D04,0,0,0
1794,-6.0,-5.0,62.0,1645448043.6875,P19,D04,0,0,0
1795,-6.0,-5.0,62.0,1645448043.71875,P19,D04,0,0,0
1796,-6.0,-5.0,62.0,1645448043.75,P19,D04,0,0,0
1797,-6.0,-5.0,62.0,1645448043.78125,P19,D04,0,0,0
1798,-6.0,-5.0,62.0,1645448043.8125,P19,D04,0,0,0
1799,-6.0,-5.0,62.0,1645448043.84375,P19,D04,0,0,0
1800,-6.0,-5.0,62.0,1645448043.875,P19,D04,0,0,0
1801,-6.0,-5.0,62.0,1645448043.90625,P19,D04,0,0,0
1802,-6.0,-5.0,62.0,1645448043.9375,P19,D04,0,0,0
1803,-6.0,-5.0,62.0,1645448043.96875,P19,D04,0,0,0
1804,-6.0,-5.0,62.0,1645448044.0,P19,D04,0,0,0
1805,-7.0,-5.0,62.0,1645448044.03125,P19,D04,0,0,0
1806,-6.0,-5.0,62.0,1645448044.0625,P19,D04,0,0,0
1807,-6.0,-5.0,62.0,1645448044.09375,P19,D04,0,0,0
1808,-6.0,-5.0,62.0,1645448044.125,P19,D04,0,0,0
1809,-6.0,-5.0,62.0,1645448044.15625,P19,D04,0,0,0
1810,-6.0,-5.0,62.0,1645448044.1875,P19,D04,0,0,0
1811,-6.0,-5.0,62.0,1645448044.21875,P19,D04,0,0,0
1812,-6.0,-5.0,62.0,1645448044.25,P19,D04,0,0,0
1813,-6.0,-5.0,62.0,1645448044.28125,P19,D04,0,0,0
1814,-6.0,-5.0,62.0,1645448044.3125,P19,D04,0,0,0
1815,-6.0,-5.0,62.0,1645448044.34375,P19,D04,0,0,0
1816,-6.0,-5.0,62.0,1645448044.375,P19,D04,0,0,0
1817,-6.0,-5.0,62.0,1645448044.40625,P19,D04,0,0,0
1818,-6.0,-5.0,62.0,1645448044.4375,P19,D04,0,0,0
1819,-6.0,-5.0,62.0,1645448044.46875,P19,D04,0,0,0
1820,-6.0,-5.0,62.0,1645448044.5,P19,D04,0,0,0
1821,-6.0,-5.0,62.0,1645448044.53125,P19,D04,0,0,0
1822,-6.0,-5.0,62.0,1645448044.5625,P19,D04,0,0,0
1823,-6.0,-5.0,62.0,1645448044.59375,P19,D04,0,0,0
1824,-6.0,-5.0,62.0,1645448044.625,P19,D04,0,0,0
1825,-6.0,-5.0,62.0,1645448044.65625,P19,D04,0,0,0
1826,-6.0,-5.0,62.0,1645448044.6875,P19,D04,0,0,0
1827,-6.0,-5.0,62.0,1645448044.71875,P19,D04,0,0,0
1828,-6.0,-5.0,62.0,1645448044.75,P19,D04,0,0,0
1829,-6.0,-5.0,62.0,1645448044.78125,P19,D04,0,0,0
1830,-6.0,-5.0,62.0,1645448044.8125,P19,D04,0,0,0
1831,-6.0,-5.0,62.0,1645448044.84375,P19,D04,0,0,0
1832,-6.0,-5.0,62.0,1645448044.875,P19,D04,0,0,0
1833,-6.0,-5.0,62.0,1645448044.90625,P19,D04,0,0,0
1834,-6.0,-5.0,62.0,1645448044.9375,P19,D04,0,0,0
1835,-6.0,-5.0,62.0,1645448044.96875,P19,D04,0,0,0
1836,-6.0,-5.0,62.0,1645448045.0,P19,D04,0,0,0
1837,-6.0,-5.0,62.0,1645448045.03125,P19,D04,0,0,0
1838,-6.0,-5.0,62.0,1645448045.0625,P19,D04,0,0,0
1839,-6.0,-5.0,62.0,1645448045.09375,P19,D04,0,0,0
1840,-6.0,-5.0,62.0,1645448045.125,P19,D04,0,0,0
1841,-6.0,-5.0,62.0,1645448045.15625,P19,D04,0,0,0
1842,-6.0,-5.0,62.0,1645448045.1875,P19,D04,0,0,0
1843,-6.0,-5.0,62.0,1645448045.21875,P19,D04,0,0,0
1844,-6.0,-5.0,62.0,1645448045.25,P19,D04,0,0,0
1845,-6.0,-5.0,62.0,1645448045.28125,P19,D04,0,0,0
1846,-6.0,-5.0,62.0,1645448045.3125,P19,D04,0,0,0
1847,-6.0,-5.0,62.0,1645448045.34375,P19,D04,0,0,0
1848,-6.0,-5.0,62.0,1645448045.375,P19,D04,0,0,0
1849,-6.0,-5.0,62.0,1645448045.40625,P19,D04,0,0,0
1850,-6.0,-5.0,62.0,1645448045.4375,P19,D04,0,0,0
1851,-6.0,-5.0,62.0,1645448045.46875,P19,D04,0,0,0
1852,-6.0,-5.0,62.0,1645448045.5,P19,D04,0,0,0
1853,-6.0,-5.0,62.0,1645448045.53125,P19,D04,0,0,0
1854,-6.0,-5.0,62.0,1645448045.5625,P19,D04,0,0,0
1855,-6.0,-5.0,62.0,1645448045.59375,P19,D04,0,0,0
1856,-6.0,-5.0,62.0,1645448045.625,P19,D04,0,0,0
1857,-6.0,-5.0,62.0,1645448045.65625,P19,D04,0,0,0
1858,-6.0,-5.0,62.0,1645448045.6875,P19,D04,0,0,0
1859,-6.0,-5.0,62.0,1645448045.71875,P19,D04,0,0,0
1860,-6.0,-5.0,62.0,1645448045.75,P19,D04,0,0,0
1861,-7.0,-5.0,62.0,1645448045.78125,P19,D04,0,0,0
1862,-6.0,-5.0,62.0,1645448045.8125,P19,D04,0,0,0
1863,-6.0,-5.0,62.0,1645448045.84375,P19,D04,0,0,0
1864,-6.0,-5.0,62.0,1645448045.875,P19,D04,0,0,0
1865,-6.0,-5.0,62.0,1645448045.90625,P19,D04,0,0,0
1866,-6.0,-5.0,62.0,1645448045.9375,P19,D04,0,0,0
1867,-6.0,-5.0,62.0,1645448045.96875,P19,D04,0,0,0
1868,-7.0,-5.0,62.0,1645448046.0,P19,D04,0,0,0
1869,-6.0,-5.0,62.0,1645448046.03125,P19,D04,0,0,0
1870,-6.0,-5.0,62.0,1645448046.0625,P19,D04,0,0,0
1871,-7.0,-5.0,62.0,1645448046.09375,P19,D04,0,0,0
1872,-7.0,-5.0,62.0,1645448046.125,P19,D04,0,0,0
1873,-6.0,-5.0,62.0,1645448046.15625,P19,D04,0,0,0
1874,-6.0,-5.0,62.0,1645448046.1875,P19,D04,0,0,0
1875,-7.0,-5.0,62.0,1645448046.21875,P19,D04,0,0,0
1876,-5.0,-5.0,62.0,1645448046.25,P19,D04,0,0,0
1877,-7.0,-5.0,62.0,1645448046.28125,P19,D04,0,0,0
1878,-6.0,-5.0,62.0,1645448046.3125,P19,D04,0,0,0
1879,-6.0,-5.0,62.0,1645448046.34375,P19,D04,0,0,0
1880,-6.0,-5.0,62.0,1645448046.375,P19,D04,0,0,0
1881,-6.0,-5.0,62.0,1645448046.40625,P19,D04,0,0,0
1882,-7.0,-5.0,62.0,1645448046.4375,P19,D04,0,0,0
1883,-7.0,-5.0,62.0,1645448046.46875,P19,D04,0,0,0
1884,-6.0,-5.0,62.0,1645448046.5,P19,D04,0,0,0
1885,-6.0,-5.0,62.0,1645448046.53125,P19,D04,0,0,0
1886,-7.0,-5.0,62.0,1645448046.5625,P19,D04,0,0,0
1887,-6.0,-5.0,62.0,1645448046.59375,P19,D04,0,0,0
1888,-6.0,-5.0,62.0,1645448046.625,P19,D04,0,0,0
1889,-7.0,-5.0,62.0,1645448046.65625,P19,D04,0,0,0
1890,-6.0,-5.0,62.0,1645448046.6875,P19,D04,0,0,0
1891,-6.0,-5.0,62.0,1645448046.71875,P19,D04,0,0,0
1892,-6.0,-5.0,62.0,1645448046.75,P19,D04,0,0,0
1893,-7.0,-5.0,62.0,1645448046.78125,P19,D04,0,0,0
1894,-7.0,-5.0,62.0,1645448046.8125,P19,D04,0,0,0
1895,-6.0,-5.0,62.0,1645448046.84375,P19,D04,0,0,0
1896,-6.0,-5.0,62.0,1645448046.875,P19,D04,0,0,0
1897,-6.0,-5.0,62.0,1645448046.90625,P19,D04,0,0,0
1898,-6.0,-5.0,62.0,1645448046.9375,P19,D04,0,0,0
1899,-6.0,-5.0,62.0,1645448046.96875,P19,D04,0,0,0
1900,-6.0,-5.0,62.0,1645448047.0,P19,D04,0,0,0
1901,-6.0,-5.0,62.0,1645448047.03125,P19,D04,0,0,0
1902,-6.0,-5.0,62.0,1645448047.0625,P19,D04,0,0,0
1903,-6.0,-5.0,62.0,1645448047.09375,P19,D04,0,0,0
1904,-6.0,-5.0,62.0,1645448047.125,P19,D04,0,0,0
1905,-6.0,-5.0,62.0,1645448047.15625,P19,D04,0,0,0
1906,-6.0,-5.0,62.0,1645448047.1875,P19,D04,0,0,0
1907,-6.0,-5.0,62.0,1645448047.21875,P19,D04,0,0,0
1908,-6.0,-5.0,62.0,1645448047.25,P19,D04,0,0,0
1909,-6.0,-5.0,62.0,1645448047.28125,P19,D04,0,0,0
1910,-6.0,-5.0,62.0,1645448047.3125,P19,D04,0,0,0
1911,-6.0,-5.0,62.0,1645448047.34375,P19,D04,0,0,0
1912,-6.0,-5.0,62.0,1645448047.375,P19,D04,0,0,0
1913,-6.0,-5.0,62.0,1645448047.40625,P19,D04,0,0,0
1914,-6.0,-5.0,62.0,1645448047.4375,P19,D04,0,0,0
1915,-6.0,-5.0,62.0,1645448047.46875,P19,D04,0,0,0
1916,-6.0,-5.0,62.0,1645448047.5,P19,D04,0,0,0
1917,-7.0,-5.0,62.0,1645448047.53125,P19,D04,0,0,0
1918,-7.0,-5.0,62.0,1645448047.5625,P19,D04,0,0,0
1919,-5.0,-5.0,62.0,1645448047.59375,P19,D04,0,0,0
1920,-6.0,-5.0,62.0,1645448047.625,P19,D04,0,0,0
1921,-7.0,-5.0,62.0,1645448047.65625,P19,D04,0,0,0
1922,-6.0,-5.0,62.0,1645448047.6875,P19,D04,0,0,0
1923,-6.0,-5.0,62.0,1645448047.71875,P19,D04,0,0,0
1924,-7.0,-5.0,62.0,1645448047.75,P19,D04,0,0,0
1925,-6.0,-5.0,62.0,1645448047.78125,P19,D04,0,0,0
1926,-6.0,-5.0,62.0,1645448047.8125,P19,D04,0,0,0
1927,-7.0,-5.0,62.0,1645448047.84375,P19,D04,0,0,0
1928,-6.0,-5.0,62.0,1645448047.875,P19,D04,0,0,0
1929,-6.0,-5.0,62.0,1645448047.90625,P19,D04,0,0,0
1930,-6.0,-5.0,62.0,1645448047.9375,P19,D04,0,0,0
1931,-7.0,-5.0,62.0,1645448047.96875,P19,D04,0,0,0
1932,-6.0,-5.0,62.0,1645448048.0,P19,D04,0,0,0
1933,-6.0,-5.0,62.0,1645448048.03125,P19,D04,0,0,0
1934,-6.0,-5.0,62.0,1645448048.0625,P19,D04,0,0,0
1935,-6.0,-5.0,62.0,1645448048.09375,P19,D04,0,0,0
1936,-6.0,-5.0,62.0,1645448048.125,P19,D04,0,0,0
1937,-6.0,-5.0,62.0,1645448048.15625,P19,D04,0,0,0
1938,-6.0,-5.0,62.0,1645448048.1875,P19,D04,0,0,0
1939,-6.0,-5.0,62.0,1645448048.21875,P19,D04,0,0,0
1940,-6.0,-5.0,62.0,1645448048.25,P19,D04,0,0,0
1941,-6.0,-5.0,62.0,1645448048.28125,P19,D04,0,0,0
1942,-7.0,-5.0,62.0,1645448048.3125,P19,D04,0,0,0
1943,-6.0,-5.0,62.0,1645448048.34375,P19,D04,0,0,0
1944,-6.0,-5.0,62.0,1645448048.375,P19,D04,0,0,0
1945,-6.0,-5.0,62.0,1645448048.40625,P19,D04,0,0,0
1946,-6.0,-5.0,62.0,1645448048.4375,P19,D04,0,0,0
1947,-6.0,-5.0,62.0,1645448048.46875,P19,D04,0,0,0
1948,-6.0,-5.0,62.0,1645448048.5,P19,D04,0,0,0
1949,-6.0,-5.0,62.0,1645448048.53125,P19,D04,0,0,0
1950,-6.0,-5.0,62.0,1645448048.5625,P19,D04,0,0,0
1951,-6.0,-5.0,62.0,1645448048.59375,P19,D04,0,0,0
1952,-6.0,-5.0,62.0,1645448048.625,P19,D04,0,0,0
1953,-6.0,-5.0,62.0,1645448048.65625,P19,D04,0,0,0
1954,-7.0,-5.0,62.0,1645448048.6875,P19,D04,0,0,0
1955,-7.0,-5.0,62.0,1645448048.71875,P19,D04,0,0,0
1956,-6.0,-5.0,62.0,1645448048.75,P19,D04,0,0,0
1957,-7.0,-5.0,62.0,1645448048.78125,P19,D04,0,0,0
1958,-7.0,-5.0,62.0,1645448048.8125,P19,D04,0,0,0
1959,-6.0,-5.0,62.0,1645448048.84375,P19,D04,0,0,0
1960,-6.0,-5.0,62.0,1645448048.875,P19,D04,0,0,0
1961,-6.0,-5.0,62.0,1645448048.90625,P19,D04,0,0,0
1962,-6.0,-5.0,62.0,1645448048.9375,P19,D04,0,0,0
1963,-6.0,-5.0,62.0,1645448048.96875,P19,D04,0,0,0
1964,-6.0,-5.0,62.0,1645448049.0,P19,D04,0,0,0
1965,-6.0,-5.0,62.0,1645448049.03125,P19,D04,0,0,0
1966,-6.0,-5.0,62.0,1645448049.0625,P19,D04,0,0,0
1967,-6.0,-5.0,62.0,1645448049.09375,P19,D04,0,0,0
1968,-6.0,-5.0,62.0,1645448049.125,P19,D04,0,0,0
1969,-6.0,-5.0,62.0,1645448049.15625,P19,D04,0,0,0
1970,-6.0,-5.0,62.0,1645448049.1875,P19,D04,0,0,0
1971,-6.0,-5.0,62.0,1645448049.21875,P19,D04,0,0,0
1972,-6.0,-5.0,62.0,1645448049.25,P19,D04,0,0,0
1973,-6.0,-5.0,62.0,1645448049.28125,P19,D04,0,0,0
1974,-6.0,-5.0,62.0,1645448049.3125,P19,D04,0,0,0
1975,-6.0,-5.0,62.0,1645448049.34375,P19,D04,0,0,0
1976,-7.0,-5.0,62.0,1645448049.375,P19,D04,0,0,0
1977,-6.0,-5.0,62.0,1645448049.40625,P19,D04,0,0,0
1978,-6.0,-5.0,62.0,1645448049.4375,P19,D04,0,0,0
1979,-6.0,-5.0,62.0,1645448049.46875,P19,D04,0,0,0
1980,-6.0,-5.0,62.0,1645448049.5,P19,D04,0,0,0
1981,-6.0,-5.0,62.0,1645448049.53125,P19,D04,0,0,0
1982,-6.0,-5.0,62.0,1645448049.5625,P19,D04,0,0,0
1983,-6.0,-5.0,62.0,1645448049.59375,P19,D04,0,0,0
1984,-6.0,-5.0,62.0,1645448049.625,P19,D04,0,0,0
1985,-6.0,-5.0,62.0,1645448049.65625,P19,D04,0,0,0
1986,-6.0,-5.0,62.0,1645448049.6875,P19,D04,0,0,0
1987,-6.0,-5.0,62.0,1645448049.71875,P19,D04,0,0,0
1988,-6.0,-5.0,62.0,1645448049.75,P19,D04,0,0,0
1989,-6.0,-5.0,62.0,1645448049.78125,P19,D04,0,0,0
1990,-6.0,-5.0,62.0,1645448049.8125,P19,D04,0,0,0
1991,-6.0,-5.0,62.0,1645448049.84375,P19,D04,0,0,0
1992,-6.0,-5.0,62.0,1645448049.875,P19,D04,0,0,0
1993,-6.0,-5.0,62.0,1645448049.90625,P19,D04,0,0,0
1994,-6.0,-5.0,62.0,1645448049.9375,P19,D04,0,0,0
1995,-7.0,-5.0,62.0,1645448049.96875,P19,D04,0,0,0
1996,-6.0,-5.0,62.0,1645448050.0,P19,D04,0,0,0
1997,-6.0,-5.0,62.0,1645448050.03125,P19,D04,0,0,0
1998,-6.0,-5.0,62.0,1645448050.0625,P19,D04,0,0,0
1999,-6.0,-5.0,62.0,1645448050.09375,P19,D04,0,0,0
2000,-6.0,-5.0,62.0,1645448050.125,P19,D04,0,0,0
2001,-6.0,-5.0,62.0,1645448050.15625,P19,D04,0,0,0
2002,-6.0,-5.0,62.0,1645448050.1875,P19,D04,0,0,0
2003,-6.0,-5.0,62.0,1645448050.21875,P19,D04,0,0,0
2004,-6.0,-5.0,62.0,1645448050.25,P19,D04,0,0,0
2005,-6.0,-5.0,62.0,1645448050.28125,P19,D04,0,0,0
2006,-6.0,-5.0,62.0,1645448050.3125,P19,D04,0,0,0
2007,-6.0,-5.0,62.0,1645448050.34375,P19,D04,0,0,0
2008,-6.0,-5.0,62.0,1645448050.375,P19,D04,0,0,0
2009,-6.0,-5.0,62.0,1645448050.40625,P19,D04,0,0,0
2010,-6.0,-5.0,62.0,1645448050.4375,P19,D04,0,0,0
2011,-6.0,-5.0,62.0,1645448050.46875,P19,D04,0,0,0
2012,-6.0,-5.0,62.0,1645448050.5,P19,D04,0,0,0
2013,-6.0,-5.0,62.0,1645448050.53125,P19,D04,0,0,0
2014,-6.0,-5.0,62.0,1645448050.5625,P19,D04,0,0,0
2015,-7.0,-5.0,62.0,1645448050.59375,P19,D04,0,0,0
2016,-6.0,-5.0,62.0,1645448050.625,P19,D04,0,0,0
2017,-6.0,-5.0,62.0,1645448050.65625,P19,D04,0,0,0
2018,-7.0,-5.0,62.0,1645448050.6875,P19,D04,0,0,0
2019,-7.0,-5.0,62.0,1645448050.71875,P19,D04,0,0,0
2020,-6.0,-5.0,62.0,1645448050.75,P19,D04,0,0,0
2021,-6.0,-5.0,62.0,1645448050.78125,P19,D04,0,0,0
2022,-6.0,-5.0,62.0,1645448050.8125,P19,D04,0,0,0
2023,-6.0,-5.0,62.0,1645448050.84375,P19,D04,0,0,0
2024,-6.0,-5.0,62.0,1645448050.875,P19,D04,0,0,0
2025,-6.0,-5.0,62.0,1645448050.90625,P19,D04,0,0,0
2026,-7.0,-5.0,62.0,1645448050.9375,P19,D04,0,0,0
2027,-6.0,-5.0,62.0,1645448050.96875,P19,D04,0,0,0
2028,-6.0,-5.0,62.0,1645448051.0,P19,D04,0,0,0
2029,-6.0,-5.0,62.0,1645448051.03125,P19,D04,0,0,0
2030,-7.0,-5.0,62.0,1645448051.0625,P19,D04,0,0,0
2031,-6.0,-5.0,62.0,1645448051.09375,P19,D04,0,0,0
2032,-6.0,-5.0,62.0,1645448051.125,P19,D04,0,0,0
2033,-7.0,-5.0,62.0,1645448051.15625,P19,D04,0,0,0
2034,-7.0,-5.0,62.0,1645448051.1875,P19,D04,0,0,0
2035,-6.0,-5.0,62.0,1645448051.21875,P19,D04,0,0,0
2036,-6.0,-5.0,62.0,1645448051.25,P19,D04,0,0,0
2037,-6.0,-5.0,62.0,1645448051.28125,P19,D04,0,0,0
2038,-7.0,-5.0,62.0,1645448051.3125,P19,D04,0,0,0
2039,-7.0,-5.0,62.0,1645448051.34375,P19,D04,0,0,0
2040,-6.0,-5.0,62.0,1645448051.375,P19,D04,0,0,0
2041,-7.0,-5.0,62.0,1645448051.40625,P19,D04,0,0,0
2042,-7.0,-5.0,62.0,1645448051.4375,P19,D04,0,0,0
2043,-6.0,-5.0,62.0,1645448051.46875,P19,D04,0,0,0
2044,-7.0,-5.0,62.0,1645448051.5,P19,D04,0,0,0
2045,-7.0,-5.0,62.0,1645448051.53125,P19,D04,0,0,0
2046,-6.0,-5.0,62.0,1645448051.5625,P19,D04,0,0,0
2047,-7.0,-5.0,62.0,1645448051.59375,P19,D04,0,0,0
2048,-7.0,-5.0,62.0,1645448051.625,P19,D04,0,0,0
2049,-6.0,-5.0,62.0,1645448051.65625,P19,D04,0,0,0
2050,-7.0,-5.0,62.0,1645448051.6875,P19,D04,0,0,0
2051,-7.0,-5.0,62.0,1645448051.71875,P19,D04,0,0,0
2052,-6.0,-5.0,62.0,1645448051.75,P19,D04,0,0,0
2053,-6.0,-5.0,62.0,1645448051.78125,P19,D04,0,0,0
2054,-7.0,-5.0,62.0,1645448051.8125,P19,D04,0,0,0
2055,-7.0,-5.0,62.0,1645448051.84375,P19,D04,0,0,0
2056,-7.0,-5.0,62.0,1645448051.875,P19,D04,0,0,0
2057,-6.0,-5.0,62.0,1645448051.90625,P19,D04,0,0,0
2058,-7.0,-5.0,62.0,1645448051.9375,P19,D04,0,0,0
2059,-6.0,-5.0,62.0,1645448051.96875,P19,D04,0,0,0
2060,-7.0,-5.0,62.0,1645448052.0,P19,D04,0,0,0
2061,-7.0,-5.0,62.0,1645448052.03125,P19,D04,0,0,0
2062,-6.0,-5.0,62.0,1645448052.0625,P19,D04,0,0,0
2063,-6.0,-5.0,62.0,1645448052.09375,P19,D04,0,0,0
2064,-7.0,-5.0,62.0,1645448052.125,P19,D04,0,0,0
2065,-7.0,-5.0,62.0,1645448052.15625,P19,D04,0,0,0
2066,-6.0,-5.0,62.0,1645448052.1875,P19,D04,0,0,0
2067,-6.0,-5.0,62.0,1645448052.21875,P19,D04,0,0,0
2068,-7.0,-5.0,62.0,1645448052.25,P19,D04,0,0,0
2069,-6.0,-5.0,62.0,1645448052.28125,P19,D04,0,0,0
2070,-6.0,-5.0,62.0,1645448052.3125,P19,D04,0,0,0
2071,-7.0,-5.0,62.0,1645448052.34375,P19,D04,0,0,0
2072,-7.0,-5.0,62.0,1645448052.375,P19,D04,0,0,0
2073,-7.0,-5.0,62.0,1645448052.40625,P19,D04,0,0,0
2074,-7.0,-5.0,62.0,1645448052.4375,P19,D04,0,0,0
2075,-7.0,-5.0,62.0,1645448052.46875,P19,D04,0,0,0
2076,-7.0,-5.0,62.0,1645448052.5,P19,D04,0,0,0
2077,-6.0,-5.0,62.0,1645448052.53125,P19,D04,0,0,0
2078,-7.0,-5.0,62.0,1645448052.5625,P19,D04,0,0,0
2079,-7.0,-5.0,62.0,1645448052.59375,P19,D04,0,0,0
2080,-7.0,-5.0,62.0,1645448052.625,P19,D04,0,0,0
2081,-7.0,-5.0,62.0,1645448052.65625,P19,D04,0,0,0
2082,-6.0,-5.0,62.0,1645448052.6875,P19,D04,0,0,0
2083,-6.0,-5.0,62.0,1645448052.71875,P19,D04,0,0,0
2084,-7.0,-5.0,62.0,1645448052.75,P19,D04,0,0,0
2085,-7.0,-5.0,62.0,1645448052.78125,P19,D04,0,0,0
2086,-6.0,-5.0,62.0,1645448052.8125,P19,D04,0,0,0
2087,-7.0,-5.0,62.0,1645448052.84375,P19,D04,0,0,0
2088,-7.0,-5.0,62.0,1645448052.875,P19,D04,0,0,0
2089,-7.0,-5.0,62.0,1645448052.90625,P19,D04,0,0,0
2090,-6.0,-5.0,62.0,1645448052.9375,P19,D04,0,0,0
2091,-6.0,-5.0,62.0,1645448052.96875,P19,D04,0,0,0
2092,-7.0,-5.0,62.0,1645448053.0,P19,D04,0,0,0
2093,-6.0,-5.0,62.0,1645448053.03125,P19,D04,0,0,0
2094,-6.0,-5.0,62.0,1645448053.0625,P19,D04,0,0,0
2095,-6.0,-5.0,62.0,1645448053.09375,P19,D04,0,0,0
2096,-7.0,-5.0,62.0,1645448053.125,P19,D04,0,0,0
2097,-7.0,-5.0,62.0,1645448053.15625,P19,D04,0,0,0
2098,-6.0,-5.0,62.0,1645448053.1875,P19,D04,0,0,0
2099,-6.0,-5.0,62.0,1645448053.21875,P19,D04,0,0,0
2100,-7.0,-5.0,62.0,1645448053.25,P19,D04,0,0,0
2101,-6.0,-5.0,62.0,1645448053.28125,P19,D04,0,0,0
2102,-7.0,-5.0,62.0,1645448053.3125,P19,D04,0,0,0
2103,-6.0,-5.0,62.0,1645448053.34375,P19,D04,0,0,0
2104,-7.0,-5.0,62.0,1645448053.375,P19,D04,0,0,0
2105,-7.0,-5.0,62.0,1645448053.40625,P19,D04,0,0,0
2106,-6.0,-5.0,62.0,1645448053.4375,P19,D04,0,0,0
2107,-6.0,-5.0,62.0,1645448053.46875,P19,D04,0,0,0
2108,-6.0,-5.0,62.0,1645448053.5,P19,D04,0,0,0
2109,-6.0,-5.0,62.0,1645448053.53125,P19,D04,0,0,0
2110,-6.0,-5.0,62.0,1645448053.5625,P19,D04,0,0,0
2111,-6.0,-5.0,62.0,1645448053.59375,P19,D04,0,0,0
2112,-7.0,-5.0,62.0,1645448053.625,P19,D04,0,0,0
2113,-6.0,-5.0,62.0,1645448053.65625,P19,D04,0,0,0
2114,-6.0,-5.0,62.0,1645448053.6875,P19,D04,0,0,0
2115,-6.0,-5.0,62.0,1645448053.71875,P19,D04,0,0,0
2116,-6.0,-5.0,62.0,1645448053.75,P19,D04,0,0,0
2117,-6.0,-5.0,62.0,1645448053.78125,P19,D04,0,0,0
2118,-6.0,-5.0,62.0,1645448053.8125,P19,D04,0,0,0
2119,-6.0,-5.0,62.0,1645448053.84375,P19,D04,0,0,0
2120,-7.0,-5.0,62.0,1645448053.875,P19,D04,0,0,0
2121,-6.0,-5.0,62.0,1645448053.90625,P19,D04,0,0,0
2122,-6.0,-5.0,62.0,1645448053.9375,P19,D04,0,0,0
2123,-7.0,-5.0,62.0,1645448053.96875,P19,D04,0,0,0
2124,-7.0,-5.0,62.0,1645448054.0,P19,D04,0,0,0
2125,-6.0,-5.0,62.0,1645448054.03125,P19,D04,0,0,0
2126,-6.0,-5.0,62.0,1645448054.0625,P19,D04,0,0,0
2127,-6.0,-5.0,62.0,1645448054.09375,P19,D04,0,0,0
2128,-7.0,-5.0,62.0,1645448054.125,P19,D04,0,0,0
2129,-6.0,-5.0,62.0,1645448054.15625,P19,D04,0,0,0
2130,-6.0,-5.0,62.0,1645448054.1875,P19,D04,0,0,0
2131,-6.0,-5.0,62.0,1645448054.21875,P19,D04,0,0,0
2132,-7.0,-5.0,62.0,1645448054.25,P19,D04,0,0,0
2133,-6.0,-5.0,62.0,1645448054.28125,P19,D04,0,0,0
2134,-6.0,-5.0,62.0,1645448054.3125,P19,D04,0,0,0
2135,-6.0,-5.0,62.0,1645448054.34375,P19,D04,0,0,0
2136,-6.0,-5.0,62.0,1645448054.375,P19,D04,0,0,0
2137,-7.0,-5.0,62.0,1645448054.40625,P19,D04,0,0,0
2138,-6.0,-5.0,62.0,1645448054.4375,P19,D04,0,0,0
2139,-6.0,-5.0,62.0,1645448054.46875,P19,D04,0,0,0
2140,-6.0,-5.0,62.0,1645448054.5,P19,D04,0,0,0
2141,-6.0,-5.0,62.0,1645448054.53125,P19,D04,0,0,0
2142,-6.0,-5.0,62.0,1645448054.5625,P19,D04,0,0,0
2143,-6.0,-5.0,62.0,1645448054.59375,P19,D04,0,0,0
2144,-6.0,-5.0,62.0,1645448054.625,P19,D04,0,0,0
2145,-6.0,-5.0,62.0,1645448054.65625,P19,D04,0,0,0
2146,-7.0,-5.0,62.0,1645448054.6875,P19,D04,0,0,0
2147,-6.0,-5.0,62.0,1645448054.71875,P19,D04,0,0,0
2148,-7.0,-5.0,62.0,1645448054.75,P19,D04,0,0,0
2149,-7.0,-5.0,62.0,1645448054.78125,P19,D04,0,0,0
2150,-6.0,-5.0,62.0,1645448054.8125,P19,D04,0,0,0
2151,-6.0,-5.0,62.0,1645448054.84375,P19,D04,0,0,0
2152,-7.0,-5.0,62.0,1645448054.875,P19,D04,0,0,0
2153,-7.0,-5.0,62.0,1645448054.90625,P19,D04,0,0,0
2154,-6.0,-5.0,62.0,1645448054.9375,P19,D04,0,0,0
2155,-6.0,-5.0,62.0,1645448054.96875,P19,D04,0,0,0
2156,-7.0,-5.0,62.0,1645448055.0,P19,D04,0,0,0
2157,-7.0,-5.0,62.0,1645448055.03125,P19,D04,0,0,0
2158,-6.0,-5.0,62.0,1645448055.0625,P19,D04,0,0,0
2159,-6.0,-5.0,62.0,1645448055.09375,P19,D04,0,0,0
2160,-6.0,-5.0,62.0,1645448055.125,P19,D04,0,0,0
2161,-6.0,-5.0,62.0,1645448055.15625,P19,D04,0,0,0
2162,-6.0,-5.0,62.0,1645448055.1875,P19,D04,0,0,0
2163,-6.0,-5.0,62.0,1645448055.21875,P19,D04,0,0,0
2164,-6.0,-5.0,62.0,1645448055.25,P19,D04,0,0,0
2165,-6.0,-5.0,62.0,1645448055.28125,P19,D04,0,0,0
2166,-6.0,-5.0,62.0,1645448055.3125,P19,D04,0,0,0
2167,-6.0,-5.0,62.0,1645448055.34375,P19,D04,0,0,0
2168,-6.0,-5.0,62.0,1645448055.375,P19,D04,0,0,0
2169,-6.0,-5.0,62.0,1645448055.40625,P19,D04,0,0,0
2170,-6.0,-5.0,62.0,1645448055.4375,P19,D04,0,0,0
2171,-6.0,-5.0,62.0,1645448055.46875,P19,D04,0,0,0
2172,-6.0,-5.0,62.0,1645448055.5,P19,D04,0,0,0
2173,-6.0,-5.0,62.0,1645448055.53125,P19,D04,0,0,0
2174,-6.0,-5.0,62.0,1645448055.5625,P19,D04,0,0,0
2175,-6.0,-5.0,62.0,1645448055.59375,P19,D04,0,0,0
2176,-6.0,-5.0,62.0,1645448055.625,P19,D04,0,0,0
2177,-6.0,-5.0,62.0,1645448055.65625,P19,D04,0,0,0
2178,-6.0,-5.0,62.0,1645448055.6875,P19,D04,0,0,0
2179,-7.0,-5.0,62.0,1645448055.71875,P19,D04,0,0,0
2180,-6.0,-5.0,62.0,1645448055.75,P19,D04,0,0,0
2181,-6.0,-5.0,62.0,1645448055.78125,P19,D04,0,0,0
2182,-7.0,-5.0,62.0,1645448055.8125,P19,D04,0,0,0
2183,-6.0,-5.0,62.0,1645448055.84375,P19,D04,0,0,0
2184,-6.0,-5.0,62.0,1645448055.875,P19,D04,0,0,0
2185,-6.0,-5.0,62.0,1645448055.90625,P19,D04,0,0,0
2186,-6.0,-5.0,62.0,1645448055.9375,P19,D04,0,0,0
2187,-6.0,-5.0,62.0,1645448055.96875,P19,D04,0,0,0
2188,-6.0,-5.0,62.0,1645448056.0,P19,D04,0,0,0
2189,-7.0,-5.0,62.0,1645448056.03125,P19,D04,0,0,0
2190,-6.0,-5.0,62.0,1645448056.0625,P19,D04,0,0,0
2191,-6.0,-5.0,62.0,1645448056.09375,P19,D04,0,0,0
2192,-6.0,-5.0,62.0,1645448056.125,P19,D04,0,0,0
2193,-7.0,-5.0,62.0,1645448056.15625,P19,D04,0,0,0
2194,-6.0,-5.0,62.0,1645448056.1875,P19,D04,0,0,0
2195,-6.0,-5.0,62.0,1645448056.21875,P19,D04,0,0,0
2196,-6.0,-5.0,62.0,1645448056.25,P19,D04,0,0,0
2197,-6.0,-5.0,62.0,1645448056.28125,P19,D04,0,0,0
2198,-6.0,-5.0,62.0,1645448056.3125,P19,D04,0,0,0
2199,-6.0,-5.0,62.0,1645448056.34375,P19,D04,0,0,0
2200,-6.0,-5.0,62.0,1645448056.375,P19,D04,0,0,0
2201,-6.0,-5.0,62.0,1645448056.40625,P19,D04,0,0,0
2202,-6.0,-5.0,62.0,1645448056.4375,P19,D04,0,0,0
2203,-6.0,-5.0,62.0,1645448056.46875,P19,D04,0,0,0
2204,-7.0,-5.0,62.0,1645448056.5,P19,D04,0,0,0
2205,-6.0,-5.0,62.0,1645448056.53125,P19,D04,0,0,0
2206,-6.0,-5.0,62.0,1645448056.5625,P19,D04,0,0,0
2207,-7.0,-5.0,62.0,1645448056.59375,P19,D04,0,0,0
2208,-6.0,-5.0,62.0,1645448056.625,P19,D04,0,0,0
2209,-6.0,-5.0,62.0,1645448056.65625,P19,D04,0,0,0
2210,-6.0,-5.0,62.0,1645448056.6875,P19,D04,0,0,0
2211,-6.0,-5.0,62.0,1645448056.71875,P19,D04,0,0,0
2212,-6.0,-5.0,62.0,1645448056.75,P19,D04,0,0,0
2213,-6.0,-5.0,62.0,1645448056.78125,P19,D04,0,0,0
2214,-6.0,-5.0,62.0,1645448056.8125,P19,D04,0,0,0
2215,-6.0,-5.0,62.0,1645448056.84375,P19,D04,0,0,0
2216,-6.0,-5.0,62.0,1645448056.875,P19,D04,0,0,0
2217,-6.0,-5.0,62.0,1645448056.90625,P19,D04,0,0,0
2218,-6.0,-5.0,62.0,1645448056.9375,P19,D04,0,0,0
2219,-6.0,-5.0,62.0,1645448056.96875,P19,D04,0,0,0
2220,-6.0,-5.0,62.0,1645448057.0,P19,D04,0,0,0
2221,-6.0,-5.0,62.0,1645448057.03125,P19,D04,0,0,0
2222,-6.0,-5.0,62.0,1645448057.0625,P19,D04,0,0,0
2223,-6.0,-5.0,62.0,1645448057.09375,P19,D04,0,0,0
2224,-6.0,-5.0,62.0,1645448057.125,P19,D04,0,0,0
2225,-6.0,-5.0,62.0,1645448057.15625,P19,D04,0,0,0
2226,-7.0,-5.0,62.0,1645448057.1875,P19,D04,0,0,0
2227,-6.0,-5.0,62.0,1645448057.21875,P19,D04,0,0,0
2228,-6.0,-5.0,62.0,1645448057.25,P19,D04,0,0,0
2229,-6.0,-5.0,62.0,1645448057.28125,P19,D04,0,0,0
2230,-6.0,-5.0,62.0,1645448057.3125,P19,D04,0,0,0
2231,-6.0,-5.0,62.0,1645448057.34375,P19,D04,0,0,0
2232,-7.0,-5.0,62.0,1645448057.375,P19,D04,0,0,0
2233,-6.0,-5.0,62.0,1645448057.40625,P19,D04,0,0,0
2234,-6.0,-5.0,62.0,1645448057.4375,P19,D04,0,0,0
2235,-7.0,-5.0,62.0,1645448057.46875,P19,D04,0,0,0
2236,-7.0,-5.0,62.0,1645448057.5,P19,D04,0,0,0
2237,-6.0,-5.0,62.0,1645448057.53125,P19,D04,0,0,0
2238,-6.0,-5.0,62.0,1645448057.5625,P19,D04,0,0,0
2239,-7.0,-5.0,62.0,1645448057.59375,P19,D04,0,0,0
2240,-6.0,-5.0,62.0,1645448057.625,P19,D04,0,0,0
2241,-6.0,-5.0,62.0,1645448057.65625,P19,D04,0,0,0
2242,-6.0,-5.0,62.0,1645448057.6875,P19,D04,0,0,0
2243,-6.0,-5.0,62.0,1645448057.71875,P19,D04,0,0,0
2244,-6.0,-5.0,62.0,1645448057.75,P19,D04,0,0,0
2245,-6.0,-5.0,62.0,1645448057.78125,P19,D04,0,0,0
2246,-6.0,-5.0,62.0,1645448057.8125,P19,D04,0,0,0
2247,-6.0,-5.0,62.0,1645448057.84375,P19,D04,0,0,0
2248,-6.0,-5.0,62.0,1645448057.875,P19,D04,0,0,0
2249,-6.0,-5.0,62.0,1645448057.90625,P19,D04,0,0,0
2250,-6.0,-5.0,62.0,1645448057.9375,P19,D04,0,0,0
2251,-6.0,-5.0,62.0,1645448057.96875,P19,D04,0,0,0
2252,-6.0,-5.0,62.0,1645448058.0,P19,D04,0,0,0
2253,-6.0,-5.0,62.0,1645448058.03125,P19,D04,0,0,0
2254,-6.0,-5.0,62.0,1645448058.0625,P19,D04,0,0,0
2255,-6.0,-5.0,62.0,1645448058.09375,P19,D04,0,0,0
2256,-6.0,-5.0,62.0,1645448058.125,P19,D04,0,0,0
2257,-6.0,-5.0,62.0,1645448058.15625,P19,D04,0,0,0
2258,-6.0,-5.0,62.0,1645448058.1875,P19,D04,0,0,0
2259,-6.0,-5.0,62.0,1645448058.21875,P19,D04,0,0,0
2260,-6.0,-5.0,62.0,1645448058.25,P19,D04,0,0,0
2261,-6.0,-5.0,62.0,1645448058.28125,P19,D04,0,0,0
2262,-6.0,-5.0,62.0,1645448058.3125,P19,D04,0,0,0
2263,-6.0,-5.0,62.0,1645448058.34375,P19,D04,0,0,0
2264,-6.0,-5.0,62.0,1645448058.375,P19,D04,0,0,0
2265,-6.0,-5.0,62.0,1645448058.40625,P19,D04,0,0,0
2266,-6.0,-5.0,62.0,1645448058.4375,P19,D04,0,0,0
2267,-6.0,-5.0,62.0,1645448058.46875,P19,D04,0,0,0
2268,-6.0,-5.0,62.0,1645448058.5,P19,D04,0,0,0
2269,-6.0,-5.0,62.0,1645448058.53125,P19,D04,0,0,0
2270,-6.0,-5.0,62.0,1645448058.5625,P19,D04,0,0,0
2271,-6.0,-5.0,62.0,1645448058.59375,P19,D04,0,0,0
2272,-6.0,-5.0,62.0,1645448058.625,P19,D04,0,0,0
2273,-6.0,-5.0,62.0,1645448058.65625,P19,D04,0,0,0
2274,-6.0,-5.0,62.0,1645448058.6875,P19,D04,0,0,0
2275,-6.0,-5.0,62.0,1645448058.71875,P19,D04,0,0,0
2276,-6.0,-5.0,62.0,1645448058.75,P19,D04,0,0,0
2277,-6.0,-5.0,62.0,1645448058.78125,P19,D04,0,0,0
2278,-6.0,-5.0,62.0,1645448058.8125,P19,D04,0,0,0
2279,-6.0,-5.0,62.0,1645448058.84375,P19,D04,0,0,0
2280,-6.0,-5.0,62.0,1645448058.875,P19,D04,0,0,0
2281,-6.0,-5.0,62.0,1645448058.90625,P19,D04,0,0,0
2282,-6.0,-5.0,62.0,1645448058.9375,P19,D04,0,0,0
2283,-6.0,-5.0,62.0,1645448058.96875,P19,D04,0,0,0
2284,-6.0,-5.0,62.0,1645448059.0,P19,D04,0,0,0
2285,-6.0,-5.0,62.0,1645448059.03125,P19,D04,0,0,0
2286,-6.0,-5.0,62.0,1645448059.0625,P19,D04,0,0,0
2287,-6.0,-5.0,62.0,1645448059.09375,P19,D04,0,0,0
2288,-6.0,-5.0,62.0,1645448059.125,P19,D04,0,0,0
2289,-6.0,-5.0,62.0,1645448059.15625,P19,D04,0,0,0
2290,-6.0,-5.0,62.0,1645448059.1875,P19,D04,0,0,0
2291,-6.0,-5.0,62.0,1645448059.21875,P19,D04,0,0,0
2292,-7.0,-5.0,62.0,1645448059.25,P19,D04,0,0,0
2293,-6.0,-5.0,62.0,1645448059.28125,P19,D04,0,0,0
2294,-6.0,-5.0,62.0,1645448059.3125,P19,D04,0,0,0
2295,-6.0,-5.0,62.0,1645448059.34375,P19,D04,0,0,0
2296,-6.0,-5.0,62.0,1645448059.375,P19,D04,0,0,0
2297,-6.0,-5.0,62.0,1645448059.40625,P19,D04,0,0,0
2298,-7.0,-5.0,62.0,1645448059.4375,P19,D04,0,0,0
2299,-6.0,-5.0,62.0,1645448059.46875,P19,D04,0,0,0
2300,-6.0,-5.0,62.0,1645448059.5,P19,D04,0,0,0
2301,-6.0,-5.0,62.0,1645448059.53125,P19,D04,0,0,0
2302,-7.0,-5.0,62.0,1645448059.5625,P19,D04,0,0,0
2303,-6.0,-5.0,62.0,1645448059.59375,P19,D04,0,0,0
2304,-6.0,-5.0,62.0,1645448059.625,P19,D04,0,0,0
2305,-7.0,-5.0,62.0,1645448059.65625,P19,D04,0,0,0
2306,-6.0,-5.0,62.0,1645448059.6875,P19,D04,0,0,0
2307,-6.0,-5.0,62.0,1645448059.71875,P19,D04,0,0,0
2308,-7.0,-5.0,62.0,1645448059.75,P19,D04,0,0,0
2309,-6.0,-5.0,62.0,1645448059.78125,P19,D04,0,0,0
2310,-6.0,-5.0,62.0,1645448059.8125,P19,D04,0,0,0
2311,-6.0,-5.0,62.0,1645448059.84375,P19,D04,0,0,0
2312,-6.0,-5.0,62.0,1645448059.875,P19,D04,0,0,0
2313,-6.0,-5.0,62.0,1645448059.90625,P19,D04,0,0,0
2314,-6.0,-5.0,62.0,1645448059.9375,P19,D04,0,0,0
2315,-6.0,-5.0,62.0,1645448059.96875,P19,D04,0,0,0
2316,-6.0,-5.0,62.0,1645448060.0,P19,D04,0,0,0
2317,-7.0,-5.0,62.0,1645448060.03125,P19,D04,0,0,0
2318,-6.0,-5.0,62.0,1645448060.0625,P19,D04,0,0,0
2319,-6.0,-5.0,62.0,1645448060.09375,P19,D04,0,0,0
2320,-6.0,-5.0,62.0,1645448060.125,P19,D04,0,0,0
2321,-7.0,-5.0,62.0,1645448060.15625,P19,D04,0,0,0
2322,-6.0,-5.0,62.0,1645448060.1875,P19,D04,0,0,0
2323,-6.0,-5.0,62.0,1645448060.21875,P19,D04,0,0,0
2324,-6.0,-5.0,62.0,1645448060.25,P19,D04,0,0,0
2325,-6.0,-5.0,62.0,1645448060.28125,P19,D04,0,0,0
2326,-7.0,-5.0,62.0,1645448060.3125,P19,D04,0,0,0
2327,-6.0,-5.0,62.0,1645448060.34375,P19,D04,0,0,0
2328,-6.0,-5.0,62.0,1645448060.375,P19,D04,0,0,0
2329,-7.0,-5.0,62.0,1645448060.40625,P19,D04,0,0,0
2330,-7.0,-5.0,62.0,1645448060.4375,P19,D04,0,0,0
2331,-6.0,-5.0,62.0,1645448060.46875,P19,D04,0,0,0
2332,-7.0,-5.0,62.0,1645448060.5,P19,D04,0,0,0
2333,-7.0,-5.0,62.0,1645448060.53125,P19,D04,0,0,0
2334,-6.0,-5.0,62.0,1645448060.5625,P19,D04,0,0,0
2335,-6.0,-5.0,62.0,1645448060.59375,P19,D04,0,0,0
2336,-7.0,-5.0,62.0,1645448060.625,P19,D04,0,0,0
2337,-6.0,-5.0,62.0,1645448060.65625,P19,D04,0,0,0
2338,-6.0,-5.0,62.0,1645448060.6875,P19,D04,0,0,0
2339,-6.0,-5.0,62.0,1645448060.71875,P19,D04,0,0,0
2340,-7.0,-5.0,62.0,1645448060.75,P19,D04,0,0,0
2341,-6.0,-5.0,62.0,1645448060.78125,P19,D04,0,0,0
2342,-6.0,-5.0,62.0,1645448060.8125,P19,D04,0,0,0
2343,-7.0,-5.0,62.0,1645448060.84375,P19,D04,0,0,0
2344,-7.0,-5.0,62.0,1645448060.875,P19,D04,0,0,0
2345,-6.0,-5.0,62.0,1645448060.90625,P19,D04,0,0,0
2346,-6.0,-5.0,62.0,1645448060.9375,P19,D04,0,0,0
2347,-7.0,-5.0,62.0,1645448060.96875,P19,D04,0,0,0
2348,-6.0,-5.0,62.0,1645448061.0,P19,D04,0,0,0
2349,-7.0,-5.0,62.0,1645448061.03125,P19,D04,0,0,0
2350,-7.0,-5.0,62.0,1645448061.0625,P19,D04,0,0,0
2351,-6.0,-5.0,62.0,1645448061.09375,P19,D04,0,0,0
2352,-6.0,-5.0,62.0,1645448061.125,P19,D04,0,0,0
2353,-7.0,-5.0,62.0,1645448061.15625,P19,D04,0,0,0
2354,-6.0,-5.0,62.0,1645448061.1875,P19,D04,0,0,0
2355,-6.0,-5.0,62.0,1645448061.21875,P19,D04,0,0,0
2356,-7.0,-5.0,62.0,1645448061.25,P19,D04,0,0,0
2357,-7.0,-5.0,62.0,1645448061.28125,P19,D04,0,0,0
2358,-6.0,-5.0,62.0,1645448061.3125,P19,D04,0,0,0
2359,-6.0,-5.0,62.0,1645448061.34375,P19,D04,0,0,0
2360,-7.0,-5.0,62.0,1645448061.375,P19,D04,0,0,0
2361,-7.0,-5.0,62.0,1645448061.40625,P19,D04,0,0,0
2362,-6.0,-5.0,62.0,1645448061.4375,P19,D04,0,0,0
2363,-7.0,-5.0,62.0,1645448061.46875,P19,D04,0,0,0
2364,-7.0,-5.0,62.0,1645448061.5,P19,D04,0,0,0
2365,-6.0,-5.0,62.0,1645448061.53125,P19,D04,0,0,0
2366,-7.0,-5.0,62.0,1645448061.5625,P19,D04,0,0,0
2367,-7.0,-5.0,62.0,1645448061.59375,P19,D04,0,0,0
2368,-7.0,-5.0,62.0,1645448061.625,P19,D04,0,0,0
2369,-6.0,-5.0,62.0,1645448061.65625,P19,D04,0,0,0
2370,-6.0,-5.0,62.0,1645448061.6875,P19,D04,0,0,0
2371,-6.0,-5.0,62.0,1645448061.71875,P19,D04,0,0,0
2372,-6.0,-5.0,62.0,1645448061.75,P19,D04,0,0,0
2373,-7.0,-5.0,62.0,1645448061.78125,P19,D04,0,0,0
2374,-6.0,-5.0,62.0,1645448061.8125,P19,D04,0,0,0
2375,-6.0,-6.0,62.0,1645448061.84375,P19,D04,0,0,0
2376,-7.0,-5.0,62.0,1645448061.875,P19,D04,0,0,0
2377,-6.0,-5.0,62.0,1645448061.90625,P19,D04,0,0,0
2378,-6.0,-5.0,62.0,1645448061.9375,P19,D04,0,0,0
2379,-7.0,-5.0,62.0,1645448061.96875,P19,D04,0,0,0
2380,-6.0,-5.0,62.0,1645448062.0,P19,D04,0,0,0
2381,-6.0,-5.0,62.0,1645448062.03125,P19,D04,0,0,0
2382,-6.0,-5.0,62.0,1645448062.0625,P19,D04,0,0,0
2383,-6.0,-5.0,62.0,1645448062.09375,P19,D04,0,0,0
2384,-6.0,-5.0,62.0,1645448062.125,P19,D04,0,0,0
2385,-5.0,-5.0,62.0,1645448062.15625,P19,D04,0,0,0
2386,-9.0,-5.0,61.0,1645448062.1875,P19,D04,0,0,0
2387,-7.0,-5.0,62.0,1645448062.21875,P19,D04,0,0,0
2388,-6.0,-5.0,62.0,1645448062.25,P19,D04,0,0,0
2389,-7.0,-5.0,62.0,1645448062.28125,P19,D04,0,0,0
2390,-7.0,-5.0,62.0,1645448062.3125,P19,D04,0,0,0
2391,-7.0,-5.0,62.0,1645448062.34375,P19,D04,0,0,0
2392,-6.0,-5.0,62.0,1645448062.375,P19,D04,0,0,0
2393,-7.0,-5.0,62.0,1645448062.40625,P19,D04,0,0,0
2394,-7.0,-5.0,62.0,1645448062.4375,P19,D04,0,0,0
2395,-6.0,-5.0,62.0,1645448062.46875,P19,D04,0,0,0
2396,-6.0,-5.0,62.0,1645448062.5,P19,D04,0,0,0
2397,-7.0,-5.0,62.0,1645448062.53125,P19,D04,0,0,0
2398,-6.0,-5.0,62.0,1645448062.5625,P19,D04,0,0,0
2399,-6.0,-5.0,62.0,1645448062.59375,P19,D04,0,0,0
2400,-7.0,-5.0,62.0,1645448062.625,P19,D04,0,0,0
2401,-6.0,-5.0,62.0,1645448062.65625,P19,D04,0,0,0
2402,-7.0,-5.0,62.0,1645448062.6875,P19,D04,0,0,0
2403,-7.0,-5.0,62.0,1645448062.71875,P19,D04,0,0,0
2404,-7.0,-5.0,62.0,1645448062.75,P19,D04,0,0,0
2405,-6.0,-5.0,62.0,1645448062.78125,P19,D04,0,0,0
2406,-7.0,-5.0,62.0,1645448062.8125,P19,D04,0,0,0
2407,-7.0,-5.0,62.0,1645448062.84375,P19,D04,0,0,0
2408,-6.0,-5.0,62.0,1645448062.875,P19,D04,0,0,0
2409,-7.0,-5.0,62.0,1645448062.90625,P19,D04,0,0,0
2410,-7.0,-5.0,62.0,1645448062.9375,P19,D04,0,0,0
2411,-6.0,-5.0,62.0,1645448062.96875,P19,D04,0,0,0
2412,-7.0,-5.0,62.0,1645448063.0,P19,D04,0,0,0
2413,-6.0,-5.0,62.0,1645448063.03125,P19,D04,0,0,0
2414,-6.0,-5.0,62.0,1645448063.0625,P19,D04,0,0,0
2415,-7.0,-5.0,62.0,1645448063.09375,P19,D04,0,0,0
2416,-6.0,-5.0,62.0,1645448063.125,P19,D04,0,0,0
