,acc_x,acc_y,acc_z,timestamp,participant,document,val,arou,eng
0,-5.0,-3.0,62.0,1645447395.625,P19,D01,0,0,0
1,-6.0,-3.0,62.0,1645447395.65625,P19,D01,0,0,0
2,-5.0,-3.0,62.0,1645447395.6875,P19,D01,0,0,0
3,-6.0,-3.0,62.0,1645447395.71875,P19,D01,0,0,0
4,-6.0,-3.0,62.0,1645447395.75,P19,D01,0,0,0
5,-6.0,-3.0,62.0,1645447395.78125,P19,D01,0,0,0
6,-5.0,-3.0,62.0,1645447395.8125,P19,D01,0,0,0
7,-6.0,-3.0,62.0,1645447395.84375,P19,D01,0,0,0
8,-6.0,-2.0,62.0,1645447395.875,P19,D01,0,0,0
9,-6.0,-3.0,62.0,1645447395.90625,P19,D01,0,0,0
10,-5.0,-3.0,62.0,1645447395.9375,P19,D01,0,0,0
11,-6.0,-3.0,62.0,1645447395.96875,P19,D01,0,0,0
12,-6.0,-3.0,62.0,1645447396.0,P19,D01,0,0,0
13,-5.0,-3.0,62.0,1645447396.03125,P19,D01,0,0,0
14,-6.0,-3.0,62.0,1645447396.0625,P19,D01,0,0,0
15,-5.0,-3.0,62.0,1645447396.09375,P19,D01,0,0,0
16,-6.0,-2.0,62.0,1645447396.125,P19,D01,0,0,0
17,-6.0,-3.0,62.0,1645447396.15625,P19,D01,0,0,0
18,-6.0,-3.0,62.0,1645447396.1875,P19,D01,0,0,0
19,-6.0,-3.0,62.0,1645447396.21875,P19,D01,0,0,0
20,-6.0,-3.0,62.0,1645447396.25,P19,D01,0,0,0
21,-6.0,-3.0,62.0,1645447396.28125,P19,D01,0,0,0
22,-6.0,-3.0,62.0,1645447396.3125,P19,D01,0,0,0
23,-5.0,-3.0,62.0,1645447396.34375,P19,D01,0,0,0
24,-6.0,-3.0,62.0,1645447396.375,P19,D01,0,0,0
25,-6.0,-3.0,62.0,1645447396.40625,P19,D01,0,0,0
26,-4.0,-2.0,62.0,1645447396.4375,P19,D01,0,0,0
27,-5.0,-3.0,62.0,1645447396.46875,P19,D01,0,0,0
28,-7.0,-3.0,62.0,1645447396.5,P19,D01,0,0,0
29,-4.0,-3.0,62.0,1645447396.53125,P19,D01,0,0,0
30,-5.0,-3.0,62.0,1645447396.5625,P19,D01,0,0,0
31,-6.0,-3.0,62.0,1645447396.59375,P19,D01,0,0,0
32,-5.0,-3.0,62.0,1645447396.625,P19,D01,0,0,0
33,-5.0,-3.0,62.0,1645447396.65625,P19,D01,0,0,0
34,-6.0,-3.0,62.0,1645447396.6875,P19,D01,0,0,0
35,-4.0,-3.0,62.0,1645447396.71875,P19,D01,0,0,0
36,-4.0,-3.0,62.0,1645447396.75,P19,D01,0,0,0
37,-6.0,-3.0,62.0,1645447396.78125,P19,D01,0,0,0
38,-6.0,-3.0,62.0,1645447396.8125,P19,D01,0,0,0
39,-8.0,-4.0,62.0,1645447396.84375,P19,D01,0,0,0
40,-4.0,-2.0,62.0,1645447396.875,P19,D01,0,0,0
41,-3.0,-2.0,63.0,1645447396.90625,P19,D01,0,0,0
42,-10.0,-4.0,61.0,1645447396.9375,P19,D01,0,0,0
43,-9.0,-2.0,61.0,1645447396.96875,P19,D01,0,0,0
44,-2.0,-2.0,63.0,1645447397.0,P19,D01,0,0,0
45,-7.0,-3.0,62.0,1645447397.03125,P19,D01,0,0,0
46,-8.0,-2.0,62.0,1645447397.0625,P19,D01,0,0,0
47,-3.0,-2.0,63.0,1645447397.09375,P19,D01,0,0,0
48,-6.0,-3.0,62.0,1645447397.125,P19,D01,0,0,0
49,-8.0,-2.0,62.0,1645447397.15625,P19,D01,0,0,0
50,-4.0,0.0,63.0,1645447397.1875,P19,D01,0,0,0
51,-4.0,-2.0,63.0,1645447397.21875,P19,D01,0,0,0
52,-5.0,-3.0,62.0,1645447397.25,P19,D01,0,0,0
53,-5.0,-3.0,62.0,1645447397.28125,P19,D01,0,0,0
54,-6.0,-3.0,62.0,1645447397.3125,P19,D01,0,0,0
55,-7.0,-3.0,62.0,1645447397.34375,P19,D01,0,0,0
56,-6.0,-3.0,62.0,1645447397.375,P19,D01,0,0,0
57,-6.0,-3.0,62.0,1645447397.40625,P19,D01,0,0,0
58,-7.0,-3.0,62.0,1645447397.4375,P19,D01,0,0,0
59,-6.0,-3.0,62.0,1645447397.46875,P19,D01,0,0,0
60,-7.0,-3.0,62.0,1645447397.5,P19,D01,0,0,0
61,-7.0,-3.0,62.0,1645447397.53125,P19,D01,0,0,0
62,-5.0,-3.0,62.0,1645447397.5625,P19,D01,0,0,0
63,-6.0,-3.0,62.0,1645447397.59375,P19,D01,0,0,0
64,-6.0,-3.0,62.0,1645447397.625,P19,D01,0,0,0
65,-6.0,-3.0,62.0,1645447397.65625,P19,D01,0,0,0
66,-6.0,-3.0,62.0,1645447397.6875,P19,D01,0,0,0
67,-5.0,-2.0,62.0,1645447397.71875,P19,D01,0,0,0
68,-6.0,-2.0,62.0,1645447397.75,P19,D01,0,0,0
69,-6.0,-2.0,62.0,1645447397.78125,P19,D01,0,0,0
70,-6.0,-3.0,62.0,1645447397.8125,P19,D01,0,0,0
71,-6.0,-2.0,62.0,1645447397.84375,P19,D01,0,0,0
72,-5.0,-3.0,62.0,1645447397.875,P19,D01,0,0,0
73,-6.0,-3.0,62.0,1645447397.90625,P19,D01,0,0,0
74,-6.0,-3.0,62.0,1645447397.9375,P19,D01,0,0,0
75,-5.0,-3.0,62.0,1645447397.96875,P19,D01,0,0,0
76,-6.0,-3.0,62.0,1645447398.0,P19,D01,0,0,0
77,-6.0,-3.0,62.0,1645447398.03125,P19,D01,0,0,0
78,-5.0,-2.0,62.0,1645447398.0625,P19,D01,0,0,0
79,-6.0,-2.0,62.0,1645447398.09375,P19,D01,0,0,0
80,-6.0,-2.0,62.0,1645447398.125,P19,D01,0,0,0
81,-6.0,-3.0,62.0,1645447398.15625,P19,D01,0,0,0
82,-6.0,-3.0,62.0,1645447398.1875,P19,D01,0,0,0
83,-5.0,-3.0,62.0,1645447398.21875,P19,D01,0,0,0
84,-5.0,-3.0,62.0,1645447398.25,P19,D01,0,0,0
85,-5.0,-2.0,62.0,1645447398.28125,P19,D01,0,0,0
86,-6.0,-2.0,62.0,1645447398.3125,P19,D01,0,0,0
87,-6.0,-2.0,62.0,1645447398.34375,P19,D01,0,0,0
88,-5.0,-3.0,62.0,1645447398.375,P19,D01,0,0,0
89,-5.0,-3.0,62.0,1645447398.40625,P19,D01,0,0,0
90,-5.0,-3.0,62.0,1645447398.4375,P19,D01,0,0,0
91,-5.0,-2.0,62.0,1645447398.46875,P19,D01,0,0,0
92,-6.0,-3.0,62.0,1645447398.5,P19,D01,0,0,0
93,-6.0,-3.0,62.0,1645447398.53125,P19,D01,0,0,0
94,-7.0,-3.0,62.0,1645447398.5625,P19,D01,0,0,0
95,-6.0,-2.0,62.0,1645447398.59375,P19,D01,0,0,0
96,-5.0,-2.0,62.0,1645447398.625,P19,D01,0,0,0
97,-6.0,-3.0,62.0,1645447398.65625,P19,D01,0,0,0
98,-6.0,-2.0,62.0,1645447398.6875,P19,D01,0,0,0
99,-6.0,-3.0,62.0,1645447398.71875,P19,D01,0,0,0
100,-6.0,-3.0,62.0,1645447398.75,P19,D01,0,0,0
101,-6.0,-4.0,62.0,1645447398.78125,P19,D01,0,0,0
102,-6.0,-3.0,62.0,1645447398.8125,P19,D01,0,0,0
103,-5.0,-3.0,62.0,1645447398.84375,P19,D01,0,0,0
104,-6.0,-3.0,62.0,1645447398.875,P19,D01,0,0,0
105,-5.0,-3.0,62.0,1645447398.90625,P19,D01,0,0,0
106,-6.0,-3.0,62.0,1645447398.9375,P19,D01,0,0,0
107,-7.0,-2.0,62.0,1645447398.96875,P19,D01,0,0,0
108,-6.0,-3.0,62.0,1645447399.0,P19,D01,0,0,0
109,-5.0,-3.0,62.0,1645447399.03125,P19,D01,0,0,0
110,-6.0,-3.0,62.0,1645447399.0625,P19,D01,0,0,0
111,-6.0,-2.0,62.0,1645447399.09375,P19,D01,0,0,0
112,-4.0,-2.0,62.0,1645447399.125,P19,D01,0,0,0
113,-4.0,-2.0,62.0,1645447399.15625,P19,D01,0,0,0
114,-5.0,-3.0,62.0,1645447399.1875,P19,D01,0,0,0
115,-6.0,-3.0,62.0,1645447399.21875,P19,D01,0,0,0
116,-7.0,-2.0,62.0,1645447399.25,P19,D01,0,0,0
117,-5.0,-2.0,62.0,1645447399.28125,P19,D01,0,0,0
118,-5.0,-2.0,62.0,1645447399.3125,P19,D01,0,0,0
119,-6.0,-2.0,62.0,1645447399.34375,P19,D01,0,0,0
120,-7.0,-3.0,62.0,1645447399.375,P19,D01,0,0,0
121,-7.0,-3.0,62.0,1645447399.40625,P19,D01,0,0,0
122,-6.0,-3.0,62.0,1645447399.4375,P19,D01,0,0,0
123,-6.0,-3.0,62.0,1645447399.46875,P19,D01,0,0,0
124,-6.0,-3.0,62.0,1645447399.5,P19,D01,0,0,0
125,-7.0,-3.0,62.0,1645447399.53125,P19,D01,0,0,0
126,-6.0,-2.0,62.0,1645447399.5625,P19,D01,0,0,0
127,-4.0,-2.0,62.0,1645447399.59375,P19,D01,0,0,0
128,-7.0,-3.0,62.0,1645447399.625,P19,D01,0,0,0
129,-6.0,-2.0,62.0,1645447399.65625,P19,D01,0,0,0
130,-4.0,-2.0,62.0,1645447399.6875,P19,D01,0,0,0
131,-6.0,-3.0,62.0,1645447399.71875,P19,D01,0,0,0
132,-5.0,-3.0,62.0,1645447399.75,P19,D01,0,0,0
133,-5.0,-3.0,62.0,1645447399.78125,P19,D01,0,0,0
134,-5.0,-3.0,62.0,1645447399.8125,P19,D01,0,0,0
135,-5.0,-3.0,62.0,1645447399.84375,P19,D01,0,0,0
136,-6.0,-3.0,62.0,1645447399.875,P19,D01,0,0,0
137,-6.0,-2.0,62.0,1645447399.90625,P19,D01,0,0,0
138,-6.0,-2.0,62.0,1645447399.9375,P19,D01,0,0,0
139,-6.0,-3.0,62.0,1645447399.96875,P19,D01,0,0,0
140,-7.0,-3.0,62.0,1645447400.0,P19,D01,0,0,0
141,-6.0,-2.0,62.0,1645447400.03125,P19,D01,0,0,0
142,-5.0,-3.0,62.0,1645447400.0625,P19,D01,0,0,0
143,-5.0,-3.0,62.0,1645447400.09375,P19,D01,0,0,0
144,-5.0,-3.0,62.0,1645447400.125,P19,D01,0,0,0
145,-6.0,-3.0,62.0,1645447400.15625,P19,D01,0,0,0
146,-6.0,-3.0,62.0,1645447400.1875,P19,D01,0,0,0
147,-6.0,-3.0,62.0,1645447400.21875,P19,D01,0,0,0
148,-6.0,-2.0,62.0,1645447400.25,P19,D01,0,0,0
149,-6.0,-3.0,62.0,1645447400.28125,P19,D01,0,0,0
150,-6.0,-3.0,62.0,1645447400.3125,P19,D01,0,0,0
151,-6.0,-3.0,62.0,1645447400.34375,P19,D01,0,0,0
152,-4.0,-3.0,63.0,1645447400.375,P19,D01,0,0,0
153,-6.0,-3.0,62.0,1645447400.40625,P19,D01,0,0,0
154,-7.0,-3.0,62.0,1645447400.4375,P19,D01,0,0,0
155,-6.0,-3.0,62.0,1645447400.46875,P19,D01,0,0,0
156,-6.0,-3.0,62.0,1645447400.5,P19,D01,0,0,0
157,-6.0,-3.0,62.0,1645447400.53125,P19,D01,0,0,0
158,-7.0,-3.0,62.0,1645447400.5625,P19,D01,0,0,0
159,-6.0,-3.0,62.0,1645447400.59375,P19,D01,0,0,0
160,-5.0,-3.0,62.0,1645447400.625,P19,D01,0,0,0
161,-5.0,-3.0,62.0,1645447400.65625,P19,D01,0,0,0
162,-9.0,-3.0,62.0,1645447400.6875,P19,D01,0,0,0
163,-7.0,-4.0,62.0,1645447400.71875,P19,D01,0,0,0
164,-5.0,-3.0,63.0,1645447400.75,P19,D01,0,0,0
165,-4.0,-3.0,62.0,1645447400.78125,P19,D01,0,0,0
166,-7.0,-3.0,62.0,1645447400.8125,P19,D01,0,0,0
167,-7.0,-3.0,62.0,1645447400.84375,P19,D01,0,0,0
168,-6.0,-3.0,62.0,1645447400.875,P19,D01,0,0,0
169,-7.0,-3.0,62.0,1645447400.90625,P19,D01,0,0,0
170,-7.0,-3.0,62.0,1645447400.9375,P19,D01,0,0,0
171,-6.0,-3.0,62.0,1645447400.96875,P19,D01,0,0,0
172,-6.0,-3.0,62.0,1645447401.0,P19,D01,0,0,0
173,-6.0,-3.0,62.0,1645447401.03125,P19,D01,0,0,0
174,-7.0,-3.0,62.0,1645447401.0625,P19,D01,0,0,0
175,-7.0,-3.0,62.0,1645447401.09375,P19,D01,0,0,0
176,-6.0,-3.0,62.0,1645447401.125,P19,D01,0,0,0
177,-6.0,-3.0,62.0,1645447401.15625,P19,D01,0,0,0
178,-7.0,-3.0,62.0,1645447401.1875,P19,D01,0,0,0
179,-7.0,-3.0,62.0,1645447401.21875,P19,D01,0,0,0
180,-7.0,-3.0,62.0,1645447401.25,P19,D01,0,0,0
181,-7.0,-3.0,62.0,1645447401.28125,P19,D01,0,0,0
182,-6.0,-3.0,62.0,1645447401.3125,P19,D01,0,0,0
183,-7.0,-3.0,62.0,1645447401.34375,P19,D01,0,0,0
184,-6.0,-3.0,62.0,1645447401.375,P19,D01,0,0,0
185,-6.0,-3.0,62.0,1645447401.40625,P19,D01,0,0,0
186,-6.0,-3.0,62.0,1645447401.4375,P19,D01,0,0,0
187,-7.0,-3.0,62.0,1645447401.46875,P19,D01,0,0,0
188,-6.0,-3.0,62.0,1645447401.5,P19,D01,0,0,0
189,-6.0,-3.0,62.0,1645447401.53125,P19,D01,0,0,0
190,-6.0,-3.0,62.0,1645447401.5625,P19,D01,0,0,0
191,-6.0,-4.0,62.0,1645447401.59375,P19,D01,0,0,0
192,-6.0,-3.0,62.0,1645447401.625,P19,D01,0,0,0
193,-6.0,-3.0,62.0,1645447401.65625,P19,D01,0,0,0
194,-6.0,-3.0,62.0,1645447401.6875,P19,D01,0,0,0
195,-6.0,-3.0,62.0,1645447401.71875,P19,D01,0,0,0
196,-6.0,-3.0,62.0,1645447401.75,P19,D01,0,0,0
197,-6.0,-3.0,62.0,1645447401.78125,P19,D01,0,0,0
198,-6.0,-3.0,62.0,1645447401.8125,P19,D01,0,0,0
199,-7.0,-3.0,62.0,1645447401.84375,P19,D01,0,0,0
200,-6.0,-3.0,62.0,1645447401.875,P19,D01,0,0,0
201,-7.0,-3.0,62.0,1645447401.90625,P19,D01,0,0,0
202,-7.0,-4.0,62.0,1645447401.9375,P19,D01,0,0,0
203,-6.0,-4.0,62.0,1645447401.96875,P19,D01,0,0,0
204,-5.0,-3.0,62.0,1645447402.0,P19,D01,0,0,0
205,-6.0,-3.0,62.0,1645447402.03125,P19,D01,0,0,0
206,-6.0,-3.0,62.0,1645447402.0625,P19,D01,0,0,0
207,-6.0,-3.0,62.0,1645447402.09375,P19,D01,0,0,0
208,-6.0,-3.0,62.0,1645447402.125,P19,D01,0,0,0
209,-6.0,-3.0,62.0,1645447402.15625,P19,D01,0,0,0
210,-6.0,-3.0,62.0,1645447402.1875,P19,D01,0,0,0
211,-6.0,-3.0,62.0,1645447402.21875,P19,D01,0,0,0
212,-6.0,-3.0,62.0,1645447402.25,P19,D01,0,0,0
213,-6.0,-3.0,62.0,1645447402.28125,P19,D01,0,0,0
214,-6.0,-3.0,62.0,1645447402.3125,P19,D01,0,0,0
215,-7.0,-4.0,62.0,1645447402.34375,P19,D01,0,0,0
216,-6.0,-3.0,62.0,1645447402.375,P19,D01,0,0,0
217,-7.0,-4.0,62.0,1645447402.40625,P19,D01,0,0,0
218,-6.0,-3.0,62.0,1645447402.4375,P19,D01,0,0,0
219,-6.0,-3.0,62.0,1645447402.46875,P19,D01,0,0,0
220,-6.0,-3.0,62.0,1645447402.5,P19,D01,0,0,0
221,-7.0,-3.0,62.0,1645447402.53125,P19,D01,0,0,0
222,-6.0,-3.0,62.0,1645447402.5625,P19,D01,0,0,0
223,-6.0,-3.0,62.0,1645447402.59375,P19,D01,0,0,0
224,-6.0,-3.0,62.0,1645447402.625,P19,D01,0,0,0
225,-6.0,-4.0,62.0,1645447402.65625,P19,D01,0,0,0
226,-6.0,-3.0,62.0,1645447402.6875,P19,D01,0,0,0
227,-6.0,-3.0,62.0,1645447402.71875,P19,D01,0,0,0
228,-6.0,-3.0,62.0,1645447402.75,P19,D01,0,0,0
229,-6.0,-3.0,62.0,1645447402.78125,P19,D01,0,0,0
230,-6.0,-3.0,62.0,1645447402.8125,P19,D01,0,0,0
231,-6.0,-3.0,62.0,1645447402.84375,P19,D01,0,0,0
232,-6.0,-3.0,62.0,1645447402.875,P19,D01,0,0,0
233,-6.0,-4.0,62.0,1645447402.90625,P19,D01,0,0,0
234,-6.0,-4.0,62.0,1645447402.9375,P19,D01,0,0,0
235,-6.0,-3.0,62.0,1645447402.96875,P19,D01,0,0,0
236,-7.0,-4.0,62.0,1645447403.0,P19,D01,0,0,0
237,-6.0,-3.0,62.0,1645447403.03125,P19,D01,0,0,0
238,-6.0,-4.0,62.0,1645447403.0625,P19,D01,0,0,0
239,-7.0,-3.0,62.0,1645447403.09375,P19,D01,0,0,0
240,-6.0,-3.0,62.0,1645447403.125,P19,D01,0,0,0
241,-6.0,-4.0,62.0,1645447403.15625,P19,D01,0,0,0
242,-6.0,-3.0,62.0,1645447403.1875,P19,D01,0,0,0
243,-6.0,-3.0,62.0,1645447403.21875,P19,D01,0,0,0
244,-6.0,-4.0,62.0,1645447403.25,P19,D01,0,0,0
245,-6.0,-4.0,62.0,1645447403.28125,P19,D01,0,0,0
246,-7.0,-3.0,62.0,1645447403.3125,P19,D01,0,0,0
247,-6.0,-4.0,62.0,1645447403.34375,P19,D01,0,0,0
248,-6.0,-3.0,62.0,1645447403.375,P19,D01,0,0,0
249,-6.0,-4.0,62.0,1645447403.40625,P19,D01,0,0,0
250,-7.0,-4.0,62.0,1645447403.4375,P19,D01,0,0,0
251,-7.0,-3.0,62.0,1645447403.46875,P19,D01,0,0,0
252,-6.0,-3.0,62.0,1645447403.5,P19,D01,0,0,0
253,-7.0,-3.0,62.0,1645447403.53125,P19,D01,0,0,0
254,-7.0,-4.0,62.0,1645447403.5625,P19,D01,0,0,0
255,-6.0,-4.0,62.0,1645447403.59375,P19,D01,0,0,0
256,-6.0,-3.0,62.0,1645447403.625,P19,D01,0,0,0
257,-7.0,-4.0,62.0,1645447403.65625,P19,D01,0,0,0
258,-6.0,-4.0,62.0,1645447403.6875,P19,D01,0,0,0
259,-7.0,-3.0,62.0,1645447403.71875,P19,D01,0,0,0
260,-7.0,-3.0,62.0,1645447403.75,P19,D01,0,0,0
261,-6.0,-4.0,62.0,1645447403.78125,P19,D01,0,0,0
262,-6.0,-3.0,62.0,1645447403.8125,P19,D01,0,0,0
263,-6.0,-4.0,62.0,1645447403.84375,P19,D01,0,0,0
264,-6.0,-3.0,62.0,1645447403.875,P19,D01,0,0,0
265,-7.0,-4.0,62.0,1645447403.90625,P19,D01,0,0,0
266,-7.0,-3.0,62.0,1645447403.9375,P19,D01,0,0,0
267,-6.0,-4.0,62.0,1645447403.96875,P19,D01,0,0,0
268,-7.0,-3.0,62.0,1645447404.0,P19,D01,0,0,0
269,-5.0,-3.0,62.0,1645447404.03125,P19,D01,0,0,0
270,-7.0,-4.0,62.0,1645447404.0625,P19,D01,0,0,0
271,-8.0,-3.0,62.0,1645447404.09375,P19,D01,0,0,0
272,-6.0,-4.0,62.0,1645447404.125,P19,D01,0,0,0
273,-7.0,-3.0,62.0,1645447404.15625,P19,D01,0,0,0
274,-7.0,-4.0,62.0,1645447404.1875,P19,D01,0,0,0
275,-8.0,-4.0,62.0,1645447404.21875,P19,D01,0,0,0
276,-6.0,-4.0,62.0,1645447404.25,P19,D01,0,0,0
277,-7.0,-3.0,62.0,1645447404.28125,P19,D01,0,0,0
278,-8.0,-4.0,62.0,1645447404.3125,P19,D01,0,0,0
279,-8.0,-4.0,62.0,1645447404.34375,P19,D01,0,0,0
280,-6.0,-3.0,62.0,1645447404.375,P19,D01,0,0,0
281,-7.0,-3.0,62.0,1645447404.40625,P19,D01,0,0,0
282,-7.0,-3.0,62.0,1645447404.4375,P19,D01,0,0,0
283,-7.0,-4.0,62.0,1645447404.46875,P19,D01,0,0,0
284,-6.0,-3.0,62.0,1645447404.5,P19,D01,0,0,0
285,-7.0,-3.0,62.0,1645447404.53125,P19,D01,0,0,0
286,-7.0,-3.0,62.0,1645447404.5625,P19,D01,0,0,0
287,-7.0,-3.0,62.0,1645447404.59375,P19,D01,0,0,0
288,-7.0,-4.0,62.0,1645447404.625,P19,D01,0,0,0
289,-7.0,-3.0,62.0,1645447404.65625,P19,D01,0,0,0
290,-7.0,-4.0,62.0,1645447404.6875,P19,D01,0,0,0
291,-6.0,-3.0,62.0,1645447404.71875,P19,D01,0,0,0
292,-6.0,-3.0,62.0,1645447404.75,P19,D01,0,0,0
293,-7.0,-3.0,62.0,1645447404.78125,P19,D01,0,0,0
294,-7.0,-3.0,62.0,1645447404.8125,P19,D01,0,0,0
295,-7.0,-4.0,62.0,1645447404.84375,P19,D01,0,0,0
296,-7.0,-4.0,62.0,1645447404.875,P19,D01,0,0,0
297,-7.0,-3.0,62.0,1645447404.90625,P19,D01,0,0,0
298,-7.0,-3.0,62.0,1645447404.9375,P19,D01,0,0,0
299,-7.0,-4.0,62.0,1645447404.96875,P19,D01,0,0,0
300,-6.0,-3.0,62.0,1645447405.0,P19,D01,0,0,0
301,-7.0,-4.0,62.0,1645447405.03125,P19,D01,0,0,0
302,-7.0,-4.0,62.0,1645447405.0625,P19,D01,0,0,0
303,-7.0,-4.0,62.0,1645447405.09375,P19,D01,0,0,0
304,-6.0,-4.0,62.0,1645447405.125,P19,D01,0,0,0
305,-7.0,-4.0,62.0,1645447405.15625,P19,D01,0,0,0
306,-7.0,-4.0,62.0,1645447405.1875,P19,D01,0,0,0
307,-7.0,-3.0,62.0,1645447405.21875,P19,D01,0,0,0
308,-6.0,-4.0,62.0,1645447405.25,P19,D01,0,0,0
309,-7.0,-4.0,62.0,1645447405.28125,P19,D01,0,0,0
310,-7.0,-4.0,62.0,1645447405.3125,P19,D01,0,0,0
311,-6.0,-3.0,62.0,1645447405.34375,P19,D01,0,0,0
312,-7.0,-4.0,62.0,1645447405.375,P19,D01,0,0,0
313,-8.0,-4.0,62.0,1645447405.40625,P19,D01,0,0,0
314,-6.0,-3.0,62.0,1645447405.4375,P19,D01,0,0,0
315,-6.0,-3.0,62.0,1645447405.46875,P19,D01,0,0,0
316,-7.0,-4.0,62.0,1645447405.5,P19,D01,0,0,0
317,-7.0,-4.0,62.0,1645447405.53125,P19,D01,0,0,0
318,-6.0,-4.0,62.0,1645447405.5625,P19,D01,0,0,0
319,-6.0,-4.0,62.0,1645447405.59375,P19,D01,0,0,0
320,-7.0,-4.0,62.0,1645447405.625,P19,D01,0,0,0
321,-7.0,-4.0,62.0,1645447405.65625,P19,D01,0,0,0
322,-6.0,-4.0,62.0,1645447405.6875,P19,D01,0,0,0
323,-6.0,-3.0,62.0,1645447405.71875,P19,D01,0,0,0
324,-7.0,-4.0,62.0,1645447405.75,P19,D01,0,0,0
325,-7.0,-4.0,62.0,1645447405.78125,P19,D01,0,0,0
326,-7.0,-4.0,62.0,1645447405.8125,P19,D01,0,0,0
327,-7.0,-4.0,62.0,1645447405.84375,P19,D01,0,0,0
328,-6.0,-4.0,62.0,1645447405.875,P19,D01,0,0,0
329,-6.0,-4.0,62.0,1645447405.90625,P19,D01,0,0,0
330,-7.0,-4.0,62.0,1645447405.9375,P19,D01,0,0,0
331,-7.0,-4.0,62.0,1645447405.96875,P19,D01,0,0,0
332,-7.0,-4.0,62.0,1645447406.0,P19,D01,0,0,0
333,-7.0,-4.0,62.0,1645447406.03125,P19,D01,0,0,0
334,-7.0,-4.0,62.0,1645447406.0625,P19,D01,0,0,0
335,-7.0,-4.0,62.0,1645447406.09375,P19,D01,0,0,0
336,-6.0,-4.0,62.0,1645447406.125,P19,D01,0,0,0
337,-7.0,-4.0,62.0,1645447406.15625,P19,D01,0,0,0
338,-7.0,-4.0,62.0,1645447406.1875,P19,D01,0,0,0
339,-7.0,-4.0,62.0,1645447406.21875,P19,D01,0,0,0
340,-7.0,-4.0,62.0,1645447406.25,P19,D01,0,0,0
341,-7.0,-4.0,62.0,1645447406.28125,P19,D01,0,0,0
342,-6.0,-4.0,62.0,1645447406.3125,P19,D01,0,0,0
343,-7.0,-4.0,62.0,1645447406.34375,P19,D01,0,0,0
344,-7.0,-4.0,62.0,1645447406.375,P19,D01,0,0,0
345,-7.0,-4.0,62.0,1645447406.40625,P19,D01,0,0,0
346,-7.0,-4.0,62.0,1645447406.4375,P19,D01,0,0,0
347,-7.0,-4.0,62.0,1645447406.46875,P19,D01,0,0,0
348,-7.0,-3.0,62.0,1645447406.5,P19,D01,0,0,0
349,-7.0,-4.0,62.0,1645447406.53125,P19,D01,0,0,0
350,-7.0,-4.0,62.0,1645447406.5625,P19,D01,0,0,0
351,-6.0,-4.0,62.0,1645447406.59375,P19,D01,0,0,0
352,-7.0,-4.0,62.0,1645447406.625,P19,D01,0,0,0
353,-6.0,-4.0,62.0,1645447406.65625,P19,D01,0,0,0
354,-7.0,-4.0,62.0,1645447406.6875,P19,D01,0,0,0
355,-7.0,-4.0,62.0,1645447406.71875,P19,D01,0,0,0
356,-7.0,-4.0,62.0,1645447406.75,P19,D01,0,0,0
357,-7.0,-3.0,62.0,1645447406.78125,P19,D01,0,0,0
358,-7.0,-4.0,62.0,1645447406.8125,P19,D01,0,0,0
359,-7.0,-4.0,62.0,1645447406.84375,P19,D01,0,0,0
360,-6.0,-4.0,62.0,1645447406.875,P19,D01,0,0,0
361,-7.0,-4.0,62.0,1645447406.90625,P19,D01,0,0,0
362,-7.0,-4.0,62.0,1645447406.9375,P19,D01,0,0,0
363,-7.0,-4.0,62.0,1645447406.96875,P19,D01,0,0,0
364,-6.0,-4.0,62.0,1645447407.0,P19,D01,0,0,0
365,-7.0,-4.0,62.0,1645447407.03125,P19,D01,0,0,0
366,-7.0,-3.0,62.0,1645447407.0625,P19,D01,0,0,0
367,-7.0,-4.0,62.0,1645447407.09375,P19,D01,0,0,0
368,-7.0,-4.0,62.0,1645447407.125,P19,D01,0,0,0
369,-7.0,-4.0,62.0,1645447407.15625,P19,D01,0,0,0
370,-7.0,-3.0,62.0,1645447407.1875,P19,D01,0,0,0
371,-6.0,-4.0,62.0,1645447407.21875,P19,D01,0,0,0
372,-7.0,-4.0,62.0,1645447407.25,P19,D01,0,0,0
373,-7.0,-4.0,62.0,1645447407.28125,P19,D01,0,0,0
374,-6.0,-4.0,62.0,1645447407.3125,P19,D01,0,0,0
375,-5.0,-4.0,62.0,1645447407.34375,P19,D01,0,0,0
376,-7.0,-4.0,62.0,1645447407.375,P19,D01,0,0,0
377,-7.0,-2.0,62.0,1645447407.40625,P19,D01,0,0,0
378,-7.0,-4.0,62.0,1645447407.4375,P19,D01,0,0,0
379,-7.0,-3.0,62.0,1645447407.46875,P19,D01,0,0,0
380,-7.0,-4.0,62.0,1645447407.5,P19,D01,0,0,0
381,-7.0,-4.0,62.0,1645447407.53125,P19,D01,0,0,0
382,-7.0,-3.0,62.0,1645447407.5625,P19,D01,0,0,0
383,-7.0,-3.0,62.0,1645447407.59375,P19,D01,0,0,0
384,-7.0,-4.0,62.0,1645447407.625,P19,D01,0,0,0
385,-6.0,-4.0,62.0,1645447407.65625,P19,D01,0,0,0
386,-7.0,-3.0,62.0,1645447407.6875,P19,D01,0,0,0
387,-7.0,-4.0,62.0,1645447407.71875,P19,D01,0,0,0
388,-5.0,-4.0,63.0,1645447407.75,P19,D01,0,0,0
389,-7.0,-3.0,62.0,1645447407.78125,P19,D01,0,0,0
390,-8.0,-4.0,62.0,1645447407.8125,P19,D01,0,0,0
391,-8.0,-3.0,62.0,1645447407.84375,P19,D01,0,0,0
392,-6.0,-3.0,62.0,1645447407.875,P19,D01,0,0,0
393,-7.0,-3.0,62.0,1645447407.90625,P19,D01,0,0,0
394,-7.0,-3.0,62.0,1645447407.9375,P19,D01,0,0,0
395,-6.0,-3.0,62.0,1645447407.96875,P19,D01,0,0,0
396,-7.0,-3.0,62.0,1645447408.0,P19,D01,0,0,0
397,-7.0,-3.0,62.0,1645447408.03125,P19,D01,0,0,0
398,-6.0,-3.0,62.0,1645447408.0625,P19,D01,0,0,0
399,-6.0,-4.0,62.0,1645447408.09375,P19,D01,0,0,0
400,-7.0,-3.0,62.0,1645447408.125,P19,D01,0,0,0
401,-7.0,-3.0,62.0,1645447408.15625,P19,D01,0,0,0
402,-7.0,-3.0,62.0,1645447408.1875,P19,D01,0,0,0
403,-7.0,-3.0,62.0,1645447408.21875,P19,D01,0,0,0
404,-7.0,-4.0,62.0,1645447408.25,P19,D01,0,0,0
405,-7.0,-3.0,62.0,1645447408.28125,P19,D01,0,0,0
406,-8.0,-3.0,62.0,1645447408.3125,P19,D01,0,0,0
407,-7.0,-3.0,62.0,1645447408.34375,P19,D01,0,0,0
408,-8.0,-3.0,62.0,1645447408.375,P19,D01,0,0,0
409,-8.0,-3.0,62.0,1645447408.40625,P19,D01,0,0,0
410,-8.0,-3.0,62.0,1645447408.4375,P19,D01,0,0,0
411,-7.0,-3.0,62.0,1645447408.46875,P19,D01,0,0,0
412,-8.0,-3.0,62.0,1645447408.5,P19,D01,0,0,0
413,-8.0,-3.0,62.0,1645447408.53125,P19,D01,0,0,0
414,-7.0,-3.0,62.0,1645447408.5625,P19,D01,0,0,0
415,-7.0,-3.0,62.0,1645447408.59375,P19,D01,0,0,0
416,-6.0,-3.0,62.0,1645447408.625,P19,D01,0,0,0
417,-8.0,-3.0,62.0,1645447408.65625,P19,D01,0,0,0
418,-7.0,-3.0,62.0,1645447408.6875,P19,D01,0,0,0
419,-7.0,-3.0,62.0,1645447408.71875,P19,D01,0,0,0
420,-7.0,-3.0,62.0,1645447408.75,P19,D01,0,0,0
421,-7.0,-3.0,62.0,1645447408.78125,P19,D01,0,0,0
422,-7.0,-3.0,62.0,1645447408.8125,P19,D01,0,0,0
423,-7.0,-3.0,62.0,1645447408.84375,P19,D01,0,0,0
424,-8.0,-3.0,62.0,1645447408.875,P19,D01,0,0,0
425,-7.0,-3.0,62.0,1645447408.90625,P19,D01,0,0,0
426,-6.0,-3.0,62.0,1645447408.9375,P19,D01,0,0,0
427,-7.0,-3.0,62.0,1645447408.96875,P19,D01,0,0,0
428,-7.0,-3.0,62.0,1645447409.0,P19,D01,0,0,0
429,-6.0,-4.0,62.0,1645447409.03125,P19,D01,0,0,0
430,-7.0,-3.0,62.0,1645447409.0625,P19,D01,0,0,0
431,-8.0,-3.0,62.0,1645447409.09375,P19,D01,0,0,0
432,-7.0,-3.0,62.0,1645447409.125,P19,D01,0,0,0
433,-6.0,-4.0,62.0,1645447409.15625,P19,D01,0,0,0
434,-8.0,-3.0,62.0,1645447409.1875,P19,D01,0,0,0
435,-7.0,-3.0,62.0,1645447409.21875,P19,D01,0,0,0
436,-6.0,-3.0,62.0,1645447409.25,P19,D01,0,0,0
437,-7.0,-3.0,62.0,1645447409.28125,P19,D01,0,0,0
438,-7.0,-4.0,62.0,1645447409.3125,P19,D01,0,0,0
439,-7.0,-4.0,62.0,1645447409.34375,P19,D01,0,0,0
440,-7.0,-4.0,62.0,1645447409.375,P19,D01,0,0,0
441,-7.0,-3.0,62.0,1645447409.40625,P19,D01,0,0,0
442,-7.0,-4.0,62.0,1645447409.4375,P19,D01,0,0,0
443,-7.0,-3.0,62.0,1645447409.46875,P19,D01,0,0,0
444,-7.0,-3.0,62.0,1645447409.5,P19,D01,0,0,0
445,-7.0,-3.0,62.0,1645447409.53125,P19,D01,0,0,0
446,-7.0,-3.0,62.0,1645447409.5625,P19,D01,0,0,0
447,-7.0,-3.0,62.0,1645447409.59375,P19,D01,0,0,0
448,-7.0,-3.0,62.0,1645447409.625,P19,D01,0,0,0
449,-7.0,-3.0,62.0,1645447409.65625,P19,D01,0,0,0
450,-7.0,-3.0,62.0,1645447409.6875,P19,D01,0,0,0
451,-6.0,-4.0,62.0,1645447409.71875,P19,D01,0,0,0
452,-6.0,-3.0,62.0,1645447409.75,P19,D01,0,0,0
453,-7.0,-3.0,62.0,1645447409.78125,P19,D01,0,0,0
454,-6.0,-3.0,62.0,1645447409.8125,P19,D01,0,0,0
455,-6.0,-4.0,62.0,1645447409.84375,P19,D01,0,0,0
456,-7.0,-4.0,62.0,1645447409.875,P19,D01,0,0,0
457,-7.0,-3.0,62.0,1645447409.90625,P19,D01,0,0,0
458,-7.0,-4.0,62.0,1645447409.9375,P19,D01,0,0,0
459,-6.0,-4.0,62.0,1645447409.96875,P19,D01,0,0,0
460,-7.0,-4.0,62.0,1645447410.0,P19,D01,0,0,0
461,-7.0,-4.0,62.0,1645447410.03125,P19,D01,0,0,0
462,-7.0,-3.0,62.0,1645447410.0625,P19,D01,0,0,0
463,-6.0,-3.0,62.0,1645447410.09375,P19,D01,0,0,0
464,-6.0,-3.0,62.0,1645447410.125,P19,D01,0,0,0
465,-7.0,-3.0,62.0,1645447410.15625,P19,D01,0,0,0
466,-7.0,-4.0,62.0,1645447410.1875,P19,D01,0,0,0
467,-7.0,-3.0,62.0,1645447410.21875,P19,D01,0,0,0
468,-7.0,-3.0,62.0,1645447410.25,P19,D01,0,0,0
469,-6.0,-4.0,62.0,1645447410.28125,P19,D01,0,0,0
470,-6.0,-4.0,62.0,1645447410.3125,P19,D01,0,0,0
471,-6.0,-4.0,62.0,1645447410.34375,P19,D01,0,0,0
472,-7.0,-4.0,62.0,1645447410.375,P19,D01,0,0,0
473,-7.0,-4.0,62.0,1645447410.40625,P19,D01,0,0,0
474,-7.0,-3.0,62.0,1645447410.4375,P19,D01,0,0,0
475,-7.0,-4.0,62.0,1645447410.46875,P19,D01,0,0,0
476,-6.0,-4.0,62.0,1645447410.5,P19,D01,0,0,0
477,-6.0,-4.0,62.0,1645447410.53125,P19,D01,0,0,0
478,-7.0,-4.0,62.0,1645447410.5625,P19,D01,0,0,0
479,-7.0,-3.0,62.0,1645447410.59375,P19,D01,0,0,0
480,-6.0,-4.0,62.0,1645447410.625,P19,D01,0,0,0
481,-6.0,-4.0,62.0,1645447410.65625,P19,D01,0,0,0
482,-7.0,-4.0,62.0,1645447410.6875,P19,D01,0,0,0
483,-7.0,-4.0,62.0,1645447410.71875,P19,D01,0,0,0
484,-7.0,-3.0,62.0,1645447410.75,P19,D01,0,0,0
485,-6.0,-3.0,62.0,1645447410.78125,P19,D01,0,0,0
486,-7.0,-4.0,62.0,1645447410.8125,P19,D01,0,0,0
487,-7.0,-4.0,62.0,1645447410.84375,P19,D01,0,0,0
488,-7.0,-4.0,62.0,1645447410.875,P19,D01,0,0,0
489,-6.0,-4.0,62.0,1645447410.90625,P19,D01,0,0,0
490,-6.0,-4.0,62.0,1645447410.9375,P19,D01,0,0,0
491,-7.0,-4.0,62.0,1645447410.96875,P19,D01,0,0,0
492,-7.0,-4.0,62.0,1645447411.0,P19,D01,0,0,0
493,-6.0,-4.0,62.0,1645447411.03125,P19,D01,0,0,0
494,-6.0,-4.0,62.0,1645447411.0625,P19,D01,0,0,0
495,-7.0,-4.0,62.0,1645447411.09375,P19,D01,0,0,0
496,-7.0,-3.0,62.0,1645447411.125,P19,D01,0,0,0
497,-7.0,-4.0,62.0,1645447411.15625,P19,D01,0,0,0
498,-7.0,-4.0,62.0,1645447411.1875,P19,D01,0,0,0
499,-7.0,-4.0,62.0,1645447411.21875,P19,D01,0,0,0
500,-7.0,-4.0,62.0,1645447411.25,P19,D01,0,0,0
501,-7.0,-4.0,62.0,1645447411.28125,P19,D01,0,0,0
502,-7.0,-4.0,62.0,1645447411.3125,P19,D01,0,0,0
503,-6.0,-4.0,62.0,1645447411.34375,P19,D01,0,0,0
504,-7.0,-4.0,62.0,1645447411.375,P19,D01,0,0,0
505,-7.0,-4.0,62.0,1645447411.40625,P19,D01,0,0,0
506,-7.0,-4.0,62.0,1645447411.4375,P19,D01,0,0,0
507,-6.0,-3.0,62.0,1645447411.46875,P19,D01,0,0,0
508,-6.0,-4.0,62.0,1645447411.5,P19,D01,0,0,0
509,-7.0,-4.0,62.0,1645447411.53125,P19,D01,0,0,0
510,-7.0,-4.0,62.0,1645447411.5625,P19,D01,0,0,0
511,-6.0,-3.0,62.0,1645447411.59375,P19,D01,0,0,0
512,-6.0,-3.0,62.0,1645447411.625,P19,D01,0,0,0
513,-7.0,-4.0,62.0,1645447411.65625,P19,D01,0,0,0
514,-7.0,-4.0,62.0,1645447411.6875,P19,D01,0,0,0
515,-6.0,-4.0,62.0,1645447411.71875,P19,D01,0,0,0
516,-6.0,-4.0,62.0,1645447411.75,P19,D01,0,0,0
517,-7.0,-4.0,62.0,1645447411.78125,P19,D01,0,0,0
518,-7.0,-4.0,62.0,1645447411.8125,P19,D01,0,0,0
519,-7.0,-3.0,62.0,1645447411.84375,P19,D01,0,0,0
520,-7.0,-3.0,62.0,1645447411.875,P19,D01,0,0,0
521,-7.0,-4.0,62.0,1645447411.90625,P19,D01,0,0,0
522,-7.0,-4.0,62.0,1645447411.9375,P19,D01,0,0,0
523,-6.0,-4.0,62.0,1645447411.96875,P19,D01,0,0,0
524,-6.0,-4.0,62.0,1645447412.0,P19,D01,0,0,0
525,-7.0,-4.0,62.0,1645447412.03125,P19,D01,0,0,0
526,-6.0,-4.0,62.0,1645447412.0625,P19,D01,0,0,0
527,-6.0,-4.0,62.0,1645447412.09375,P19,D01,0,0,0
528,-7.0,-4.0,62.0,1645447412.125,P19,D01,0,0,0
529,-7.0,-4.0,62.0,1645447412.15625,P19,D01,0,0,0
530,-7.0,-3.0,62.0,1645447412.1875,P19,D01,0,0,0
531,-7.0,-4.0,62.0,1645447412.21875,P19,D01,0,0,0
532,-6.0,-4.0,62.0,1645447412.25,P19,D01,0,0,0
533,-7.0,-3.0,62.0,1645447412.28125,P19,D01,0,0,0
534,-7.0,-4.0,62.0,1645447412.3125,P19,D01,0,0,0
535,-6.0,-4.0,62.0,1645447412.34375,P19,D01,0,0,0
536,-6.0,-4.0,62.0,1645447412.375,P19,D01,0,0,0
537,-7.0,-4.0,62.0,1645447412.40625,P19,D01,0,0,0
538,-7.0,-3.0,62.0,1645447412.4375,P19,D01,0,0,0
539,-7.0,-4.0,62.0,1645447412.46875,P19,D01,0,0,0
540,-7.0,-4.0,62.0,1645447412.5,P19,D01,0,0,0
541,-7.0,-4.0,62.0,1645447412.53125,P19,D01,0,0,0
542,-7.0,-3.0,62.0,1645447412.5625,P19,D01,0,0,0
543,-7.0,-4.0,62.0,1645447412.59375,P19,D01,0,0,0
544,-7.0,-4.0,62.0,1645447412.625,P19,D01,0,0,0
545,-6.0,-4.0,62.0,1645447412.65625,P19,D01,0,0,0
546,-7.0,-4.0,62.0,1645447412.6875,P19,D01,0,0,0
547,-7.0,-4.0,62.0,1645447412.71875,P19,D01,0,0,0
548,-7.0,-3.0,62.0,1645447412.75,P19,D01,0,0,0
549,-7.0,-4.0,62.0,1645447412.78125,P19,D01,0,0,0
550,-7.0,-4.0,62.0,1645447412.8125,P19,D01,0,0,0
551,-7.0,-3.0,62.0,1645447412.84375,P19,D01,0,0,0
552,-6.0,-3.0,62.0,1645447412.875,P19,D01,0,0,0
553,-7.0,-3.0,62.0,1645447412.90625,P19,D01,0,0,0
554,-7.0,-4.0,62.0,1645447412.9375,P19,D01,0,0,0
555,-7.0,-4.0,62.0,1645447412.96875,P19,D01,0,0,0
556,-6.0,-4.0,62.0,1645447413.0,P19,D01,0,0,0
557,-7.0,-3.0,62.0,1645447413.03125,P19,D01,0,0,0
558,-7.0,-4.0,62.0,1645447413.0625,P19,D01,0,0,0
559,-6.0,-3.0,62.0,1645447413.09375,P19,D01,0,0,0
560,-7.0,-3.0,62.0,1645447413.125,P19,D01,0,0,0
561,-7.0,-4.0,62.0,1645447413.15625,P19,D01,0,0,0
562,-7.0,-3.0,62.0,1645447413.1875,P19,D01,0,0,0
563,-7.0,-3.0,62.0,1645447413.21875,P19,D01,0,0,0
564,-7.0,-3.0,62.0,1645447413.25,P19,D01,0,0,0
565,-6.0,-3.0,62.0,1645447413.28125,P19,D01,0,0,0
566,-7.0,-3.0,62.0,1645447413.3125,P19,D01,0,0,0
567,-7.0,-4.0,62.0,1645447413.34375,P19,D01,0,0,0
568,-7.0,-3.0,62.0,1645447413.375,P19,D01,0,0,0
569,-7.0,-3.0,62.0,1645447413.40625,P19,D01,0,0,0
570,-7.0,-3.0,62.0,1645447413.4375,P19,D01,0,0,0
571,-7.0,-3.0,62.0,1645447413.46875,P19,D01,0,0,0
572,-6.0,-4.0,62.0,1645447413.5,P19,D01,0,0,0
573,-7.0,-3.0,62.0,1645447413.53125,P19,D01,0,0,0
574,-8.0,-3.0,62.0,1645447413.5625,P19,D01,0,0,0
575,-7.0,-3.0,62.0,1645447413.59375,P19,D01,0,0,0
576,-7.0,-3.0,62.0,1645447413.625,P19,D01,0,0,0
577,-7.0,-4.0,62.0,1645447413.65625,P19,D01,0,0,0
578,-7.0,-3.0,62.0,1645447413.6875,P19,D01,0,0,0
579,-7.0,-4.0,62.0,1645447413.71875,P19,D01,0,0,0
580,-7.0,-4.0,62.0,1645447413.75,P19,D01,0,0,0
581,-7.0,-4.0,62.0,1645447413.78125,P19,D01,0,0,0
582,-7.0,-3.0,62.0,1645447413.8125,P19,D01,0,0,0
583,-7.0,-4.0,62.0,1645447413.84375,P19,D01,0,0,0
584,-7.0,-4.0,62.0,1645447413.875,P19,D01,0,0,0
585,-7.0,-3.0,62.0,1645447413.90625,P19,D01,0,0,0
586,-7.0,-3.0,62.0,1645447413.9375,P19,D01,0,0,0
587,-6.0,-3.0,62.0,1645447413.96875,P19,D01,0,0,0
588,-7.0,-3.0,62.0,1645447414.0,P19,D01,0,0,0
589,-7.0,-4.0,62.0,1645447414.03125,P19,D01,0,0,0
590,-7.0,-4.0,62.0,1645447414.0625,P19,D01,0,0,0
591,-6.0,-3.0,62.0,1645447414.09375,P19,D01,0,0,0
592,-7.0,-3.0,62.0,1645447414.125,P19,D01,0,0,0
593,-7.0,-4.0,62.0,1645447414.15625,P19,D01,0,0,0
594,-7.0,-4.0,62.0,1645447414.1875,P19,D01,0,0,0
595,-6.0,-4.0,62.0,1645447414.21875,P19,D01,0,0,0
596,-7.0,-4.0,62.0,1645447414.25,P19,D01,0,0,0
597,-7.0,-4.0,62.0,1645447414.28125,P19,D01,0,0,0
598,-6.0,-3.0,62.0,1645447414.3125,P19,D01,0,0,0
599,-7.0,-4.0,62.0,1645447414.34375,P19,D01,0,0,0
600,-7.0,-3.0,62.0,1645447414.375,P19,D01,0,0,0
601,-6.0,-4.0,62.0,1645447414.40625,P19,D01,0,0,0
602,-6.0,-4.0,62.0,1645447414.4375,P19,D01,0,0,0
603,-7.0,-4.0,62.0,1645447414.46875,P19,D01,0,0,0
604,-6.0,-4.0,62.0,1645447414.5,P19,D01,0,0,0
605,-6.0,-3.0,62.0,1645447414.53125,P19,D01,0,0,0
606,-6.0,-3.0,62.0,1645447414.5625,P19,D01,0,0,0
607,-7.0,-4.0,62.0,1645447414.59375,P19,D01,0,0,0
608,-7.0,-3.0,62.0,1645447414.625,P19,D01,0,0,0
609,-7.0,-3.0,62.0,1645447414.65625,P19,D01,0,0,0
610,-7.0,-4.0,62.0,1645447414.6875,P19,D01,0,0,0
611,-7.0,-3.0,62.0,1645447414.71875,P19,D01,0,0,0
612,-7.0,-3.0,62.0,1645447414.75,P19,D01,0,0,0
613,-7.0,-4.0,62.0,1645447414.78125,P19,D01,0,0,0
614,-7.0,-4.0,62.0,1645447414.8125,P19,D01,0,0,0
615,-7.0,-4.0,62.0,1645447414.84375,P19,D01,0,0,0
616,-7.0,-4.0,62.0,1645447414.875,P19,D01,0,0,0
617,-6.0,-4.0,62.0,1645447414.90625,P19,D01,0,0,0
618,-7.0,-4.0,62.0,1645447414.9375,P19,D01,0,0,0
619,-7.0,-4.0,62.0,1645447414.96875,P19,D01,0,0,0
620,-6.0,-4.0,62.0,1645447415.0,P19,D01,0,0,0
621,-7.0,-3.0,62.0,1645447415.03125,P19,D01,0,0,0
622,-7.0,-4.0,62.0,1645447415.0625,P19,D01,0,0,0
623,-6.0,-4.0,62.0,1645447415.09375,P19,D01,0,0,0
624,-7.0,-4.0,62.0,1645447415.125,P19,D01,0,0,0
625,-7.0,-3.0,62.0,1645447415.15625,P19,D01,0,0,0
626,-6.0,-3.0,62.0,1645447415.1875,P19,D01,0,0,0
627,-7.0,-4.0,62.0,1645447415.21875,P19,D01,0,0,0
628,-7.0,-4.0,62.0,1645447415.25,P19,D01,0,0,0
629,-7.0,-3.0,62.0,1645447415.28125,P19,D01,0,0,0
630,-7.0,-4.0,62.0,1645447415.3125,P19,D01,0,0,0
631,-7.0,-4.0,62.0,1645447415.34375,P19,D01,0,0,0
632,-7.0,-4.0,62.0,1645447415.375,P19,D01,0,0,0
633,-7.0,-4.0,62.0,1645447415.40625,P19,D01,0,0,0
634,-7.0,-3.0,62.0,1645447415.4375,P19,D01,0,0,0
635,-7.0,-4.0,62.0,1645447415.46875,P19,D01,0,0,0
636,-6.0,-4.0,62.0,1645447415.5,P19,D01,0,0,0
637,-6.0,-4.0,62.0,1645447415.53125,P19,D01,0,0,0
638,-7.0,-4.0,62.0,1645447415.5625,P19,D01,0,0,0
639,-7.0,-4.0,62.0,1645447415.59375,P19,D01,0,0,0
640,-6.0,-4.0,62.0,1645447415.625,P19,D01,0,0,0
641,-7.0,-4.0,62.0,1645447415.65625,P19,D01,0,0,0
642,-8.0,-4.0,62.0,1645447415.6875,P19,D01,0,0,0
643,-7.0,-4.0,62.0,1645447415.71875,P19,D01,0,0,0
644,-7.0,-4.0,62.0,1645447415.75,P19,D01,0,0,0
645,-7.0,-4.0,62.0,1645447415.78125,P19,D01,0,0,0
646,-7.0,-4.0,62.0,1645447415.8125,P19,D01,0,0,0
647,-6.0,-4.0,62.0,1645447415.84375,P19,D01,0,0,0
648,-6.0,-4.0,62.0,1645447415.875,P19,D01,0,0,0
649,-7.0,-4.0,62.0,1645447415.90625,P19,D01,0,0,0
650,-7.0,-4.0,62.0,1645447415.9375,P19,D01,0,0,0
651,-6.0,-4.0,62.0,1645447415.96875,P19,D01,0,0,0
652,-6.0,-4.0,62.0,1645447416.0,P19,D01,0,0,0
653,-7.0,-4.0,62.0,1645447416.03125,P19,D01,0,0,0
654,-7.0,-3.0,62.0,1645447416.0625,P19,D01,0,0,0
655,-7.0,-4.0,62.0,1645447416.09375,P19,D01,0,0,0
656,-7.0,-4.0,62.0,1645447416.125,P19,D01,0,0,0
657,-7.0,-4.0,62.0,1645447416.15625,P19,D01,0,0,0
658,-7.0,-4.0,62.0,1645447416.1875,P19,D01,0,0,0
659,-7.0,-4.0,62.0,1645447416.21875,P19,D01,0,0,0
660,-7.0,-4.0,62.0,1645447416.25,P19,D01,0,0,0
661,-6.0,-4.0,62.0,1645447416.28125,P19,D01,0,0,0
662,-7.0,-4.0,62.0,1645447416.3125,P19,D01,0,0,0
663,-7.0,-4.0,62.0,1645447416.34375,P19,D01,0,0,0
664,-7.0,-4.0,62.0,1645447416.375,P19,D01,0,0,0
665,-7.0,-4.0,62.0,1645447416.40625,P19,D01,0,0,0
666,-6.0,-4.0,62.0,1645447416.4375,P19,D01,0,0,0
667,-7.0,-4.0,62.0,1645447416.46875,P19,D01,0,0,0
668,-7.0,-4.0,62.0,1645447416.5,P19,D01,0,0,0
669,-6.0,-4.0,62.0,1645447416.53125,P19,D01,0,0,0
670,-7.0,-4.0,62.0,1645447416.5625,P19,D01,0,0,0
671,-7.0,-4.0,62.0,1645447416.59375,P19,D01,0,0,0
672,-7.0,-4.0,62.0,1645447416.625,P19,D01,0,0,0
673,-7.0,-4.0,62.0,1645447416.65625,P19,D01,0,0,0
674,-7.0,-3.0,62.0,1645447416.6875,P19,D01,0,0,0
675,-6.0,-4.0,62.0,1645447416.71875,P19,D01,0,0,0
676,-7.0,-3.0,62.0,1645447416.75,P19,D01,0,0,0
677,-7.0,-3.0,62.0,1645447416.78125,P19,D01,0,0,0
678,-7.0,-4.0,62.0,1645447416.8125,P19,D01,0,0,0
679,-7.0,-4.0,62.0,1645447416.84375,P19,D01,0,0,0
680,-7.0,-4.0,62.0,1645447416.875,P19,D01,0,0,0
681,-6.0,-4.0,62.0,1645447416.90625,P19,D01,0,0,0
682,-7.0,-4.0,62.0,1645447416.9375,P19,D01,0,0,0
683,-7.0,-4.0,62.0,1645447416.96875,P19,D01,0,0,0
684,-6.0,-4.0,62.0,1645447417.0,P19,D01,0,0,0
685,-7.0,-4.0,62.0,1645447417.03125,P19,D01,0,0,0
686,-7.0,-4.0,62.0,1645447417.0625,P19,D01,0,0,0
687,-7.0,-4.0,62.0,1645447417.09375,P19,D01,0,0,0
688,-7.0,-4.0,62.0,1645447417.125,P19,D01,0,0,0
689,-7.0,-4.0,62.0,1645447417.15625,P19,D01,0,0,0
690,-7.0,-3.0,62.0,1645447417.1875,P19,D01,0,0,0
691,-7.0,-4.0,62.0,1645447417.21875,P19,D01,0,0,0
692,-7.0,-4.0,62.0,1645447417.25,P19,D01,0,0,0
693,-7.0,-4.0,62.0,1645447417.28125,P19,D01,0,0,0
694,-7.0,-4.0,62.0,1645447417.3125,P19,D01,0,0,0
695,-7.0,-4.0,62.0,1645447417.34375,P19,D01,0,0,0
696,-6.0,-4.0,62.0,1645447417.375,P19,D01,0,0,0
697,-7.0,-4.0,62.0,1645447417.40625,P19,D01,0,0,0
698,-7.0,-4.0,62.0,1645447417.4375,P19,D01,0,0,0
699,-7.0,-4.0,62.0,1645447417.46875,P19,D01,0,0,0
700,-7.0,-4.0,62.0,1645447417.5,P19,D01,0,0,0
701,-7.0,-4.0,62.0,1645447417.53125,P19,D01,0,0,0
702,-7.0,-4.0,62.0,1645447417.5625,P19,D01,0,0,0
703,-7.0,-4.0,62.0,1645447417.59375,P19,D01,0,0,0
704,-7.0,-4.0,62.0,1645447417.625,P19,D01,0,0,0
705,-6.0,-4.0,62.0,1645447417.65625,P19,D01,0,0,0
706,-7.0,-4.0,62.0,1645447417.6875,P19,D01,0,0,0
707,-7.0,-4.0,62.0,1645447417.71875,P19,D01,0,0,0
708,-7.0,-4.0,62.0,1645447417.75,P19,D01,0,0,0
709,-7.0,-4.0,62.0,1645447417.78125,P19,D01,0,0,0
710,-7.0,-4.0,62.0,1645447417.8125,P19,D01,0,0,0
711,-7.0,-4.0,62.0,1645447417.84375,P19,D01,0,0,0
712,-7.0,-3.0,62.0,1645447417.875,P19,D01,0,0,0
713,-7.0,-4.0,62.0,1645447417.90625,P19,D01,0,0,0
714,-7.0,-4.0,62.0,1645447417.9375,P19,D01,0,0,0
715,-7.0,-4.0,62.0,1645447417.96875,P19,D01,0,0,0
716,-7.0,-4.0,62.0,1645447418.0,P19,D01,0,0,0
717,-6.0,-3.0,62.0,1645447418.03125,P19,D01,0,0,0
718,-7.0,-4.0,62.0,1645447418.0625,P19,D01,0,0,0
719,-7.0,-4.0,62.0,1645447418.09375,P19,D01,0,0,0
720,-6.0,-4.0,62.0,1645447418.125,P19,D01,0,0,0
721,-7.0,-3.0,62.0,1645447418.15625,P19,D01,0,0,0
722,-7.0,-3.0,62.0,1645447418.1875,P19,D01,0,0,0
723,-7.0,-4.0,62.0,1645447418.21875,P19,D01,0,0,0
724,-7.0,-4.0,62.0,1645447418.25,P19,D01,0,0,0
725,-7.0,-4.0,62.0,1645447418.28125,P19,D01,0,0,0
726,-7.0,-4.0,62.0,1645447418.3125,P19,D01,0,0,0
727,-7.0,-4.0,62.0,1645447418.34375,P19,D01,0,0,0
728,-6.0,-4.0,62.0,1645447418.375,P19,D01,0,0,0
729,-7.0,-4.0,62.0,1645447418.40625,P19,D01,0,0,0
730,-6.0,-4.0,62.0,1645447418.4375,P19,D01,0,0,0
731,-6.0,-4.0,62.0,1645447418.46875,P19,D01,0,0,0
732,-7.0,-4.0,62.0,1645447418.5,P19,D01,0,0,0
733,-7.0,-4.0,62.0,1645447418.53125,P19,D01,0,0,0
734,-7.0,-4.0,62.0,1645447418.5625,P19,D01,0,0,0
735,-7.0,-4.0,62.0,1645447418.59375,P19,D01,0,0,0
736,-6.0,-4.0,62.0,1645447418.625,P19,D01,0,0,0
737,-7.0,-4.0,62.0,1645447418.65625,P19,D01,0,0,0
738,-7.0,-4.0,62.0,1645447418.6875,P19,D01,0,0,0
739,-7.0,-4.0,62.0,1645447418.71875,P19,D01,0,0,0
740,-7.0,-4.0,62.0,1645447418.75,P19,D01,0,0,0
741,-6.0,-4.0,62.0,1645447418.78125,P19,D01,0,0,0
742,-7.0,-4.0,62.0,1645447418.8125,P19,D01,0,0,0
743,-7.0,-4.0,62.0,1645447418.84375,P19,D01,0,0,0
744,-7.0,-4.0,62.0,1645447418.875,P19,D01,0,0,0
745,-7.0,-4.0,62.0,1645447418.90625,P19,D01,0,0,0
746,-7.0,-4.0,62.0,1645447418.9375,P19,D01,0,0,0
747,-7.0,-4.0,62.0,1645447418.96875,P19,D01,0,0,0
748,-7.0,-4.0,62.0,1645447419.0,P19,D01,0,0,0
749,-7.0,-4.0,62.0,1645447419.03125,P19,D01,0,0,0
750,-6.0,-4.0,62.0,1645447419.0625,P19,D01,0,0,0
751,-6.0,-4.0,62.0,1645447419.09375,P19,D01,0,0,0
752,-7.0,-4.0,62.0,1645447419.125,P19,D01,0,0,0
753,-7.0,-4.0,62.0,1645447419.15625,P19,D01,0,0,0
754,-7.0,-4.0,62.0,1645447419.1875,P19,D01,0,0,0
755,-7.0,-4.0,62.0,1645447419.21875,P19,D01,0,0,0
756,-7.0,-4.0,62.0,1645447419.25,P19,D01,0,0,0
757,-8.0,-4.0,62.0,1645447419.28125,P19,D01,0,0,0
758,-7.0,-4.0,62.0,1645447419.3125,P19,D01,0,0,0
759,-7.0,-4.0,62.0,1645447419.34375,P19,D01,0,0,0
760,-7.0,-4.0,62.0,1645447419.375,P19,D01,0,0,0
761,-7.0,-4.0,62.0,1645447419.40625,P19,D01,0,0,0
762,-7.0,-4.0,62.0,1645447419.4375,P19,D01,0,0,0
763,-7.0,-4.0,62.0,1645447419.46875,P19,D01,0,0,0
764,-7.0,-4.0,62.0,1645447419.5,P19,D01,0,0,0
765,-6.0,-4.0,62.0,1645447419.53125,P19,D01,0,0,0
766,-7.0,-4.0,62.0,1645447419.5625,P19,D01,0,0,0
767,-7.0,-4.0,62.0,1645447419.59375,P19,D01,0,0,0
768,-7.0,-4.0,62.0,1645447419.625,P19,D01,0,0,0
769,-7.0,-4.0,62.0,1645447419.65625,P19,D01,0,0,0
770,-7.0,-4.0,62.0,1645447419.6875,P19,D01,0,0,0
771,-7.0,-4.0,62.0,1645447419.71875,P19,D01,0,0,0
772,-7.0,-4.0,62.0,1645447419.75,P19,D01,0,0,0
773,-7.0,-4.0,62.0,1645447419.78125,P19,D01,0,0,0
774,-7.0,-4.0,62.0,1645447419.8125,P19,D01,0,0,0
775,-7.0,-4.0,62.0,1645447419.84375,P19,D01,0,0,0
776,-7.0,-4.0,62.0,1645447419.875,P19,D01,0,0,0
777,-7.0,-4.0,62.0,1645447419.90625,P19,D01,0,0,0
778,-7.0,-4.0,62.0,1645447419.9375,P19,D01,0,0,0
779,-7.0,-4.0,62.0,1645447419.96875,P19,D01,0,0,0
780,-7.0,-4.0,62.0,1645447420.0,P19,D01,0,0,0
781,-7.0,-4.0,62.0,1645447420.03125,P19,D01,0,0,0
782,-7.0,-4.0,62.0,1645447420.0625,P19,D01,0,0,0
783,-7.0,-4.0,62.0,1645447420.09375,P19,D01,0,0,0
784,-6.0,-4.0,62.0,1645447420.125,P19,D01,0,0,0
785,-7.0,-4.0,62.0,1645447420.15625,P19,D01,0,0,0
786,-7.0,-4.0,62.0,1645447420.1875,P19,D01,0,0,0
787,-6.0,-4.0,62.0,1645447420.21875,P19,D01,0,0,0
788,-6.0,-4.0,62.0,1645447420.25,P19,D01,0,0,0
789,-7.0,-4.0,62.0,1645447420.28125,P19,D01,0,0,0
790,-7.0,-4.0,62.0,1645447420.3125,P19,D01,0,0,0
791,-7.0,-4.0,62.0,1645447420.34375,P19,D01,0,0,0
792,-6.0,-4.0,62.0,1645447420.375,P19,D01,0,0,0
793,-7.0,-4.0,62.0,1645447420.40625,P19,D01,0,0,0
794,-7.0,-4.0,62.0,1645447420.4375,P19,D01,0,0,0
795,-7.0,-4.0,62.0,1645447420.46875,P19,D01,0,0,0
796,-7.0,-4.0,62.0,1645447420.5,P19,D01,0,0,0
797,-6.0,-4.0,62.0,1645447420.53125,P19,D01,0,0,0
798,-7.0,-4.0,62.0,1645447420.5625,P19,D01,0,0,0
799,-7.0,-4.0,62.0,1645447420.59375,P19,D01,0,0,0
800,-7.0,-4.0,62.0,1645447420.625,P19,D01,0,0,0
801,-7.0,-4.0,62.0,1645447420.65625,P19,D01,0,0,0
802,-7.0,-4.0,62.0,1645447420.6875,P19,D01,0,0,0
803,-6.0,-4.0,62.0,1645447420.71875,P19,D01,0,0,0
804,-7.0,-4.0,62.0,1645447420.75,P19,D01,0,0,0
805,-7.0,-4.0,62.0,1645447420.78125,P19,D01,0,0,0
806,-6.0,-4.0,62.0,1645447420.8125,P19,D01,0,0,0
807,-7.0,-4.0,62.0,1645447420.84375,P19,D01,0,0,0
808,-7.0,-4.0,62.0,1645447420.875,P19,D01,0,0,0
809,-7.0,-4.0,62.0,1645447420.90625,P19,D01,0,0,0
810,-7.0,-4.0,62.0,1645447420.9375,P19,D01,0,0,0
811,-6.0,-4.0,62.0,1645447420.96875,P19,D01,0,0,0
812,-7.0,-4.0,62.0,1645447421.0,P19,D01,0,0,0
813,-7.0,-4.0,62.0,1645447421.03125,P19,D01,0,0,0
814,-7.0,-4.0,62.0,1645447421.0625,P19,D01,0,0,0
815,-6.0,-4.0,62.0,1645447421.09375,P19,D01,0,0,0
816,-6.0,-4.0,62.0,1645447421.125,P19,D01,0,0,0
817,-8.0,-3.0,62.0,1645447421.15625,P19,D01,0,0,0
818,-7.0,-4.0,62.0,1645447421.1875,P19,D01,0,0,0
819,-7.0,-4.0,62.0,1645447421.21875,P19,D01,0,0,0
820,-7.0,-4.0,62.0,1645447421.25,P19,D01,0,0,0
821,-7.0,-4.0,62.0,1645447421.28125,P19,D01,0,0,0
822,-7.0,-4.0,62.0,1645447421.3125,P19,D01,0,0,0
823,-6.0,-4.0,62.0,1645447421.34375,P19,D01,0,0,0
824,-7.0,-4.0,62.0,1645447421.375,P19,D01,0,0,0
825,-7.0,-4.0,62.0,1645447421.40625,P19,D01,0,0,0
826,-7.0,-4.0,62.0,1645447421.4375,P19,D01,0,0,0
827,-6.0,-4.0,62.0,1645447421.46875,P19,D01,0,0,0
828,-7.0,-4.0,62.0,1645447421.5,P19,D01,0,0,0
829,-7.0,-4.0,62.0,1645447421.53125,P19,D01,0,0,0
830,-7.0,-4.0,62.0,1645447421.5625,P19,D01,0,0,0
831,-6.0,-4.0,62.0,1645447421.59375,P19,D01,0,0,0
832,-7.0,-4.0,62.0,1645447421.625,P19,D01,0,0,0
833,-7.0,-4.0,62.0,1645447421.65625,P19,D01,0,0,0
834,-7.0,-4.0,62.0,1645447421.6875,P19,D01,0,0,0
835,-7.0,-4.0,62.0,1645447421.71875,P19,D01,0,0,0
836,-7.0,-4.0,62.0,1645447421.75,P19,D01,0,0,0
837,-7.0,-4.0,62.0,1645447421.78125,P19,D01,0,0,0
838,-6.0,-4.0,62.0,1645447421.8125,P19,D01,0,0,0
839,-6.0,-4.0,62.0,1645447421.84375,P19,D01,0,0,0
840,-8.0,-4.0,62.0,1645447421.875,P19,D01,0,0,0
841,-7.0,-4.0,62.0,1645447421.90625,P19,D01,0,0,0
842,-6.0,-4.0,62.0,1645447421.9375,P19,D01,0,0,0
843,-7.0,-4.0,62.0,1645447421.96875,P19,D01,0,0,0
844,-7.0,-4.0,62.0,1645447422.0,P19,D01,0,0,0
845,-7.0,-4.0,62.0,1645447422.03125,P19,D01,0,0,0
846,-7.0,-4.0,62.0,1645447422.0625,P19,D01,0,0,0
847,-7.0,-4.0,62.0,1645447422.09375,P19,D01,0,0,0
848,-7.0,-4.0,62.0,1645447422.125,P19,D01,0,0,0
849,-6.0,-4.0,62.0,1645447422.15625,P19,D01,0,0,0
850,-6.0,-4.0,62.0,1645447422.1875,P19,D01,0,0,0
851,-7.0,-3.0,62.0,1645447422.21875,P19,D01,0,0,0
852,-7.0,-4.0,62.0,1645447422.25,P19,D01,0,0,0
853,-7.0,-4.0,62.0,1645447422.28125,P19,D01,0,0,0
854,-7.0,-3.0,62.0,1645447422.3125,P19,D01,0,0,0
855,-7.0,-4.0,62.0,1645447422.34375,P19,D01,0,0,0
856,-7.0,-4.0,62.0,1645447422.375,P19,D01,0,0,0
857,-6.0,-4.0,62.0,1645447422.40625,P19,D01,0,0,0
858,-7.0,-4.0,62.0,1645447422.4375,P19,D01,0,0,0
859,-7.0,-4.0,62.0,1645447422.46875,P19,D01,0,0,0
860,-7.0,-4.0,62.0,1645447422.5,P19,D01,0,0,0
861,-6.0,-4.0,62.0,1645447422.53125,P19,D01,0,0,0
862,-7.0,-4.0,62.0,1645447422.5625,P19,D01,0,0,0
863,-7.0,-4.0,62.0,1645447422.59375,P19,D01,0,0,0
864,-7.0,-4.0,62.0,1645447422.625,P19,D01,0,0,0
865,-7.0,-4.0,62.0,1645447422.65625,P19,D01,0,0,0
866,-7.0,-4.0,62.0,1645447422.6875,P19,D01,0,0,0
867,-7.0,-4.0,62.0,1645447422.71875,P19,D01,0,0,0
868,-7.0,-4.0,62.0,1645447422.75,P19,D01,0,0,0
869,-7.0,-4.0,62.0,1645447422.78125,P19,D01,0,0,0
870,-6.0,-4.0,62.0,1645447422.8125,P19,D01,0,0,0
871,-7.0,-4.0,62.0,1645447422.84375,P19,D01,0,0,0
872,-7.0,-4.0,62.0,1645447422.875,P19,D01,0,0,0
873,-6.0,-4.0,62.0,1645447422.90625,P19,D01,0,0,0
874,-7.0,-4.0,62.0,1645447422.9375,P19,D01,0,0,0
875,-7.0,-4.0,62.0,1645447422.96875,P19,D01,0,0,0
876,-7.0,-4.0,62.0,1645447423.0,P19,D01,0,0,0
877,-7.0,-4.0,62.0,1645447423.03125,P19,D01,0,0,0
878,-7.0,-3.0,62.0,1645447423.0625,P19,D01,0,0,0
879,-7.0,-4.0,62.0,1645447423.09375,P19,D01,0,0,0
880,-7.0,-4.0,62.0,1645447423.125,P19,D01,0,0,0
881,-7.0,-4.0,62.0,1645447423.15625,P19,D01,0,0,0
882,-7.0,-4.0,62.0,1645447423.1875,P19,D01,0,0,0
883,-7.0,-4.0,62.0,1645447423.21875,P19,D01,0,0,0
884,-7.0,-4.0,62.0,1645447423.25,P19,D01,0,0,0
885,-7.0,-4.0,62.0,1645447423.28125,P19,D01,0,0,0
886,-7.0,-4.0,62.0,1645447423.3125,P19,D01,0,0,0
887,-7.0,-4.0,62.0,1645447423.34375,P19,D01,0,0,0
888,-7.0,-4.0,62.0,1645447423.375,P19,D01,0,0,0
889,-7.0,-4.0,62.0,1645447423.40625,P19,D01,0,0,0
890,-7.0,-4.0,62.0,1645447423.4375,P19,D01,0,0,0
891,-7.0,-4.0,62.0,1645447423.46875,P19,D01,0,0,0
892,-7.0,-4.0,62.0,1645447423.5,P19,D01,0,0,0
893,-6.0,-4.0,62.0,1645447423.53125,P19,D01,0,0,0
894,-7.0,-4.0,62.0,1645447423.5625,P19,D01,0,0,0
895,-7.0,-4.0,62.0,1645447423.59375,P19,D01,0,0,0
896,-7.0,-4.0,62.0,1645447423.625,P19,D01,0,0,0
897,-7.0,-4.0,62.0,1645447423.65625,P19,D01,0,0,0
898,-7.0,-4.0,62.0,1645447423.6875,P19,D01,0,0,0
899,-7.0,-4.0,62.0,1645447423.71875,P19,D01,0,0,0
900,-7.0,-4.0,62.0,1645447423.75,P19,D01,0,0,0
901,-6.0,-4.0,62.0,1645447423.78125,P19,D01,0,0,0
902,-7.0,-4.0,62.0,1645447423.8125,P19,D01,0,0,0
903,-7.0,-4.0,62.0,1645447423.84375,P19,D01,0,0,0
904,-7.0,-4.0,62.0,1645447423.875,P19,D01,0,0,0
905,-6.0,-4.0,62.0,1645447423.90625,P19,D01,0,0,0
906,-7.0,-4.0,62.0,1645447423.9375,P19,D01,0,0,0
907,-7.0,-4.0,62.0,1645447423.96875,P19,D01,0,0,0
908,-6.0,-4.0,62.0,1645447424.0,P19,D01,0,0,0
909,-7.0,-4.0,62.0,1645447424.03125,P19,D01,0,0,0
910,-7.0,-4.0,62.0,1645447424.0625,P19,D01,0,0,0
911,-6.0,-4.0,62.0,1645447424.09375,P19,D01,0,0,0
912,-7.0,-4.0,62.0,1645447424.125,P19,D01,0,0,0
913,-7.0,-4.0,62.0,1645447424.15625,P19,D01,0,0,0
914,-6.0,-4.0,62.0,1645447424.1875,P19,D01,0,0,0
915,-6.0,-4.0,62.0,1645447424.21875,P19,D01,0,0,0
916,-7.0,-4.0,62.0,1645447424.25,P19,D01,0,0,0
917,-7.0,-4.0,62.0,1645447424.28125,P19,D01,0,0,0
918,-6.0,-4.0,62.0,1645447424.3125,P19,D01,0,0,0
919,-7.0,-4.0,62.0,1645447424.34375,P19,D01,0,0,0
920,-7.0,-4.0,62.0,1645447424.375,P19,D01,0,0,0
921,-6.0,-4.0,62.0,1645447424.40625,P19,D01,0,0,0
922,-6.0,-4.0,62.0,1645447424.4375,P19,D01,0,0,0
923,-7.0,-4.0,62.0,1645447424.46875,P19,D01,0,0,0
924,-7.0,-4.0,62.0,1645447424.5,P19,D01,0,0,0
925,-6.0,-4.0,62.0,1645447424.53125,P19,D01,0,0,0
926,-6.0,-4.0,62.0,1645447424.5625,P19,D01,0,0,0
927,-7.0,-4.0,62.0,1645447424.59375,P19,D01,0,0,0
928,-8.0,-4.0,62.0,1645447424.625,P19,D01,0,0,0
929,-6.0,-4.0,62.0,1645447424.65625,P19,D01,0,0,0
930,-7.0,-4.0,62.0,1645447424.6875,P19,D01,0,0,0
931,-7.0,-4.0,62.0,1645447424.71875,P19,D01,0,0,0
932,-7.0,-4.0,62.0,1645447424.75,P19,D01,0,0,0
933,-7.0,-4.0,62.0,1645447424.78125,P19,D01,0,0,0
934,-7.0,-4.0,62.0,1645447424.8125,P19,D01,0,0,0
935,-6.0,-4.0,62.0,1645447424.84375,P19,D01,0,0,0
936,-7.0,-4.0,62.0,1645447424.875,P19,D01,0,0,0
937,-7.0,-4.0,62.0,1645447424.90625,P19,D01,0,0,0
938,-7.0,-4.0,62.0,1645447424.9375,P19,D01,0,0,0
939,-7.0,-4.0,62.0,1645447424.96875,P19,D01,0,0,0
940,-6.0,-4.0,62.0,1645447425.0,P19,D01,0,0,0
941,-7.0,-4.0,62.0,1645447425.03125,P19,D01,0,0,0
942,-7.0,-4.0,62.0,1645447425.0625,P19,D01,0,0,0
943,-6.0,-4.0,62.0,1645447425.09375,P19,D01,0,0,0
944,-6.0,-4.0,62.0,1645447425.125,P19,D01,0,0,0
945,-7.0,-4.0,62.0,1645447425.15625,P19,D01,0,0,0
946,-7.0,-4.0,62.0,1645447425.1875,P19,D01,0,0,0
947,-7.0,-4.0,62.0,1645447425.21875,P19,D01,0,0,0
948,-7.0,-4.0,62.0,1645447425.25,P19,D01,0,0,0
949,-6.0,-4.0,62.0,1645447425.28125,P19,D01,0,0,0
950,-7.0,-4.0,62.0,1645447425.3125,P19,D01,0,0,0
951,-7.0,-4.0,62.0,1645447425.34375,P19,D01,0,0,0
952,-6.0,-4.0,62.0,1645447425.375,P19,D01,0,0,0
953,-7.0,-4.0,62.0,1645447425.40625,P19,D01,0,0,0
954,-7.0,-3.0,62.0,1645447425.4375,P19,D01,0,0,0
955,-6.0,-4.0,62.0,1645447425.46875,P19,D01,0,0,0
956,-7.0,-4.0,62.0,1645447425.5,P19,D01,0,0,0
957,-7.0,-4.0,62.0,1645447425.53125,P19,D01,0,0,0
958,-7.0,-4.0,62.0,1645447425.5625,P19,D01,0,0,0
959,-7.0,-4.0,62.0,1645447425.59375,P19,D01,0,0,0
960,-7.0,-4.0,62.0,1645447425.625,P19,D01,0,0,0
961,-7.0,-4.0,62.0,1645447425.65625,P19,D01,0,0,0
962,-6.0,-4.0,62.0,1645447425.6875,P19,D01,0,0,0
963,-6.0,-4.0,62.0,1645447425.71875,P19,D01,0,0,0
964,-8.0,-4.0,62.0,1645447425.75,P19,D01,0,0,0
965,-7.0,-3.0,62.0,1645447425.78125,P19,D01,0,0,0
966,-6.0,-5.0,62.0,1645447425.8125,P19,D01,0,0,0
967,-7.0,-4.0,62.0,1645447425.84375,P19,D01,0,0,0
968,-7.0,-3.0,62.0,1645447425.875,P19,D01,0,0,0
969,-6.0,-4.0,62.0,1645447425.90625,P19,D01,0,0,0
970,-8.0,-4.0,62.0,1645447425.9375,P19,D01,0,0,0
971,-7.0,-3.0,62.0,1645447425.96875,P19,D01,0,0,0
972,-6.0,-5.0,62.0,1645447426.0,P19,D01,0,0,0
973,-7.0,-4.0,62.0,1645447426.03125,P19,D01,0,0,0
974,-7.0,-3.0,62.0,1645447426.0625,P19,D01,0,0,0
975,-6.0,-4.0,62.0,1645447426.09375,P19,D01,0,0,0
976,-7.0,-4.0,62.0,1645447426.125,P19,D01,0,0,0
977,-7.0,-4.0,62.0,1645447426.15625,P19,D01,0,0,0
978,-7.0,-4.0,62.0,1645447426.1875,P19,D01,0,0,0
979,-7.0,-3.0,62.0,1645447426.21875,P19,D01,0,0,0
980,-6.0,-4.0,62.0,1645447426.25,P19,D01,0,0,0
981,-7.0,-4.0,62.0,1645447426.28125,P19,D01,0,0,0
982,-7.0,-4.0,62.0,1645447426.3125,P19,D01,0,0,0
983,-6.0,-4.0,62.0,1645447426.34375,P19,D01,0,0,0
984,-7.0,-4.0,62.0,1645447426.375,P19,D01,0,0,0
985,-7.0,-4.0,62.0,1645447426.40625,P19,D01,0,0,0
986,-7.0,-4.0,62.0,1645447426.4375,P19,D01,0,0,0
987,-6.0,-4.0,62.0,1645447426.46875,P19,D01,0,0,0
988,-7.0,-4.0,62.0,1645447426.5,P19,D01,0,0,0
989,-6.0,-4.0,62.0,1645447426.53125,P19,D01,0,0,0
990,-6.0,-4.0,62.0,1645447426.5625,P19,D01,0,0,0
991,-7.0,-4.0,62.0,1645447426.59375,P19,D01,0,0,0
992,-6.0,-4.0,62.0,1645447426.625,P19,D01,0,0,0
993,-6.0,-4.0,62.0,1645447426.65625,P19,D01,0,0,0
994,-7.0,-4.0,62.0,1645447426.6875,P19,D01,0,0,0
995,-6.0,-4.0,62.0,1645447426.71875,P19,D01,0,0,0
996,-7.0,-4.0,62.0,1645447426.75,P19,D01,0,0,0
997,-7.0,-4.0,62.0,1645447426.78125,P19,D01,0,0,0
998,-6.0,-4.0,62.0,1645447426.8125,P19,D01,0,0,0
999,-7.0,-4.0,62.0,1645447426.84375,P19,D01,0,0,0
1000,-7.0,-4.0,62.0,1645447426.875,P19,D01,0,0,0
1001,-7.0,-4.0,62.0,1645447426.90625,P19,D01,0,0,0
1002,-7.0,-4.0,62.0,1645447426.9375,P19,D01,0,0,0
1003,-6.0,-4.0,62.0,1645447426.96875,P19,D01,0,0,0
1004,-7.0,-4.0,62.0,1645447427.0,P19,D01,0,0,0
1005,-7.0,-4.0,62.0,1645447427.03125,P19,D01,0,0,0
1006,-6.0,-4.0,62.0,1645447427.0625,P19,D01,0,0,0
1007,-7.0,-4.0,62.0,1645447427.09375,P19,D01,0,0,0
1008,-7.0,-4.0,62.0,1645447427.125,P19,D01,0,0,0
1009,-6.0,-4.0,62.0,1645447427.15625,P19,D01,0,0,0
1010,-7.0,-4.0,62.0,1645447427.1875,P19,D01,0,0,0
1011,-7.0,-4.0,62.0,1645447427.21875,P19,D01,0,0,0
1012,-6.0,-4.0,62.0,1645447427.25,P19,D01,0,0,0
1013,-6.0,-4.0,62.0,1645447427.28125,P19,D01,0,0,0
1014,-7.0,-4.0,62.0,1645447427.3125,P19,D01,0,0,0
1015,-7.0,-4.0,62.0,1645447427.34375,P19,D01,0,0,0
1016,-6.0,-4.0,62.0,1645447427.375,P19,D01,0,0,0
1017,-6.0,-4.0,62.0,1645447427.40625,P19,D01,0,0,0
1018,-7.0,-4.0,62.0,1645447427.4375,P19,D01,0,0,0
1019,-7.0,-4.0,62.0,1645447427.46875,P19,D01,0,0,0
1020,-7.0,-4.0,62.0,1645447427.5,P19,D01,0,0,0
1021,-7.0,-4.0,62.0,1645447427.53125,P19,D01,0,0,0
1022,-7.0,-4.0,62.0,1645447427.5625,P19,D01,0,0,0
1023,-6.0,-4.0,62.0,1645447427.59375,P19,D01,0,0,0
1024,-7.0,-4.0,62.0,1645447427.625,P19,D01,0,0,0
1025,-7.0,-4.0,62.0,1645447427.65625,P19,D01,0,0,0
1026,-7.0,-4.0,62.0,1645447427.6875,P19,D01,0,0,0
1027,-7.0,-4.0,62.0,1645447427.71875,P19,D01,0,0,0
1028,-6.0,-4.0,62.0,1645447427.75,P19,D01,0,0,0
1029,-7.0,-4.0,62.0,1645447427.78125,P19,D01,0,0,0
1030,-7.0,-4.0,62.0,1645447427.8125,P19,D01,0,0,0
1031,-6.0,-4.0,62.0,1645447427.84375,P19,D01,0,0,0
1032,-8.0,-4.0,62.0,1645447427.875,P19,D01,0,0,0
1033,-8.0,-3.0,62.0,1645447427.90625,P19,D01,0,0,0
1034,-6.0,-4.0,62.0,1645447427.9375,P19,D01,0,0,0
1035,-6.0,-4.0,62.0,1645447427.96875,P19,D01,0,0,0
1036,-7.0,-3.0,62.0,1645447428.0,P19,D01,0,0,0
1037,-6.0,-4.0,62.0,1645447428.03125,P19,D01,0,0,0
1038,-6.0,-4.0,62.0,1645447428.0625,P19,D01,0,0,0
1039,-6.0,-4.0,62.0,1645447428.09375,P19,D01,0,0,0
1040,-7.0,-4.0,62.0,1645447428.125,P19,D01,0,0,0
1041,-6.0,-4.0,62.0,1645447428.15625,P19,D01,0,0,0
1042,-7.0,-4.0,62.0,1645447428.1875,P19,D01,0,0,0
1043,-7.0,-4.0,62.0,1645447428.21875,P19,D01,0,0,0
1044,-7.0,-4.0,62.0,1645447428.25,P19,D01,0,0,0
1045,-7.0,-3.0,62.0,1645447428.28125,P19,D01,0,0,0
1046,-6.0,-4.0,62.0,1645447428.3125,P19,D01,0,0,0
1047,-6.0,-4.0,62.0,1645447428.34375,P19,D01,0,0,0
1048,-7.0,-3.0,62.0,1645447428.375,P19,D01,0,0,0
1049,-6.0,-3.0,62.0,1645447428.40625,P19,D01,0,0,0
1050,-6.0,-3.0,62.0,1645447428.4375,P19,D01,0,0,0
1051,-6.0,-4.0,62.0,1645447428.46875,P19,D01,0,0,0
1052,-7.0,-3.0,62.0,1645447428.5,P19,D01,0,0,0
1053,-7.0,-3.0,62.0,1645447428.53125,P19,D01,0,0,0
1054,-6.0,-3.0,62.0,1645447428.5625,P19,D01,0,0,0
1055,-7.0,-3.0,62.0,1645447428.59375,P19,D01,0,0,0
1056,-6.0,-3.0,62.0,1645447428.625,P19,D01,0,0,0
1057,-6.0,-3.0,62.0,1645447428.65625,P19,D01,0,0,0
1058,-6.0,-3.0,62.0,1645447428.6875,P19,D01,0,0,0
1059,-7.0,-3.0,62.0,1645447428.71875,P19,D01,0,0,0
1060,-7.0,-3.0,62.0,1645447428.75,P19,D01,0,0,0
1061,-7.0,-3.0,62.0,1645447428.78125,P19,D01,0,0,0
1062,-7.0,-3.0,62.0,1645447428.8125,P19,D01,0,0,0
1063,-6.0,-3.0,62.0,1645447428.84375,P19,D01,0,0,0
1064,-7.0,-3.0,62.0,1645447428.875,P19,D01,0,0,0
1065,-7.0,-3.0,62.0,1645447428.90625,P19,D01,0,0,0
1066,-6.0,-3.0,62.0,1645447428.9375,P19,D01,0,0,0
1067,-5.0,-4.0,62.0,1645447428.96875,P19,D01,0,0,0
1068,-7.0,-3.0,62.0,1645447429.0,P19,D01,0,0,0
1069,-7.0,-2.0,62.0,1645447429.03125,P19,D01,0,0,0
1070,-5.0,-2.0,62.0,1645447429.0625,P19,D01,0,0,0
1071,-8.0,-3.0,62.0,1645447429.09375,P19,D01,0,0,0
1072,-6.0,-3.0,62.0,1645447429.125,P19,D01,0,0,0
1073,-6.0,-3.0,62.0,1645447429.15625,P19,D01,0,0,0
1074,-7.0,-4.0,62.0,1645447429.1875,P19,D01,0,0,0
1075,-6.0,-3.0,62.0,1645447429.21875,P19,D01,0,0,0
1076,-6.0,-3.0,62.0,1645447429.25,P19,D01,0,0,0
1077,-7.0,-4.0,62.0,1645447429.28125,P19,D01,0,0,0
1078,-5.0,-2.0,62.0,1645447429.3125,P19,D01,0,0,0
1079,-6.0,-5.0,62.0,1645447429.34375,P19,D01,0,0,0
1080,-7.0,-3.0,62.0,1645447429.375,P19,D01,0,0,0
1081,-6.0,-4.0,62.0,1645447429.40625,P19,D01,0,0,0
1082,-6.0,-3.0,62.0,1645447429.4375,P19,D01,0,0,0
1083,-6.0,-3.0,62.0,1645447429.46875,P19,D01,0,0,0
1084,-6.0,-4.0,62.0,1645447429.5,P19,D01,0,0,0
1085,-6.0,-3.0,62.0,1645447429.53125,P19,D01,0,0,0
1086,-7.0,-3.0,62.0,1645447429.5625,P19,D01,0,0,0
1087,-6.0,-3.0,62.0,1645447429.59375,P19,D01,0,0,0
1088,-6.0,-3.0,62.0,1645447429.625,P19,D01,0,0,0
1089,-7.0,-3.0,62.0,1645447429.65625,P19,D01,0,0,0
1090,-7.0,-3.0,62.0,1645447429.6875,P19,D01,0,0,0
1091,-6.0,-4.0,62.0,1645447429.71875,P19,D01,0,0,0
1092,-6.0,-3.0,62.0,1645447429.75,P19,D01,0,0,0
1093,-6.0,-3.0,62.0,1645447429.78125,P19,D01,0,0,0
1094,-6.0,-3.0,62.0,1645447429.8125,P19,D01,0,0,0
1095,-6.0,-3.0,62.0,1645447429.84375,P19,D01,0,0,0
1096,-7.0,-3.0,62.0,1645447429.875,P19,D01,0,0,0
1097,-6.0,-4.0,62.0,1645447429.90625,P19,D01,0,0,0
1098,-6.0,-3.0,62.0,1645447429.9375,P19,D01,0,0,0
1099,-6.0,-3.0,62.0,1645447429.96875,P19,D01,0,0,0
1100,-7.0,-3.0,62.0,1645447430.0,P19,D01,0,0,0
1101,-6.0,-3.0,62.0,1645447430.03125,P19,D01,0,0,0
1102,-6.0,-3.0,62.0,1645447430.0625,P19,D01,0,0,0
1103,-6.0,-3.0,62.0,1645447430.09375,P19,D01,0,0,0
1104,-6.0,-4.0,62.0,1645447430.125,P19,D01,0,0,0
1105,-6.0,-4.0,62.0,1645447430.15625,P19,D01,0,0,0
1106,-6.0,-3.0,62.0,1645447430.1875,P19,D01,0,0,0
1107,-6.0,-4.0,62.0,1645447430.21875,P19,D01,0,0,0
1108,-6.0,-4.0,62.0,1645447430.25,P19,D01,0,0,0
1109,-6.0,-3.0,62.0,1645447430.28125,P19,D01,0,0,0
1110,-6.0,-3.0,62.0,1645447430.3125,P19,D01,0,0,0
1111,-7.0,-4.0,62.0,1645447430.34375,P19,D01,0,0,0
1112,-6.0,-3.0,62.0,1645447430.375,P19,D01,0,0,0
1113,-6.0,-3.0,62.0,1645447430.40625,P19,D01,0,0,0
1114,-7.0,-4.0,62.0,1645447430.4375,P19,D01,0,0,0
1115,-6.0,-3.0,62.0,1645447430.46875,P19,D01,0,0,0
1116,-6.0,-3.0,62.0,1645447430.5,P19,D01,0,0,0
1117,-7.0,-4.0,62.0,1645447430.53125,P19,D01,0,0,0
1118,-5.0,-3.0,62.0,1645447430.5625,P19,D01,0,0,0
1119,-6.0,-3.0,62.0,1645447430.59375,P19,D01,0,0,0
1120,-7.0,-4.0,62.0,1645447430.625,P19,D01,0,0,0
1121,-6.0,-4.0,62.0,1645447430.65625,P19,D01,0,0,0
1122,-6.0,-3.0,62.0,1645447430.6875,P19,D01,0,0,0
1123,-6.0,-3.0,62.0,1645447430.71875,P19,D01,0,0,0
1124,-6.0,-4.0,62.0,1645447430.75,P19,D01,0,0,0
1125,-6.0,-3.0,62.0,1645447430.78125,P19,D01,0,0,0
1126,-7.0,-3.0,62.0,1645447430.8125,P19,D01,0,0,0
1127,-7.0,-3.0,62.0,1645447430.84375,P19,D01,0,0,0
1128,-6.0,-4.0,62.0,1645447430.875,P19,D01,0,0,0
1129,-6.0,-4.0,62.0,1645447430.90625,P19,D01,0,0,0
1130,-6.0,-4.0,62.0,1645447430.9375,P19,D01,0,0,0
1131,-6.0,-3.0,62.0,1645447430.96875,P19,D01,0,0,0
1132,-6.0,-3.0,62.0,1645447431.0,P19,D01,0,0,0
1133,-6.0,-4.0,62.0,1645447431.03125,P19,D01,0,0,0
1134,-6.0,-4.0,62.0,1645447431.0625,P19,D01,0,0,0
1135,-6.0,-3.0,62.0,1645447431.09375,P19,D01,0,0,0
1136,-6.0,-3.0,62.0,1645447431.125,P19,D01,0,0,0
1137,-7.0,-3.0,62.0,1645447431.15625,P19,D01,0,0,0
1138,-7.0,-3.0,62.0,1645447431.1875,P19,D01,0,0,0
1139,-6.0,-4.0,62.0,1645447431.21875,P19,D01,0,0,0
1140,-6.0,-3.0,62.0,1645447431.25,P19,D01,0,0,0
1141,-6.0,-3.0,62.0,1645447431.28125,P19,D01,0,0,0
1142,-6.0,-4.0,62.0,1645447431.3125,P19,D01,0,0,0
1143,-6.0,-3.0,62.0,1645447431.34375,P19,D01,0,0,0
1144,-6.0,-3.0,62.0,1645447431.375,P19,D01,0,0,0
1145,-6.0,-3.0,62.0,1645447431.40625,P19,D01,0,0,0
1146,-6.0,-4.0,62.0,1645447431.4375,P19,D01,0,0,0
1147,-6.0,-4.0,62.0,1645447431.46875,P19,D01,0,0,0
1148,-6.0,-3.0,62.0,1645447431.5,P19,D01,0,0,0
1149,-6.0,-3.0,62.0,1645447431.53125,P19,D01,0,0,0
1150,-6.0,-4.0,62.0,1645447431.5625,P19,D01,0,0,0
1151,-6.0,-4.0,62.0,1645447431.59375,P19,D01,0,0,0
1152,-6.0,-3.0,62.0,1645447431.625,P19,D01,0,0,0
1153,-6.0,-4.0,62.0,1645447431.65625,P19,D01,0,0,0
1154,-6.0,-4.0,62.0,1645447431.6875,P19,D01,0,0,0
1155,-6.0,-3.0,62.0,1645447431.71875,P19,D01,0,0,0
1156,-6.0,-4.0,62.0,1645447431.75,P19,D01,0,0,0
1157,-6.0,-4.0,62.0,1645447431.78125,P19,D01,0,0,0
1158,-6.0,-3.0,62.0,1645447431.8125,P19,D01,0,0,0
1159,-6.0,-3.0,62.0,1645447431.84375,P19,D01,0,0,0
1160,-7.0,-3.0,62.0,1645447431.875,P19,D01,0,0,0
1161,-7.0,-3.0,62.0,1645447431.90625,P19,D01,0,0,0
1162,-6.0,-3.0,62.0,1645447431.9375,P19,D01,0,0,0
1163,-6.0,-3.0,62.0,1645447431.96875,P19,D01,0,0,0
1164,-7.0,-3.0,62.0,1645447432.0,P19,D01,0,0,0
1165,-6.0,-4.0,62.0,1645447432.03125,P19,D01,0,0,0
1166,-6.0,-3.0,62.0,1645447432.0625,P19,D01,0,0,0
1167,-6.0,-3.0,62.0,1645447432.09375,P19,D01,0,0,0
1168,-6.0,-4.0,62.0,1645447432.125,P19,D01,0,0,0
1169,-6.0,-3.0,62.0,1645447432.15625,P19,D01,0,0,0
1170,-6.0,-4.0,62.0,1645447432.1875,P19,D01,0,0,0
1171,-6.0,-4.0,62.0,1645447432.21875,P19,D01,0,0,0
1172,-6.0,-3.0,62.0,1645447432.25,P19,D01,0,0,0
1173,-6.0,-4.0,62.0,1645447432.28125,P19,D01,0,0,0
1174,-6.0,-4.0,62.0,1645447432.3125,P19,D01,0,0,0
1175,-6.0,-4.0,62.0,1645447432.34375,P19,D01,0,0,0
1176,-6.0,-3.0,62.0,1645447432.375,P19,D01,0,0,0
1177,-6.0,-3.0,62.0,1645447432.40625,P19,D01,0,0,0
1178,-6.0,-4.0,62.0,1645447432.4375,P19,D01,0,0,0
1179,-6.0,-3.0,62.0,1645447432.46875,P19,D01,0,0,0
1180,-6.0,-3.0,62.0,1645447432.5,P19,D01,0,0,0
1181,-6.0,-3.0,62.0,1645447432.53125,P19,D01,0,0,0
1182,-6.0,-3.0,62.0,1645447432.5625,P19,D01,0,0,0
1183,-6.0,-4.0,62.0,1645447432.59375,P19,D01,0,0,0
1184,-6.0,-4.0,62.0,1645447432.625,P19,D01,0,0,0
1185,-6.0,-3.0,62.0,1645447432.65625,P19,D01,0,0,0
1186,-6.0,-3.0,62.0,1645447432.6875,P19,D01,0,0,0
1187,-6.0,-3.0,62.0,1645447432.71875,P19,D01,0,0,0
1188,-6.0,-4.0,62.0,1645447432.75,P19,D01,0,0,0
1189,-6.0,-3.0,62.0,1645447432.78125,P19,D01,0,0,0
1190,-6.0,-3.0,62.0,1645447432.8125,P19,D01,0,0,0
1191,-6.0,-3.0,62.0,1645447432.84375,P19,D01,0,0,0
1192,-7.0,-3.0,62.0,1645447432.875,P19,D01,0,0,0
1193,-6.0,-3.0,62.0,1645447432.90625,P19,D01,0,0,0
1194,-6.0,-3.0,62.0,1645447432.9375,P19,D01,0,0,0
1195,-6.0,-3.0,62.0,1645447432.96875,P19,D01,0,0,0
1196,-6.0,-4.0,62.0,1645447433.0,P19,D01,0,0,0
1197,-6.0,-4.0,62.0,1645447433.03125,P19,D01,0,0,0
1198,-6.0,-3.0,62.0,1645447433.0625,P19,D01,0,0,0
1199,-6.0,-3.0,62.0,1645447433.09375,P19,D01,0,0,0
1200,-6.0,-3.0,62.0,1645447433.125,P19,D01,0,0,0
1201,-6.0,-4.0,62.0,1645447433.15625,P19,D01,0,0,0
1202,-6.0,-4.0,62.0,1645447433.1875,P19,D01,0,0,0
1203,-6.0,-3.0,62.0,1645447433.21875,P19,D01,0,0,0
1204,-6.0,-3.0,62.0,1645447433.25,P19,D01,0,0,0
1205,-7.0,-4.0,62.0,1645447433.28125,P19,D01,0,0,0
1206,-7.0,-4.0,62.0,1645447433.3125,P19,D01,0,0,0
1207,-6.0,-4.0,62.0,1645447433.34375,P19,D01,0,0,0
1208,-6.0,-4.0,62.0,1645447433.375,P19,D01,0,0,0
1209,-6.0,-3.0,62.0,1645447433.40625,P19,D01,0,0,0
1210,-6.0,-3.0,62.0,1645447433.4375,P19,D01,0,0,0
1211,-6.0,-4.0,62.0,1645447433.46875,P19,D01,0,0,0
1212,-6.0,-4.0,62.0,1645447433.5,P19,D01,0,0,0
1213,-6.0,-3.0,62.0,1645447433.53125,P19,D01,0,0,0
1214,-6.0,-3.0,62.0,1645447433.5625,P19,D01,0,0,0
1215,-6.0,-4.0,62.0,1645447433.59375,P19,D01,0,0,0
1216,-6.0,-4.0,62.0,1645447433.625,P19,D01,0,0,0
1217,-6.0,-4.0,62.0,1645447433.65625,P19,D01,0,0,0
1218,-6.0,-4.0,62.0,1645447433.6875,P19,D01,0,0,0
1219,-6.0,-4.0,62.0,1645447433.71875,P19,D01,0,0,0
1220,-6.0,-4.0,62.0,1645447433.75,P19,D01,0,0,0
1221,-6.0,-4.0,62.0,1645447433.78125,P19,D01,0,0,0
1222,-6.0,-4.0,62.0,1645447433.8125,P19,D01,0,0,0
1223,-6.0,-4.0,62.0,1645447433.84375,P19,D01,0,0,0
1224,-6.0,-4.0,62.0,1645447433.875,P19,D01,0,0,0
1225,-6.0,-4.0,62.0,1645447433.90625,P19,D01,0,0,0
1226,-6.0,-4.0,62.0,1645447433.9375,P19,D01,0,0,0
1227,-6.0,-3.0,62.0,1645447433.96875,P19,D01,0,0,0
1228,-6.0,-3.0,62.0,1645447434.0,P19,D01,0,0,0
1229,-6.0,-4.0,62.0,1645447434.03125,P19,D01,0,0,0
1230,-6.0,-4.0,62.0,1645447434.0625,P19,D01,0,0,0
1231,-6.0,-4.0,62.0,1645447434.09375,P19,D01,0,0,0
1232,-6.0,-4.0,62.0,1645447434.125,P19,D01,0,0,0
1233,-6.0,-4.0,62.0,1645447434.15625,P19,D01,0,0,0
1234,-6.0,-4.0,62.0,1645447434.1875,P19,D01,0,0,0
1235,-6.0,-4.0,62.0,1645447434.21875,P19,D01,0,0,0
1236,-6.0,-4.0,62.0,1645447434.25,P19,D01,0,0,0
1237,-6.0,-4.0,62.0,1645447434.28125,P19,D01,0,0,0
1238,-6.0,-3.0,62.0,1645447434.3125,P19,D01,0,0,0
1239,-6.0,-4.0,62.0,1645447434.34375,P19,D01,0,0,0
1240,-6.0,-4.0,62.0,1645447434.375,P19,D01,0,0,0
1241,-7.0,-4.0,62.0,1645447434.40625,P19,D01,0,0,0
1242,-6.0,-4.0,62.0,1645447434.4375,P19,D01,0,0,0
1243,-6.0,-4.0,62.0,1645447434.46875,P19,D01,0,0,0
1244,-6.0,-4.0,62.0,1645447434.5,P19,D01,0,0,0
1245,-7.0,-4.0,62.0,1645447434.53125,P19,D01,0,0,0
1246,-6.0,-3.0,62.0,1645447434.5625,P19,D01,0,0,0
1247,-6.0,-4.0,62.0,1645447434.59375,P19,D01,0,0,0
1248,-7.0,-3.0,62.0,1645447434.625,P19,D01,0,0,0
1249,-6.0,-4.0,62.0,1645447434.65625,P19,D01,0,0,0
1250,-6.0,-4.0,62.0,1645447434.6875,P19,D01,0,0,0
1251,-7.0,-4.0,62.0,1645447434.71875,P19,D01,0,0,0
1252,-6.0,-4.0,62.0,1645447434.75,P19,D01,0,0,0
1253,-6.0,-4.0,62.0,1645447434.78125,P19,D01,0,0,0
1254,-7.0,-4.0,62.0,1645447434.8125,P19,D01,0,0,0
1255,-6.0,-4.0,62.0,1645447434.84375,P19,D01,0,0,0
1256,-6.0,-4.0,62.0,1645447434.875,P19,D01,0,0,0
1257,-6.0,-4.0,62.0,1645447434.90625,P19,D01,0,0,0
1258,-6.0,-3.0,62.0,1645447434.9375,P19,D01,0,0,0
1259,-6.0,-4.0,62.0,1645447434.96875,P19,D01,0,0,0
1260,-6.0,-4.0,62.0,1645447435.0,P19,D01,0,0,0
1261,-6.0,-4.0,62.0,1645447435.03125,P19,D01,0,0,0
1262,-6.0,-4.0,62.0,1645447435.0625,P19,D01,0,0,0
1263,-6.0,-3.0,62.0,1645447435.09375,P19,D01,0,0,0
1264,-6.0,-4.0,62.0,1645447435.125,P19,D01,0,0,0
1265,-6.0,-4.0,62.0,1645447435.15625,P19,D01,0,0,0
1266,-6.0,-4.0,62.0,1645447435.1875,P19,D01,0,0,0
1267,-6.0,-4.0,62.0,1645447435.21875,P19,D01,0,0,0
1268,-7.0,-3.0,62.0,1645447435.25,P19,D01,0,0,0
1269,-6.0,-4.0,62.0,1645447435.28125,P19,D01,0,0,0
1270,-6.0,-4.0,62.0,1645447435.3125,P19,D01,0,0,0
1271,-6.0,-3.0,62.0,1645447435.34375,P19,D01,0,0,0
1272,-6.0,-4.0,62.0,1645447435.375,P19,D01,0,0,0
1273,-6.0,-4.0,62.0,1645447435.40625,P19,D01,0,0,0
1274,-6.0,-4.0,62.0,1645447435.4375,P19,D01,0,0,0
1275,-6.0,-3.0,62.0,1645447435.46875,P19,D01,0,0,0
1276,-6.0,-3.0,62.0,1645447435.5,P19,D01,0,0,0
1277,-6.0,-3.0,62.0,1645447435.53125,P19,D01,0,0,0
1278,-6.0,-4.0,62.0,1645447435.5625,P19,D01,0,0,0
1279,-7.0,-3.0,62.0,1645447435.59375,P19,D01,0,0,0
1280,-6.0,-4.0,62.0,1645447435.625,P19,D01,0,0,0
1281,-6.0,-4.0,62.0,1645447435.65625,P19,D01,0,0,0
1282,-7.0,-3.0,62.0,1645447435.6875,P19,D01,0,0,0
1283,-6.0,-4.0,62.0,1645447435.71875,P19,D01,0,0,0
1284,-6.0,-4.0,62.0,1645447435.75,P19,D01,0,0,0
1285,-7.0,-3.0,62.0,1645447435.78125,P19,D01,0,0,0
1286,-6.0,-3.0,62.0,1645447435.8125,P19,D01,0,0,0
1287,-6.0,-4.0,62.0,1645447435.84375,P19,D01,0,0,0
1288,-7.0,-4.0,62.0,1645447435.875,P19,D01,0,0,0
1289,-6.0,-3.0,62.0,1645447435.90625,P19,D01,0,0,0
1290,-6.0,-4.0,62.0,1645447435.9375,P19,D01,0,0,0
1291,-6.0,-4.0,62.0,1645447435.96875,P19,D01,0,0,0
1292,-6.0,-4.0,62.0,1645447436.0,P19,D01,0,0,0
1293,-6.0,-3.0,62.0,1645447436.03125,P19,D01,0,0,0
1294,-6.0,-3.0,62.0,1645447436.0625,P19,D01,0,0,0
1295,-7.0,-4.0,62.0,1645447436.09375,P19,D01,0,0,0
1296,-7.0,-4.0,62.0,1645447436.125,P19,D01,0,0,0
1297,-5.0,-4.0,62.0,1645447436.15625,P19,D01,0,0,0
1298,-5.0,-4.0,62.0,1645447436.1875,P19,D01,0,0,0
1299,-6.0,-4.0,62.0,1645447436.21875,P19,D01,0,0,0
1300,-4.0,-3.0,64.0,1645447436.25,P19,D01,0,0,0
1301,-11.0,-3.0,61.0,1645447436.28125,P19,D01,0,0,0
1302,-9.0,-3.0,61.0,1645447436.3125,P19,D01,0,0,0
1303,-7.0,-4.0,62.0,1645447436.34375,P19,D01,0,0,0
1304,-7.0,-3.0,62.0,1645447436.375,P19,D01,0,0,0
1305,-8.0,-4.0,62.0,1645447436.40625,P19,D01,0,0,0
1306,-7.0,-4.0,62.0,1645447436.4375,P19,D01,0,0,0
1307,-7.0,-4.0,62.0,1645447436.46875,P19,D01,0,0,0
1308,-7.0,-4.0,62.0,1645447436.5,P19,D01,0,0,0
1309,-7.0,-4.0,62.0,1645447436.53125,P19,D01,0,0,0
1310,-7.0,-4.0,62.0,1645447436.5625,P19,D01,0,0,0
1311,-7.0,-4.0,62.0,1645447436.59375,P19,D01,0,0,0
1312,-7.0,-3.0,62.0,1645447436.625,P19,D01,0,0,0
1313,-7.0,-4.0,62.0,1645447436.65625,P19,D01,0,0,0
1314,-6.0,-3.0,62.0,1645447436.6875,P19,D01,0,0,0
1315,-7.0,-4.0,62.0,1645447436.71875,P19,D01,0,0,0
1316,-7.0,-3.0,62.0,1645447436.75,P19,D01,0,0,0
1317,-6.0,-4.0,62.0,1645447436.78125,P19,D01,0,0,0
1318,-6.0,-3.0,62.0,1645447436.8125,P19,D01,0,0,0
1319,-7.0,-4.0,62.0,1645447436.84375,P19,D01,0,0,0
1320,-7.0,-4.0,62.0,1645447436.875,P19,D01,0,0,0
1321,-6.0,-3.0,62.0,1645447436.90625,P19,D01,0,0,0
1322,-6.0,-4.0,62.0,1645447436.9375,P19,D01,0,0,0
1323,-7.0,-4.0,62.0,1645447436.96875,P19,D01,0,0,0
1324,-7.0,-4.0,62.0,1645447437.0,P19,D01,0,0,0
1325,-7.0,-4.0,62.0,1645447437.03125,P19,D01,0,0,0
1326,-7.0,-3.0,62.0,1645447437.0625,P19,D01,0,0,0
1327,-7.0,-3.0,62.0,1645447437.09375,P19,D01,0,0,0
1328,-7.0,-4.0,62.0,1645447437.125,P19,D01,0,0,0
1329,-7.0,-4.0,62.0,1645447437.15625,P19,D01,0,0,0
1330,-7.0,-4.0,62.0,1645447437.1875,P19,D01,0,0,0
1331,-7.0,-4.0,62.0,1645447437.21875,P19,D01,0,0,0
1332,-7.0,-4.0,62.0,1645447437.25,P19,D01,0,0,0
1333,-7.0,-4.0,62.0,1645447437.28125,P19,D01,0,0,0
1334,-7.0,-4.0,62.0,1645447437.3125,P19,D01,0,0,0
1335,-6.0,-3.0,62.0,1645447437.34375,P19,D01,0,0,0
1336,-6.0,-3.0,62.0,1645447437.375,P19,D01,0,0,0
1337,-7.0,-4.0,62.0,1645447437.40625,P19,D01,0,0,0
1338,-7.0,-3.0,62.0,1645447437.4375,P19,D01,0,0,0
1339,-7.0,-4.0,62.0,1645447437.46875,P19,D01,0,0,0
1340,-7.0,-4.0,62.0,1645447437.5,P19,D01,0,0,0
1341,-6.0,-4.0,62.0,1645447437.53125,P19,D01,0,0,0
1342,-7.0,-4.0,62.0,1645447437.5625,P19,D01,0,0,0
1343,-7.0,-4.0,62.0,1645447437.59375,P19,D01,0,0,0
1344,-7.0,-4.0,62.0,1645447437.625,P19,D01,0,0,0
1345,-7.0,-4.0,62.0,1645447437.65625,P19,D01,0,0,0
1346,-6.0,-4.0,62.0,1645447437.6875,P19,D01,0,0,0
1347,-7.0,-4.0,62.0,1645447437.71875,P19,D01,0,0,0
1348,-7.0,-3.0,62.0,1645447437.75,P19,D01,0,0,0
1349,-7.0,-3.0,62.0,1645447437.78125,P19,D01,0,0,0
1350,-6.0,-4.0,62.0,1645447437.8125,P19,D01,0,0,0
1351,-7.0,-4.0,62.0,1645447437.84375,P19,D01,0,0,0
1352,-7.0,-4.0,62.0,1645447437.875,P19,D01,0,0,0
1353,-7.0,-4.0,62.0,1645447437.90625,P19,D01,0,0,0
1354,-7.0,-4.0,62.0,1645447437.9375,P19,D01,0,0,0
1355,-7.0,-4.0,62.0,1645447437.96875,P19,D01,0,0,0
1356,-7.0,-4.0,62.0,1645447438.0,P19,D01,0,0,0
1357,-7.0,-3.0,62.0,1645447438.03125,P19,D01,0,0,0
1358,-7.0,-4.0,62.0,1645447438.0625,P19,D01,0,0,0
1359,-7.0,-4.0,62.0,1645447438.09375,P19,D01,0,0,0
1360,-7.0,-4.0,62.0,1645447438.125,P19,D01,0,0,0
1361,-7.0,-4.0,62.0,1645447438.15625,P19,D01,0,0,0
1362,-7.0,-3.0,62.0,1645447438.1875,P19,D01,0,0,0
1363,-7.0,-4.0,62.0,1645447438.21875,P19,D01,0,0,0
1364,-6.0,-4.0,62.0,1645447438.25,P19,D01,0,0,0
1365,-6.0,-4.0,62.0,1645447438.28125,P19,D01,0,0,0
1366,-7.0,-3.0,62.0,1645447438.3125,P19,D01,0,0,0
1367,-7.0,-3.0,62.0,1645447438.34375,P19,D01,0,0,0
1368,-7.0,-3.0,62.0,1645447438.375,P19,D01,0,0,0
1369,-7.0,-4.0,62.0,1645447438.40625,P19,D01,0,0,0
1370,-7.0,-3.0,62.0,1645447438.4375,P19,D01,0,0,0
1371,-7.0,-3.0,62.0,1645447438.46875,P19,D01,0,0,0
1372,-7.0,-4.0,62.0,1645447438.5,P19,D01,0,0,0
1373,-7.0,-4.0,62.0,1645447438.53125,P19,D01,0,0,0
1374,-7.0,-4.0,62.0,1645447438.5625,P19,D01,0,0,0
1375,-7.0,-3.0,62.0,1645447438.59375,P19,D01,0,0,0
1376,-7.0,-4.0,62.0,1645447438.625,P19,D01,0,0,0
1377,-7.0,-4.0,62.0,1645447438.65625,P19,D01,0,0,0
1378,-7.0,-3.0,62.0,1645447438.6875,P19,D01,0,0,0
1379,-6.0,-4.0,62.0,1645447438.71875,P19,D01,0,0,0
1380,-7.0,-3.0,62.0,1645447438.75,P19,D01,0,0,0
1381,-7.0,-4.0,62.0,1645447438.78125,P19,D01,0,0,0
1382,-7.0,-4.0,62.0,1645447438.8125,P19,D01,0,0,0
1383,-7.0,-3.0,62.0,1645447438.84375,P19,D01,0,0,0
1384,-7.0,-3.0,62.0,1645447438.875,P19,D01,0,0,0
1385,-7.0,-3.0,62.0,1645447438.90625,P19,D01,0,0,0
1386,-8.0,-4.0,62.0,1645447438.9375,P19,D01,0,0,0
1387,-6.0,-4.0,62.0,1645447438.96875,P19,D01,0,0,0
1388,-8.0,-4.0,62.0,1645447439.0,P19,D01,0,0,0
1389,-4.0,-3.0,62.0,1645447439.03125,P19,D01,0,0,0
1390,-6.0,-3.0,62.0,1645447439.0625,P19,D01,0,0,0
1391,-7.0,-3.0,62.0,1645447439.09375,P19,D01,0,0,0
1392,-6.0,-3.0,62.0,1645447439.125,P19,D01,0,0,0
1393,-6.0,-3.0,62.0,1645447439.15625,P19,D01,0,0,0
1394,-6.0,-4.0,62.0,1645447439.1875,P19,D01,0,0,0
1395,-6.0,-3.0,62.0,1645447439.21875,P19,D01,0,0,0
1396,-6.0,-4.0,62.0,1645447439.25,P19,D01,0,0,0
1397,-6.0,-4.0,62.0,1645447439.28125,P19,D01,0,0,0
1398,-7.0,-4.0,62.0,1645447439.3125,P19,D01,0,0,0
1399,-7.0,-4.0,62.0,1645447439.34375,P19,D01,0,0,0
1400,-6.0,-4.0,62.0,1645447439.375,P19,D01,0,0,0
1401,-6.0,-4.0,62.0,1645447439.40625,P19,D01,0,0,0
1402,-6.0,-4.0,62.0,1645447439.4375,P19,D01,0,0,0
1403,-6.0,-4.0,62.0,1645447439.46875,P19,D01,0,0,0
1404,-6.0,-4.0,62.0,1645447439.5,P19,D01,0,0,0
1405,-6.0,-4.0,62.0,1645447439.53125,P19,D01,0,0,0
1406,-6.0,-4.0,62.0,1645447439.5625,P19,D01,0,0,0
1407,-6.0,-3.0,62.0,1645447439.59375,P19,D01,0,0,0
1408,-6.0,-3.0,62.0,1645447439.625,P19,D01,0,0,0
1409,-6.0,-4.0,62.0,1645447439.65625,P19,D01,0,0,0
1410,-5.0,-4.0,62.0,1645447439.6875,P19,D01,0,0,0
1411,-6.0,-4.0,62.0,1645447439.71875,P19,D01,0,0,0
1412,-6.0,-4.0,62.0,1645447439.75,P19,D01,0,0,0
1413,-6.0,-4.0,62.0,1645447439.78125,P19,D01,0,0,0
1414,-6.0,-4.0,62.0,1645447439.8125,P19,D01,0,0,0
1415,-6.0,-4.0,62.0,1645447439.84375,P19,D01,0,0,0
1416,-6.0,-4.0,62.0,1645447439.875,P19,D01,0,0,0
1417,-6.0,-4.0,62.0,1645447439.90625,P19,D01,0,0,0
1418,-6.0,-4.0,62.0,1645447439.9375,P19,D01,0,0,0
1419,-6.0,-4.0,62.0,1645447439.96875,P19,D01,0,0,0
1420,-6.0,-4.0,62.0,1645447440.0,P19,D01,0,0,0
1421,-6.0,-4.0,62.0,1645447440.03125,P19,D01,0,0,0
1422,-7.0,-4.0,62.0,1645447440.0625,P19,D01,0,0,0
1423,-7.0,-4.0,62.0,1645447440.09375,P19,D01,0,0,0
1424,-6.0,-4.0,62.0,1645447440.125,P19,D01,0,0,0
1425,-6.0,-4.0,62.0,1645447440.15625,P19,D01,0,0,0
1426,-6.0,-4.0,62.0,1645447440.1875,P19,D01,0,0,0
1427,-6.0,-4.0,62.0,1645447440.21875,P19,D01,0,0,0
1428,-6.0,-4.0,62.0,1645447440.25,P19,D01,0,0,0
1429,-6.0,-4.0,62.0,1645447440.28125,P19,D01,0,0,0
1430,-6.0,-4.0,62.0,1645447440.3125,P19,D01,0,0,0
1431,-6.0,-4.0,62.0,1645447440.34375,P19,D01,0,0,0
1432,-6.0,-4.0,62.0,1645447440.375,P19,D01,0,0,0
1433,-6.0,-4.0,62.0,1645447440.40625,P19,D01,0,0,0
1434,-6.0,-4.0,62.0,1645447440.4375,P19,D01,0,0,0
1435,-6.0,-4.0,62.0,1645447440.46875,P19,D01,0,0,0
1436,-7.0,-4.0,62.0,1645447440.5,P19,D01,0,0,0
1437,-7.0,-4.0,62.0,1645447440.53125,P19,D01,0,0,0
1438,-6.0,-4.0,62.0,1645447440.5625,P19,D01,0,0,0
1439,-6.0,-4.0,62.0,1645447440.59375,P19,D01,0,0,0
1440,-7.0,-4.0,62.0,1645447440.625,P19,D01,0,0,0
1441,-6.0,-4.0,62.0,1645447440.65625,P19,D01,0,0,0
1442,-7.0,-4.0,62.0,1645447440.6875,P19,D01,0,0,0
1443,-4.0,-3.0,63.0,1645447440.71875,P19,D01,0,0,0
1444,-4.0,-3.0,63.0,1645447440.75,P19,D01,0,0,0
1445,-7.0,-4.0,62.0,1645447440.78125,P19,D01,0,0,0
1446,-9.0,-3.0,61.0,1645447440.8125,P19,D01,0,0,0
1447,-6.0,-3.0,62.0,1645447440.84375,P19,D01,0,0,0
1448,-5.0,-3.0,62.0,1645447440.875,P19,D01,0,0,0
1449,-5.0,-4.0,62.0,1645447440.90625,P19,D01,0,0,0
1450,-6.0,-4.0,62.0,1645447440.9375,P19,D01,0,0,0
1451,-6.0,-4.0,62.0,1645447440.96875,P19,D01,0,0,0
1452,-6.0,-4.0,62.0,1645447441.0,P19,D01,0,0,0
1453,-7.0,-4.0,62.0,1645447441.03125,P19,D01,0,0,0
1454,-7.0,-3.0,62.0,1645447441.0625,P19,D01,0,0,0
1455,-6.0,-3.0,62.0,1645447441.09375,P19,D01,0,0,0
1456,-5.0,-4.0,62.0,1645447441.125,P19,D01,0,0,0
1457,-6.0,-4.0,62.0,1645447441.15625,P19,D01,0,0,0
1458,-6.0,-4.0,62.0,1645447441.1875,P19,D01,0,0,0
1459,-6.0,-4.0,62.0,1645447441.21875,P19,D01,0,0,0
1460,-6.0,-4.0,62.0,1645447441.25,P19,D01,0,0,0
1461,-6.0,-4.0,62.0,1645447441.28125,P19,D01,0,0,0
1462,-6.0,-4.0,62.0,1645447441.3125,P19,D01,0,0,0
1463,-7.0,-4.0,62.0,1645447441.34375,P19,D01,0,0,0
1464,-6.0,-3.0,62.0,1645447441.375,P19,D01,0,0,0
1465,-5.0,-4.0,62.0,1645447441.40625,P19,D01,0,0,0
1466,-6.0,-4.0,62.0,1645447441.4375,P19,D01,0,0,0
1467,-7.0,-4.0,62.0,1645447441.46875,P19,D01,0,0,0
1468,-7.0,-4.0,62.0,1645447441.5,P19,D01,0,0,0
1469,-6.0,-4.0,62.0,1645447441.53125,P19,D01,0,0,0
1470,-6.0,-4.0,62.0,1645447441.5625,P19,D01,0,0,0
1471,-6.0,-4.0,62.0,1645447441.59375,P19,D01,0,0,0
1472,-6.0,-4.0,62.0,1645447441.625,P19,D01,0,0,0
1473,-8.0,-4.0,62.0,1645447441.65625,P19,D01,0,0,0
1474,-7.0,-3.0,62.0,1645447441.6875,P19,D01,0,0,0
1475,-5.0,-4.0,62.0,1645447441.71875,P19,D01,0,0,0
1476,-6.0,-4.0,62.0,1645447441.75,P19,D01,0,0,0
1477,-7.0,-4.0,62.0,1645447441.78125,P19,D01,0,0,0
1478,-6.0,-3.0,62.0,1645447441.8125,P19,D01,0,0,0
1479,-6.0,-3.0,62.0,1645447441.84375,P19,D01,0,0,0
1480,-6.0,-4.0,62.0,1645447441.875,P19,D01,0,0,0
1481,-6.0,-4.0,62.0,1645447441.90625,P19,D01,0,0,0
1482,-6.0,-3.0,62.0,1645447441.9375,P19,D01,0,0,0
1483,-6.0,-4.0,62.0,1645447441.96875,P19,D01,0,0,0
1484,-7.0,-4.0,62.0,1645447442.0,P19,D01,0,0,0
1485,-6.0,-3.0,62.0,1645447442.03125,P19,D01,0,0,0
1486,-6.0,-3.0,62.0,1645447442.0625,P19,D01,0,0,0
1487,-7.0,-4.0,62.0,1645447442.09375,P19,D01,0,0,0
1488,-7.0,-4.0,62.0,1645447442.125,P19,D01,0,0,0
1489,-7.0,-4.0,62.0,1645447442.15625,P19,D01,0,0,0
1490,-6.0,-4.0,62.0,1645447442.1875,P19,D01,0,0,0
1491,-6.0,-4.0,62.0,1645447442.21875,P19,D01,0,0,0
1492,-6.0,-4.0,62.0,1645447442.25,P19,D01,0,0,0
1493,-6.0,-4.0,62.0,1645447442.28125,P19,D01,0,0,0
1494,-6.0,-4.0,62.0,1645447442.3125,P19,D01,0,0,0
1495,-7.0,-4.0,62.0,1645447442.34375,P19,D01,0,0,0
1496,-6.0,-4.0,62.0,1645447442.375,P19,D01,0,0,0
1497,-6.0,-4.0,62.0,1645447442.40625,P19,D01,0,0,0
1498,-7.0,-4.0,62.0,1645447442.4375,P19,D01,0,0,0
1499,-6.0,-3.0,62.0,1645447442.46875,P19,D01,0,0,0
1500,-6.0,-4.0,62.0,1645447442.5,P19,D01,0,0,0
1501,-6.0,-4.0,62.0,1645447442.53125,P19,D01,0,0,0
1502,-6.0,-3.0,62.0,1645447442.5625,P19,D01,0,0,0
1503,-7.0,-3.0,62.0,1645447442.59375,P19,D01,0,0,0
1504,-6.0,-4.0,62.0,1645447442.625,P19,D01,0,0,0
1505,-6.0,-4.0,62.0,1645447442.65625,P19,D01,0,0,0
1506,-6.0,-4.0,62.0,1645447442.6875,P19,D01,0,0,0
1507,-6.0,-4.0,62.0,1645447442.71875,P19,D01,0,0,0
1508,-7.0,-4.0,62.0,1645447442.75,P19,D01,0,0,0
1509,-6.0,-3.0,62.0,1645447442.78125,P19,D01,0,0,0
1510,-7.0,-4.0,62.0,1645447442.8125,P19,D01,0,0,0
1511,-7.0,-4.0,62.0,1645447442.84375,P19,D01,0,0,0
1512,-6.0,-4.0,62.0,1645447442.875,P19,D01,0,0,0
1513,-6.0,-4.0,62.0,1645447442.90625,P19,D01,0,0,0
1514,-6.0,-4.0,62.0,1645447442.9375,P19,D01,0,0,0
1515,-6.0,-4.0,62.0,1645447442.96875,P19,D01,0,0,0
1516,-6.0,-4.0,62.0,1645447443.0,P19,D01,0,0,0
1517,-6.0,-4.0,62.0,1645447443.03125,P19,D01,0,0,0
1518,-6.0,-4.0,62.0,1645447443.0625,P19,D01,0,0,0
1519,-7.0,-4.0,62.0,1645447443.09375,P19,D01,0,0,0
1520,-7.0,-4.0,62.0,1645447443.125,P19,D01,0,0,0
1521,-6.0,-4.0,62.0,1645447443.15625,P19,D01,0,0,0
1522,-6.0,-4.0,62.0,1645447443.1875,P19,D01,0,0,0
1523,-6.0,-4.0,62.0,1645447443.21875,P19,D01,0,0,0
1524,-6.0,-4.0,62.0,1645447443.25,P19,D01,0,0,0
1525,-6.0,-4.0,62.0,1645447443.28125,P19,D01,0,0,0
1526,-6.0,-4.0,62.0,1645447443.3125,P19,D01,0,0,0
1527,-7.0,-4.0,62.0,1645447443.34375,P19,D01,0,0,0
1528,-6.0,-3.0,62.0,1645447443.375,P19,D01,0,0,0
1529,-6.0,-4.0,62.0,1645447443.40625,P19,D01,0,0,0
1530,-7.0,-4.0,62.0,1645447443.4375,P19,D01,0,0,0
1531,-7.0,-4.0,62.0,1645447443.46875,P19,D01,0,0,0
1532,-7.0,-3.0,62.0,1645447443.5,P19,D01,0,0,0
1533,-6.0,-4.0,62.0,1645447443.53125,P19,D01,0,0,0
1534,-7.0,-4.0,62.0,1645447443.5625,P19,D01,0,0,0
1535,-6.0,-4.0,62.0,1645447443.59375,P19,D01,0,0,0
1536,-6.0,-4.0,62.0,1645447443.625,P19,D01,0,0,0
1537,-6.0,-4.0,62.0,1645447443.65625,P19,D01,0,0,0
1538,-6.0,-4.0,62.0,1645447443.6875,P19,D01,0,0,0
1539,-7.0,-4.0,62.0,1645447443.71875,P19,D01,0,0,0
1540,-6.0,-4.0,62.0,1645447443.75,P19,D01,0,0,0
1541,-7.0,-4.0,62.0,1645447443.78125,P19,D01,0,0,0
1542,-7.0,-3.0,62.0,1645447443.8125,P19,D01,0,0,0
1543,-6.0,-3.0,62.0,1645447443.84375,P19,D01,0,0,0
1544,-6.0,-3.0,62.0,1645447443.875,P19,D01,0,0,0
1545,-6.0,-4.0,62.0,1645447443.90625,P19,D01,0,0,0
1546,-7.0,-1.0,62.0,1645447443.9375,P19,D01,0,0,0
1547,-7.0,-2.0,62.0,1645447443.96875,P19,D01,0,0,0
1548,-6.0,-4.0,62.0,1645447444.0,P19,D01,0,0,0
1549,-6.0,-3.0,62.0,1645447444.03125,P19,D01,0,0,0
1550,-6.0,-3.0,62.0,1645447444.0625,P19,D01,0,0,0
1551,-6.0,-4.0,62.0,1645447444.09375,P19,D01,0,0,0
1552,-6.0,-3.0,62.0,1645447444.125,P19,D01,0,0,0
1553,-5.0,-3.0,62.0,1645447444.15625,P19,D01,0,0,0
1554,-6.0,-3.0,62.0,1645447444.1875,P19,D01,0,0,0
1555,-6.0,-3.0,62.0,1645447444.21875,P19,D01,0,0,0
1556,-6.0,-3.0,62.0,1645447444.25,P19,D01,0,0,0
1557,-6.0,-3.0,62.0,1645447444.28125,P19,D01,0,0,0
1558,-6.0,-3.0,62.0,1645447444.3125,P19,D01,0,0,0
1559,-5.0,-3.0,62.0,1645447444.34375,P19,D01,0,0,0
1560,-7.0,-3.0,62.0,1645447444.375,P19,D01,0,0,0
1561,-7.0,-3.0,62.0,1645447444.40625,P19,D01,0,0,0
1562,-6.0,-3.0,62.0,1645447444.4375,P19,D01,0,0,0
1563,-7.0,-3.0,62.0,1645447444.46875,P19,D01,0,0,0
1564,-7.0,-3.0,62.0,1645447444.5,P19,D01,0,0,0
1565,-7.0,-3.0,62.0,1645447444.53125,P19,D01,0,0,0
1566,-6.0,-3.0,62.0,1645447444.5625,P19,D01,0,0,0
1567,-6.0,-4.0,62.0,1645447444.59375,P19,D01,0,0,0
1568,-7.0,-3.0,62.0,1645447444.625,P19,D01,0,0,0
1569,-6.0,-3.0,62.0,1645447444.65625,P19,D01,0,0,0
1570,-6.0,-3.0,62.0,1645447444.6875,P19,D01,0,0,0
1571,-7.0,-3.0,62.0,1645447444.71875,P19,D01,0,0,0
1572,-6.0,-3.0,62.0,1645447444.75,P19,D01,0,0,0
1573,-6.0,-3.0,62.0,1645447444.78125,P19,D01,0,0,0
1574,-7.0,-3.0,62.0,1645447444.8125,P19,D01,0,0,0
1575,-6.0,-3.0,62.0,1645447444.84375,P19,D01,0,0,0
1576,-6.0,-3.0,62.0,1645447444.875,P19,D01,0,0,0
1577,-7.0,-3.0,62.0,1645447444.90625,P19,D01,0,0,0
1578,-6.0,-3.0,62.0,1645447444.9375,P19,D01,0,0,0
1579,-6.0,-3.0,62.0,1645447444.96875,P19,D01,0,0,0
1580,-6.0,-3.0,62.0,1645447445.0,P19,D01,0,0,0
1581,-6.0,-3.0,62.0,1645447445.03125,P19,D01,0,0,0
1582,-7.0,-3.0,62.0,1645447445.0625,P19,D01,0,0,0
1583,-7.0,-3.0,62.0,1645447445.09375,P19,D01,0,0,0
1584,-6.0,-3.0,62.0,1645447445.125,P19,D01,0,0,0
1585,-7.0,-3.0,62.0,1645447445.15625,P19,D01,0,0,0
1586,-7.0,-3.0,62.0,1645447445.1875,P19,D01,0,0,0
1587,-6.0,-3.0,62.0,1645447445.21875,P19,D01,0,0,0
1588,-6.0,-3.0,62.0,1645447445.25,P19,D01,0,0,0
1589,-6.0,-3.0,62.0,1645447445.28125,P19,D01,0,0,0
1590,-6.0,-3.0,62.0,1645447445.3125,P19,D01,0,0,0
1591,-6.0,-4.0,62.0,1645447445.34375,P19,D01,0,0,0
1592,-6.0,-4.0,62.0,1645447445.375,P19,D01,0,0,0
1593,-6.0,-3.0,62.0,1645447445.40625,P19,D01,0,0,0
1594,-7.0,-4.0,62.0,1645447445.4375,P19,D01,0,0,0
1595,-6.0,-3.0,62.0,1645447445.46875,P19,D01,0,0,0
1596,-6.0,-3.0,62.0,1645447445.5,P19,D01,0,0,0
1597,-7.0,-3.0,62.0,1645447445.53125,P19,D01,0,0,0
1598,-7.0,-4.0,62.0,1645447445.5625,P19,D01,0,0,0
1599,-6.0,-3.0,62.0,1645447445.59375,P19,D01,0,0,0
1600,-6.0,-3.0,62.0,1645447445.625,P19,D01,0,0,0
1601,-7.0,-3.0,62.0,1645447445.65625,P19,D01,0,0,0
1602,-6.0,-4.0,62.0,1645447445.6875,P19,D01,0,0,0
1603,-6.0,-3.0,62.0,1645447445.71875,P19,D01,0,0,0
1604,-7.0,-3.0,62.0,1645447445.75,P19,D01,0,0,0
1605,-6.0,-3.0,62.0,1645447445.78125,P19,D01,0,0,0
1606,-6.0,-4.0,62.0,1645447445.8125,P19,D01,0,0,0
1607,-7.0,-3.0,62.0,1645447445.84375,P19,D01,0,0,0
1608,-6.0,-4.0,62.0,1645447445.875,P19,D01,0,0,0
1609,-7.0,-3.0,62.0,1645447445.90625,P19,D01,0,0,0
1610,-7.0,-4.0,62.0,1645447445.9375,P19,D01,0,0,0
1611,-6.0,-4.0,62.0,1645447445.96875,P19,D01,0,0,0
1612,-6.0,-4.0,62.0,1645447446.0,P19,D01,0,0,0
1613,-7.0,-3.0,62.0,1645447446.03125,P19,D01,0,0,0
1614,-7.0,-3.0,62.0,1645447446.0625,P19,D01,0,0,0
1615,-6.0,-3.0,62.0,1645447446.09375,P19,D01,0,0,0
1616,-7.0,-4.0,62.0,1645447446.125,P19,D01,0,0,0
1617,-6.0,-3.0,62.0,1645447446.15625,P19,D01,0,0,0
1618,-6.0,-3.0,62.0,1645447446.1875,P19,D01,0,0,0
1619,-7.0,-4.0,62.0,1645447446.21875,P19,D01,0,0,0
1620,-6.0,-3.0,62.0,1645447446.25,P19,D01,0,0,0
1621,-6.0,-4.0,62.0,1645447446.28125,P19,D01,0,0,0
1622,-7.0,-3.0,62.0,1645447446.3125,P19,D01,0,0,0
1623,-7.0,-3.0,62.0,1645447446.34375,P19,D01,0,0,0
1624,-6.0,-3.0,62.0,1645447446.375,P19,D01,0,0,0
1625,-6.0,-3.0,62.0,1645447446.40625,P19,D01,0,0,0
1626,-6.0,-3.0,62.0,1645447446.4375,P19,D01,0,0,0
1627,-7.0,-3.0,62.0,1645447446.46875,P19,D01,0,0,0
1628,-6.0,-3.0,62.0,1645447446.5,P19,D01,0,0,0
1629,-6.0,-3.0,62.0,1645447446.53125,P19,D01,0,0,0
1630,-7.0,-3.0,62.0,1645447446.5625,P19,D01,0,0,0
1631,-6.0,-3.0,62.0,1645447446.59375,P19,D01,0,0,0
1632,-6.0,-3.0,62.0,1645447446.625,P19,D01,0,0,0
1633,-7.0,-3.0,62.0,1645447446.65625,P19,D01,0,0,0
1634,-7.0,-4.0,62.0,1645447446.6875,P19,D01,0,0,0
1635,-6.0,-4.0,62.0,1645447446.71875,P19,D01,0,0,0
1636,-6.0,-3.0,62.0,1645447446.75,P19,D01,0,0,0
1637,-7.0,-3.0,62.0,1645447446.78125,P19,D01,0,0,0
1638,-7.0,-4.0,62.0,1645447446.8125,P19,D01,0,0,0
1639,-6.0,-3.0,62.0,1645447446.84375,P19,D01,0,0,0
1640,-6.0,-3.0,62.0,1645447446.875,P19,D01,0,0,0
1641,-7.0,-3.0,62.0,1645447446.90625,P19,D01,0,0,0
1642,-6.0,-4.0,62.0,1645447446.9375,P19,D01,0,0,0
1643,-6.0,-3.0,62.0,1645447446.96875,P19,D01,0,0,0
1644,-6.0,-3.0,62.0,1645447447.0,P19,D01,0,0,0
1645,-6.0,-3.0,62.0,1645447447.03125,P19,D01,0,0,0
1646,-7.0,-3.0,62.0,1645447447.0625,P19,D01,0,0,0
1647,-6.0,-3.0,62.0,1645447447.09375,P19,D01,0,0,0
1648,-6.0,-3.0,62.0,1645447447.125,P19,D01,0,0,0
1649,-6.0,-3.0,62.0,1645447447.15625,P19,D01,0,0,0
1650,-7.0,-3.0,62.0,1645447447.1875,P19,D01,0,0,0
1651,-7.0,-3.0,62.0,1645447447.21875,P19,D01,0,0,0
1652,-6.0,-3.0,62.0,1645447447.25,P19,D01,0,0,0
1653,-6.0,-3.0,62.0,1645447447.28125,P19,D01,0,0,0
1654,-6.0,-3.0,62.0,1645447447.3125,P19,D01,0,0,0
1655,-7.0,-3.0,62.0,1645447447.34375,P19,D01,0,0,0
1656,-7.0,-3.0,62.0,1645447447.375,P19,D01,0,0,0
1657,-6.0,-3.0,62.0,1645447447.40625,P19,D01,0,0,0
1658,-6.0,-3.0,62.0,1645447447.4375,P19,D01,0,0,0
1659,-6.0,-3.0,62.0,1645447447.46875,P19,D01,0,0,0
1660,-6.0,-3.0,62.0,1645447447.5,P19,D01,0,0,0
1661,-6.0,-3.0,62.0,1645447447.53125,P19,D01,0,0,0
1662,-6.0,-3.0,62.0,1645447447.5625,P19,D01,0,0,0
1663,-6.0,-3.0,62.0,1645447447.59375,P19,D01,0,0,0
1664,-6.0,-3.0,62.0,1645447447.625,P19,D01,0,0,0
1665,-6.0,-3.0,62.0,1645447447.65625,P19,D01,0,0,0
1666,-7.0,-3.0,62.0,1645447447.6875,P19,D01,0,0,0
1667,-6.0,-3.0,62.0,1645447447.71875,P19,D01,0,0,0
1668,-6.0,-3.0,62.0,1645447447.75,P19,D01,0,0,0
1669,-7.0,-3.0,62.0,1645447447.78125,P19,D01,0,0,0
1670,-7.0,-3.0,62.0,1645447447.8125,P19,D01,0,0,0
1671,-7.0,-3.0,62.0,1645447447.84375,P19,D01,0,0,0
1672,-6.0,-4.0,62.0,1645447447.875,P19,D01,0,0,0
1673,-7.0,-3.0,62.0,1645447447.90625,P19,D01,0,0,0
1674,-7.0,-3.0,62.0,1645447447.9375,P19,D01,0,0,0
1675,-6.0,-3.0,62.0,1645447447.96875,P19,D01,0,0,0
1676,-7.0,-3.0,62.0,1645447448.0,P19,D01,0,0,0
1677,-6.0,-3.0,62.0,1645447448.03125,P19,D01,0,0,0
1678,-6.0,-3.0,62.0,1645447448.0625,P19,D01,0,0,0
1679,-7.0,-3.0,62.0,1645447448.09375,P19,D01,0,0,0
1680,-7.0,-3.0,62.0,1645447448.125,P19,D01,0,0,0
1681,-6.0,-4.0,62.0,1645447448.15625,P19,D01,0,0,0
1682,-6.0,-3.0,62.0,1645447448.1875,P19,D01,0,0,0
1683,-6.0,-3.0,62.0,1645447448.21875,P19,D01,0,0,0
1684,-6.0,-3.0,62.0,1645447448.25,P19,D01,0,0,0
1685,-7.0,-3.0,62.0,1645447448.28125,P19,D01,0,0,0
1686,-7.0,-3.0,62.0,1645447448.3125,P19,D01,0,0,0
1687,-6.0,-3.0,62.0,1645447448.34375,P19,D01,0,0,0
1688,-6.0,-3.0,62.0,1645447448.375,P19,D01,0,0,0
1689,-7.0,-3.0,62.0,1645447448.40625,P19,D01,0,0,0
1690,-7.0,-3.0,62.0,1645447448.4375,P19,D01,0,0,0
1691,-6.0,-3.0,62.0,1645447448.46875,P19,D01,0,0,0
1692,-6.0,-3.0,62.0,1645447448.5,P19,D01,0,0,0
1693,-7.0,-3.0,62.0,1645447448.53125,P19,D01,0,0,0
1694,-7.0,-3.0,62.0,1645447448.5625,P19,D01,0,0,0
1695,-7.0,-3.0,62.0,1645447448.59375,P19,D01,0,0,0
1696,-6.0,-3.0,62.0,1645447448.625,P19,D01,0,0,0
1697,-7.0,-3.0,62.0,1645447448.65625,P19,D01,0,0,0
1698,-7.0,-3.0,62.0,1645447448.6875,P19,D01,0,0,0
1699,-7.0,-3.0,62.0,1645447448.71875,P19,D01,0,0,0
1700,-7.0,-3.0,62.0,1645447448.75,P19,D01,0,0,0
1701,-7.0,-4.0,62.0,1645447448.78125,P19,D01,0,0,0
1702,-6.0,-3.0,62.0,1645447448.8125,P19,D01,0,0,0
1703,-7.0,-3.0,62.0,1645447448.84375,P19,D01,0,0,0
1704,-7.0,-3.0,62.0,1645447448.875,P19,D01,0,0,0
1705,-6.0,-3.0,62.0,1645447448.90625,P19,D01,0,0,0
1706,-6.0,-3.0,62.0,1645447448.9375,P19,D01,0,0,0
1707,-7.0,-3.0,62.0,1645447448.96875,P19,D01,0,0,0
1708,-7.0,-3.0,62.0,1645447449.0,P19,D01,0,0,0
1709,-6.0,-3.0,62.0,1645447449.03125,P19,D01,0,0,0
1710,-6.0,-3.0,62.0,1645447449.0625,P19,D01,0,0,0
1711,-6.0,-3.0,62.0,1645447449.09375,P19,D01,0,0,0
1712,-6.0,-3.0,62.0,1645447449.125,P19,D01,0,0,0
1713,-7.0,-4.0,62.0,1645447449.15625,P19,D01,0,0,0
1714,-7.0,-3.0,62.0,1645447449.1875,P19,D01,0,0,0
1715,-7.0,-4.0,62.0,1645447449.21875,P19,D01,0,0,0
1716,-7.0,-3.0,62.0,1645447449.25,P19,D01,0,0,0
1717,-6.0,-3.0,62.0,1645447449.28125,P19,D01,0,0,0
1718,-7.0,-3.0,62.0,1645447449.3125,P19,D01,0,0,0
1719,-7.0,-3.0,62.0,1645447449.34375,P19,D01,0,0,0
1720,-6.0,-3.0,62.0,1645447449.375,P19,D01,0,0,0
1721,-6.0,-4.0,62.0,1645447449.40625,P19,D01,0,0,0
1722,-7.0,-4.0,62.0,1645447449.4375,P19,D01,0,0,0
1723,-7.0,-3.0,62.0,1645447449.46875,P19,D01,0,0,0
1724,-6.0,-3.0,62.0,1645447449.5,P19,D01,0,0,0
1725,-6.0,-4.0,62.0,1645447449.53125,P19,D01,0,0,0
1726,-6.0,-3.0,62.0,1645447449.5625,P19,D01,0,0,0
1727,-6.0,-3.0,62.0,1645447449.59375,P19,D01,0,0,0
1728,-6.0,-4.0,62.0,1645447449.625,P19,D01,0,0,0
1729,-7.0,-4.0,62.0,1645447449.65625,P19,D01,0,0,0
1730,-6.0,-3.0,62.0,1645447449.6875,P19,D01,0,0,0
1731,-6.0,-3.0,62.0,1645447449.71875,P19,D01,0,0,0
1732,-6.0,-3.0,62.0,1645447449.75,P19,D01,0,0,0
1733,-6.0,-4.0,62.0,1645447449.78125,P19,D01,0,0,0
1734,-6.0,-4.0,62.0,1645447449.8125,P19,D01,0,0,0
1735,-6.0,-3.0,62.0,1645447449.84375,P19,D01,0,0,0
1736,-7.0,-3.0,62.0,1645447449.875,P19,D01,0,0,0
1737,-7.0,-3.0,62.0,1645447449.90625,P19,D01,0,0,0
1738,-6.0,-4.0,62.0,1645447449.9375,P19,D01,0,0,0
1739,-7.0,-3.0,62.0,1645447449.96875,P19,D01,0,0,0
1740,-6.0,-3.0,62.0,1645447450.0,P19,D01,0,0,0
1741,-6.0,-3.0,62.0,1645447450.03125,P19,D01,0,0,0
1742,-6.0,-4.0,62.0,1645447450.0625,P19,D01,0,0,0
1743,-7.0,-4.0,62.0,1645447450.09375,P19,D01,0,0,0
1744,-6.0,-4.0,62.0,1645447450.125,P19,D01,0,0,0
1745,-6.0,-4.0,62.0,1645447450.15625,P19,D01,0,0,0
1746,-7.0,-4.0,62.0,1645447450.1875,P19,D01,0,0,0
1747,-7.0,-3.0,62.0,1645447450.21875,P19,D01,0,0,0
1748,-6.0,-3.0,62.0,1645447450.25,P19,D01,0,0,0
1749,-6.0,-3.0,62.0,1645447450.28125,P19,D01,0,0,0
1750,-7.0,-3.0,62.0,1645447450.3125,P19,D01,0,0,0
1751,-6.0,-4.0,62.0,1645447450.34375,P19,D01,0,0,0
1752,-6.0,-4.0,62.0,1645447450.375,P19,D01,0,0,0
1753,-6.0,-3.0,62.0,1645447450.40625,P19,D01,0,0,0
1754,-6.0,-4.0,62.0,1645447450.4375,P19,D01,0,0,0
1755,-6.0,-4.0,62.0,1645447450.46875,P19,D01,0,0,0
1756,-7.0,-3.0,62.0,1645447450.5,P19,D01,0,0,0
1757,-6.0,-3.0,62.0,1645447450.53125,P19,D01,0,0,0
1758,-6.0,-4.0,62.0,1645447450.5625,P19,D01,0,0,0
1759,-6.0,-4.0,62.0,1645447450.59375,P19,D01,0,0,0
1760,-7.0,-3.0,62.0,1645447450.625,P19,D01,0,0,0
1761,-6.0,-3.0,62.0,1645447450.65625,P19,D01,0,0,0
1762,-6.0,-4.0,62.0,1645447450.6875,P19,D01,0,0,0
1763,-6.0,-4.0,62.0,1645447450.71875,P19,D01,0,0,0
1764,-6.0,-3.0,62.0,1645447450.75,P19,D01,0,0,0
1765,-6.0,-4.0,62.0,1645447450.78125,P19,D01,0,0,0
1766,-6.0,-4.0,62.0,1645447450.8125,P19,D01,0,0,0
1767,-6.0,-3.0,62.0,1645447450.84375,P19,D01,0,0,0
1768,-6.0,-4.0,62.0,1645447450.875,P19,D01,0,0,0
1769,-7.0,-4.0,62.0,1645447450.90625,P19,D01,0,0,0
1770,-6.0,-3.0,62.0,1645447450.9375,P19,D01,0,0,0
1771,-6.0,-3.0,62.0,1645447450.96875,P19,D01,0,0,0
1772,-7.0,-3.0,62.0,1645447451.0,P19,D01,0,0,0
1773,-6.0,-4.0,62.0,1645447451.03125,P19,D01,0,0,0
1774,-6.0,-4.0,62.0,1645447451.0625,P19,D01,0,0,0
1775,-6.0,-3.0,62.0,1645447451.09375,P19,D01,0,0,0
1776,-7.0,-4.0,62.0,1645447451.125,P19,D01,0,0,0
1777,-6.0,-3.0,62.0,1645447451.15625,P19,D01,0,0,0
1778,-6.0,-4.0,62.0,1645447451.1875,P19,D01,0,0,0
1779,-6.0,-4.0,62.0,1645447451.21875,P19,D01,0,0,0
1780,-6.0,-3.0,62.0,1645447451.25,P19,D01,0,0,0
1781,-7.0,-4.0,62.0,1645447451.28125,P19,D01,0,0,0
1782,-6.0,-4.0,62.0,1645447451.3125,P19,D01,0,0,0
1783,-6.0,-3.0,62.0,1645447451.34375,P19,D01,0,0,0
1784,-6.0,-3.0,62.0,1645447451.375,P19,D01,0,0,0
1785,-6.0,-4.0,62.0,1645447451.40625,P19,D01,0,0,0
1786,-6.0,-4.0,62.0,1645447451.4375,P19,D01,0,0,0
1787,-6.0,-4.0,62.0,1645447451.46875,P19,D01,0,0,0
1788,-7.0,-4.0,62.0,1645447451.5,P19,D01,0,0,0
1789,-6.0,-3.0,62.0,1645447451.53125,P19,D01,0,0,0
1790,-6.0,-4.0,62.0,1645447451.5625,P19,D01,0,0,0
1791,-6.0,-4.0,62.0,1645447451.59375,P19,D01,0,0,0
1792,-7.0,-3.0,62.0,1645447451.625,P19,D01,0,0,0
1793,-6.0,-4.0,62.0,1645447451.65625,P19,D01,0,0,0
1794,-6.0,-3.0,62.0,1645447451.6875,P19,D01,0,0,0
1795,-7.0,-4.0,62.0,1645447451.71875,P19,D01,0,0,0
1796,-6.0,-4.0,62.0,1645447451.75,P19,D01,0,0,0
1797,-6.0,-4.0,62.0,1645447451.78125,P19,D01,0,0,0
1798,-6.0,-3.0,62.0,1645447451.8125,P19,D01,0,0,0
1799,-6.0,-4.0,62.0,1645447451.84375,P19,D01,0,0,0
1800,-6.0,-3.0,62.0,1645447451.875,P19,D01,0,0,0
1801,-6.0,-3.0,62.0,1645447451.90625,P19,D01,0,0,0
1802,-7.0,-4.0,62.0,1645447451.9375,P19,D01,0,0,0
1803,-7.0,-4.0,62.0,1645447451.96875,P19,D01,0,0,0
1804,-6.0,-3.0,62.0,1645447452.0,P19,D01,0,0,0
1805,-7.0,-4.0,62.0,1645447452.03125,P19,D01,0,0,0
1806,-6.0,-4.0,62.0,1645447452.0625,P19,D01,0,0,0
1807,-6.0,-4.0,62.0,1645447452.09375,P19,D01,0,0,0
1808,-6.0,-3.0,62.0,1645447452.125,P19,D01,0,0,0
1809,-6.0,-3.0,62.0,1645447452.15625,P19,D01,0,0,0
1810,-7.0,-4.0,62.0,1645447452.1875,P19,D01,0,0,0
1811,-6.0,-4.0,62.0,1645447452.21875,P19,D01,0,0,0
1812,-7.0,-3.0,62.0,1645447452.25,P19,D01,0,0,0
1813,-6.0,-4.0,62.0,1645447452.28125,P19,D01,0,0,0
1814,-6.0,-4.0,62.0,1645447452.3125,P19,D01,0,0,0
1815,-6.0,-3.0,62.0,1645447452.34375,P19,D01,0,0,0
1816,-6.0,-3.0,62.0,1645447452.375,P19,D01,0,0,0
1817,-6.0,-4.0,62.0,1645447452.40625,P19,D01,0,0,0
1818,-7.0,-3.0,62.0,1645447452.4375,P19,D01,0,0,0
1819,-6.0,-3.0,62.0,1645447452.46875,P19,D01,0,0,0
1820,-6.0,-3.0,62.0,1645447452.5,P19,D01,0,0,0
1821,-6.0,-3.0,62.0,1645447452.53125,P19,D01,0,0,0
1822,-6.0,-3.0,62.0,1645447452.5625,P19,D01,0,0,0
1823,-6.0,-3.0,62.0,1645447452.59375,P19,D01,0,0,0
1824,-6.0,-3.0,62.0,1645447452.625,P19,D01,0,0,0
1825,-7.0,-3.0,62.0,1645447452.65625,P19,D01,0,0,0
1826,-6.0,-3.0,62.0,1645447452.6875,P19,D01,0,0,0
1827,-6.0,-3.0,62.0,1645447452.71875,P19,D01,0,0,0
1828,-6.0,-4.0,62.0,1645447452.75,P19,D01,0,0,0
1829,-5.0,-4.0,62.0,1645447452.78125,P19,D01,0,0,0
1830,-7.0,-3.0,62.0,1645447452.8125,P19,D01,0,0,0
1831,-7.0,-3.0,62.0,1645447452.84375,P19,D01,0,0,0
1832,-6.0,-3.0,62.0,1645447452.875,P19,D01,0,0,0
1833,-8.0,-3.0,62.0,1645447452.90625,P19,D01,0,0,0
1834,-5.0,-3.0,62.0,1645447452.9375,P19,D01,0,0,0
1835,-5.0,-3.0,62.0,1645447452.96875,P19,D01,0,0,0
1836,-8.0,-3.0,62.0,1645447453.0,P19,D01,0,0,0
1837,-4.0,-3.0,62.0,1645447453.03125,P19,D01,0,0,0
1838,-6.0,-3.0,62.0,1645447453.0625,P19,D01,0,0,0
1839,-7.0,-3.0,62.0,1645447453.09375,P19,D01,0,0,0
1840,-5.0,-3.0,62.0,1645447453.125,P19,D01,0,0,0
1841,-6.0,-3.0,62.0,1645447453.15625,P19,D01,0,0,0
1842,-7.0,-3.0,62.0,1645447453.1875,P19,D01,0,0,0
1843,-6.0,-3.0,62.0,1645447453.21875,P19,D01,0,0,0
1844,-6.0,-3.0,62.0,1645447453.25,P19,D01,0,0,0
1845,-7.0,-3.0,62.0,1645447453.28125,P19,D01,0,0,0
1846,-7.0,-3.0,62.0,1645447453.3125,P19,D01,0,0,0
1847,-6.0,-3.0,62.0,1645447453.34375,P19,D01,0,0,0
1848,-7.0,-3.0,62.0,1645447453.375,P19,D01,0,0,0
1849,-6.0,-3.0,62.0,1645447453.40625,P19,D01,0,0,0
1850,-6.0,-3.0,62.0,1645447453.4375,P19,D01,0,0,0
1851,-7.0,-3.0,62.0,1645447453.46875,P19,D01,0,0,0
1852,-6.0,-3.0,62.0,1645447453.5,P19,D01,0,0,0
1853,-7.0,-3.0,62.0,1645447453.53125,P19,D01,0,0,0
1854,-6.0,-3.0,62.0,1645447453.5625,P19,D01,0,0,0
1855,-7.0,-3.0,62.0,1645447453.59375,P19,D01,0,0,0
1856,-8.0,-4.0,62.0,1645447453.625,P19,D01,0,0,0
1857,-8.0,-4.0,62.0,1645447453.65625,P19,D01,0,0,0
1858,-6.0,-3.0,62.0,1645447453.6875,P19,D01,0,0,0
1859,-7.0,-4.0,62.0,1645447453.71875,P19,D01,0,0,0
1860,-8.0,-4.0,62.0,1645447453.75,P19,D01,0,0,0
1861,-7.0,-3.0,62.0,1645447453.78125,P19,D01,0,0,0
1862,-6.0,-4.0,62.0,1645447453.8125,P19,D01,0,0,0
1863,-6.0,-3.0,62.0,1645447453.84375,P19,D01,0,0,0
1864,-7.0,-4.0,62.0,1645447453.875,P19,D01,0,0,0
1865,-7.0,-3.0,62.0,1645447453.90625,P19,D01,0,0,0
1866,-7.0,-3.0,62.0,1645447453.9375,P19,D01,0,0,0
1867,-7.0,-2.0,62.0,1645447453.96875,P19,D01,0,0,0
1868,-9.0,-4.0,61.0,1645447454.0,P19,D01,0,0,0
1869,-7.0,-4.0,62.0,1645447454.03125,P19,D01,0,0,0
1870,-6.0,-4.0,62.0,1645447454.0625,P19,D01,0,0,0
1871,-5.0,-3.0,62.0,1645447454.09375,P19,D01,0,0,0
1872,-6.0,-3.0,62.0,1645447454.125,P19,D01,0,0,0
1873,-7.0,-3.0,62.0,1645447454.15625,P19,D01,0,0,0
1874,-6.0,-3.0,62.0,1645447454.1875,P19,D01,0,0,0
1875,-7.0,-3.0,62.0,1645447454.21875,P19,D01,0,0,0
1876,-7.0,-3.0,62.0,1645447454.25,P19,D01,0,0,0
1877,-7.0,-3.0,62.0,1645447454.28125,P19,D01,0,0,0
1878,-7.0,-3.0,62.0,1645447454.3125,P19,D01,0,0,0
1879,-6.0,-3.0,62.0,1645447454.34375,P19,D01,0,0,0
1880,-7.0,-3.0,62.0,1645447454.375,P19,D01,0,0,0
1881,-8.0,-3.0,62.0,1645447454.40625,P19,D01,0,0,0
1882,-6.0,-3.0,62.0,1645447454.4375,P19,D01,0,0,0
1883,-7.0,-3.0,62.0,1645447454.46875,P19,D01,0,0,0
1884,-6.0,-3.0,62.0,1645447454.5,P19,D01,0,0,0
1885,-8.0,-3.0,62.0,1645447454.53125,P19,D01,0,0,0
1886,-7.0,-3.0,62.0,1645447454.5625,P19,D01,0,0,0
1887,-6.0,-3.0,62.0,1645447454.59375,P19,D01,0,0,0
1888,-7.0,-3.0,62.0,1645447454.625,P19,D01,0,0,0
1889,-7.0,-3.0,62.0,1645447454.65625,P19,D01,0,0,0
1890,-7.0,-3.0,62.0,1645447454.6875,P19,D01,0,0,0
1891,-7.0,-3.0,62.0,1645447454.71875,P19,D01,0,0,0
1892,-8.0,-3.0,62.0,1645447454.75,P19,D01,0,0,0
1893,-7.0,-4.0,62.0,1645447454.78125,P19,D01,0,0,0
1894,-7.0,-3.0,62.0,1645447454.8125,P19,D01,0,0,0
1895,-8.0,-3.0,62.0,1645447454.84375,P19,D01,0,0,0
1896,-8.0,-3.0,62.0,1645447454.875,P19,D01,0,0,0
1897,-9.0,-3.0,62.0,1645447454.90625,P19,D01,0,0,0
1898,-7.0,-3.0,62.0,1645447454.9375,P19,D01,0,0,0
1899,-5.0,-3.0,62.0,1645447454.96875,P19,D01,0,0,0
1900,-4.0,-3.0,62.0,1645447455.0,P19,D01,0,0,0
1901,-6.0,-4.0,62.0,1645447455.03125,P19,D01,0,0,0
1902,-7.0,-3.0,62.0,1645447455.0625,P19,D01,0,0,0
1903,-7.0,-3.0,62.0,1645447455.09375,P19,D01,0,0,0
1904,-8.0,-3.0,62.0,1645447455.125,P19,D01,0,0,0
1905,-7.0,-3.0,62.0,1645447455.15625,P19,D01,0,0,0
1906,-8.0,-3.0,62.0,1645447455.1875,P19,D01,0,0,0
1907,-7.0,-3.0,62.0,1645447455.21875,P19,D01,0,0,0
1908,-6.0,-3.0,62.0,1645447455.25,P19,D01,0,0,0
1909,-7.0,-3.0,62.0,1645447455.28125,P19,D01,0,0,0
1910,-7.0,-3.0,62.0,1645447455.3125,P19,D01,0,0,0
1911,-6.0,-3.0,62.0,1645447455.34375,P19,D01,0,0,0
1912,-7.0,-3.0,62.0,1645447455.375,P19,D01,0,0,0
1913,-7.0,-3.0,62.0,1645447455.40625,P19,D01,0,0,0
1914,-7.0,-3.0,62.0,1645447455.4375,P19,D01,0,0,0
1915,-7.0,-3.0,62.0,1645447455.46875,P19,D01,0,0,0
1916,-7.0,-3.0,62.0,1645447455.5,P19,D01,0,0,0
1917,-6.0,-3.0,62.0,1645447455.53125,P19,D01,0,0,0
1918,-6.0,-3.0,62.0,1645447455.5625,P19,D01,0,0,0
1919,-7.0,-3.0,62.0,1645447455.59375,P19,D01,0,0,0
1920,-7.0,-3.0,62.0,1645447455.625,P19,D01,0,0,0
1921,-7.0,-3.0,62.0,1645447455.65625,P19,D01,0,0,0
1922,-7.0,-3.0,62.0,1645447455.6875,P19,D01,0,0,0
1923,-8.0,-3.0,62.0,1645447455.71875,P19,D01,0,0,0
1924,-7.0,-3.0,62.0,1645447455.75,P19,D01,0,0,0
1925,-6.0,-3.0,62.0,1645447455.78125,P19,D01,0,0,0
1926,-6.0,-3.0,62.0,1645447455.8125,P19,D01,0,0,0
1927,-7.0,-3.0,62.0,1645447455.84375,P19,D01,0,0,0
1928,-8.0,-4.0,62.0,1645447455.875,P19,D01,0,0,0
1929,-8.0,-3.0,62.0,1645447455.90625,P19,D01,0,0,0
1930,-7.0,-3.0,62.0,1645447455.9375,P19,D01,0,0,0
1931,-9.0,-3.0,62.0,1645447455.96875,P19,D01,0,0,0
1932,-8.0,-3.0,61.0,1645447456.0,P19,D01,0,0,0
1933,-6.0,-3.0,62.0,1645447456.03125,P19,D01,0,0,0
1934,-7.0,-4.0,62.0,1645447456.0625,P19,D01,0,0,0
1935,-8.0,-3.0,62.0,1645447456.09375,P19,D01,0,0,0
1936,-7.0,-3.0,62.0,1645447456.125,P19,D01,0,0,0
1937,-7.0,-4.0,62.0,1645447456.15625,P19,D01,0,0,0
1938,-8.0,-3.0,62.0,1645447456.1875,P19,D01,0,0,0
1939,-8.0,-3.0,62.0,1645447456.21875,P19,D01,0,0,0
1940,-7.0,-3.0,62.0,1645447456.25,P19,D01,0,0,0
1941,-7.0,-3.0,62.0,1645447456.28125,P19,D01,0,0,0
1942,-7.0,-3.0,62.0,1645447456.3125,P19,D01,0,0,0
1943,-8.0,-4.0,62.0,1645447456.34375,P19,D01,0,0,0
1944,-7.0,-4.0,62.0,1645447456.375,P19,D01,0,0,0
1945,-7.0,-3.0,62.0,1645447456.40625,P19,D01,0,0,0
1946,-7.0,-3.0,62.0,1645447456.4375,P19,D01,0,0,0
1947,-7.0,-4.0,62.0,1645447456.46875,P19,D01,0,0,0
1948,-7.0,-4.0,62.0,1645447456.5,P19,D01,0,0,0
1949,-7.0,-3.0,62.0,1645447456.53125,P19,D01,0,0,0
1950,-8.0,-4.0,62.0,1645447456.5625,P19,D01,0,0,0
1951,-8.0,-3.0,62.0,1645447456.59375,P19,D01,0,0,0
1952,-6.0,-4.0,62.0,1645447456.625,P19,D01,0,0,0
1953,-7.0,-4.0,62.0,1645447456.65625,P19,D01,0,0,0
1954,-8.0,-4.0,62.0,1645447456.6875,P19,D01,0,0,0
1955,-7.0,-4.0,62.0,1645447456.71875,P19,D01,0,0,0
1956,-8.0,-3.0,62.0,1645447456.75,P19,D01,0,0,0
1957,-7.0,-4.0,62.0,1645447456.78125,P19,D01,0,0,0
1958,-8.0,-4.0,62.0,1645447456.8125,P19,D01,0,0,0
1959,-7.0,-4.0,62.0,1645447456.84375,P19,D01,0,0,0
1960,-7.0,-4.0,62.0,1645447456.875,P19,D01,0,0,0
1961,-7.0,-4.0,62.0,1645447456.90625,P19,D01,0,0,0
1962,-7.0,-4.0,62.0,1645447456.9375,P19,D01,0,0,0
1963,-7.0,-4.0,62.0,1645447456.96875,P19,D01,0,0,0
1964,-7.0,-4.0,62.0,1645447457.0,P19,D01,0,0,0
1965,-7.0,-4.0,62.0,1645447457.03125,P19,D01,0,0,0
1966,-7.0,-4.0,62.0,1645447457.0625,P19,D01,0,0,0
1967,-7.0,-4.0,62.0,1645447457.09375,P19,D01,0,0,0
1968,-8.0,-4.0,62.0,1645447457.125,P19,D01,0,0,0
1969,-8.0,-4.0,62.0,1645447457.15625,P19,D01,0,0,0
1970,-7.0,-4.0,62.0,1645447457.1875,P19,D01,0,0,0
1971,-8.0,-4.0,62.0,1645447457.21875,P19,D01,0,0,0
1972,-7.0,-4.0,62.0,1645447457.25,P19,D01,0,0,0
1973,-7.0,-4.0,62.0,1645447457.28125,P19,D01,0,0,0
1974,-7.0,-4.0,62.0,1645447457.3125,P19,D01,0,0,0
1975,-7.0,-4.0,62.0,1645447457.34375,P19,D01,0,0,0
1976,-7.0,-3.0,62.0,1645447457.375,P19,D01,0,0,0
1977,-7.0,-4.0,62.0,1645447457.40625,P19,D01,0,0,0
1978,-7.0,-4.0,62.0,1645447457.4375,P19,D01,0,0,0
1979,-7.0,-4.0,62.0,1645447457.46875,P19,D01,0,0,0
1980,-7.0,-4.0,62.0,1645447457.5,P19,D01,0,0,0
1981,-8.0,-4.0,62.0,1645447457.53125,P19,D01,0,0,0
1982,-7.0,-4.0,62.0,1645447457.5625,P19,D01,0,0,0
1983,-7.0,-4.0,62.0,1645447457.59375,P19,D01,0,0,0
1984,-7.0,-4.0,62.0,1645447457.625,P19,D01,0,0,0
1985,-7.0,-4.0,62.0,1645447457.65625,P19,D01,0,0,0
1986,-7.0,-4.0,62.0,1645447457.6875,P19,D01,0,0,0
1987,-7.0,-4.0,62.0,1645447457.71875,P19,D01,0,0,0
1988,-7.0,-4.0,62.0,1645447457.75,P19,D01,0,0,0
1989,-8.0,-4.0,62.0,1645447457.78125,P19,D01,0,0,0
1990,-7.0,-4.0,62.0,1645447457.8125,P19,D01,0,0,0
1991,-7.0,-4.0,62.0,1645447457.84375,P19,D01,0,0,0
1992,-7.0,-4.0,62.0,1645447457.875,P19,D01,0,0,0
1993,-7.0,-4.0,62.0,1645447457.90625,P19,D01,0,0,0
1994,-7.0,-4.0,62.0,1645447457.9375,P19,D01,0,0,0
1995,-7.0,-4.0,62.0,1645447457.96875,P19,D01,0,0,0
1996,-7.0,-4.0,62.0,1645447458.0,P19,D01,0,0,0
1997,-7.0,-4.0,62.0,1645447458.03125,P19,D01,0,0,0
1998,-7.0,-4.0,62.0,1645447458.0625,P19,D01,0,0,0
1999,-7.0,-4.0,62.0,1645447458.09375,P19,D01,0,0,0
2000,-7.0,-4.0,62.0,1645447458.125,P19,D01,0,0,0
2001,-7.0,-4.0,62.0,1645447458.15625,P19,D01,0,0,0
2002,-7.0,-4.0,62.0,1645447458.1875,P19,D01,0,0,0
2003,-7.0,-4.0,62.0,1645447458.21875,P19,D01,0,0,0
2004,-7.0,-4.0,62.0,1645447458.25,P19,D01,0,0,0
2005,-7.0,-4.0,62.0,1645447458.28125,P19,D01,0,0,0
2006,-7.0,-4.0,62.0,1645447458.3125,P19,D01,0,0,0
2007,-7.0,-4.0,62.0,1645447458.34375,P19,D01,0,0,0
2008,-7.0,-4.0,62.0,1645447458.375,P19,D01,0,0,0
2009,-7.0,-4.0,62.0,1645447458.40625,P19,D01,0,0,0
2010,-7.0,-4.0,62.0,1645447458.4375,P19,D01,0,0,0
2011,-7.0,-4.0,62.0,1645447458.46875,P19,D01,0,0,0
2012,-7.0,-4.0,62.0,1645447458.5,P19,D01,0,0,0
2013,-7.0,-4.0,62.0,1645447458.53125,P19,D01,0,0,0
2014,-8.0,-4.0,62.0,1645447458.5625,P19,D01,0,0,0
2015,-8.0,-4.0,62.0,1645447458.59375,P19,D01,0,0,0
2016,-7.0,-4.0,62.0,1645447458.625,P19,D01,0,0,0
2017,-7.0,-4.0,62.0,1645447458.65625,P19,D01,0,0,0
2018,-7.0,-4.0,62.0,1645447458.6875,P19,D01,0,0,0
2019,-7.0,-4.0,62.0,1645447458.71875,P19,D01,0,0,0
2020,-7.0,-4.0,62.0,1645447458.75,P19,D01,0,0,0
2021,-7.0,-4.0,62.0,1645447458.78125,P19,D01,0,0,0
2022,-8.0,-4.0,62.0,1645447458.8125,P19,D01,0,0,0
2023,-7.0,-4.0,62.0,1645447458.84375,P19,D01,0,0,0
2024,-7.0,-4.0,62.0,1645447458.875,P19,D01,0,0,0
2025,-7.0,-4.0,62.0,1645447458.90625,P19,D01,0,0,0
2026,-8.0,-4.0,62.0,1645447458.9375,P19,D01,0,0,0
2027,-7.0,-4.0,62.0,1645447458.96875,P19,D01,0,0,0
2028,-6.0,-4.0,62.0,1645447459.0,P19,D01,0,0,0
2029,-7.0,-4.0,62.0,1645447459.03125,P19,D01,0,0,0
2030,-8.0,-4.0,62.0,1645447459.0625,P19,D01,0,0,0
2031,-7.0,-4.0,62.0,1645447459.09375,P19,D01,0,0,0
2032,-7.0,-4.0,62.0,1645447459.125,P19,D01,0,0,0
2033,-7.0,-4.0,62.0,1645447459.15625,P19,D01,0,0,0
2034,-8.0,-4.0,62.0,1645447459.1875,P19,D01,0,0,0
2035,-8.0,-4.0,62.0,1645447459.21875,P19,D01,0,0,0
2036,-7.0,-4.0,62.0,1645447459.25,P19,D01,0,0,0
2037,-7.0,-4.0,62.0,1645447459.28125,P19,D01,0,0,0
2038,-8.0,-4.0,62.0,1645447459.3125,P19,D01,0,0,0
2039,-7.0,-4.0,62.0,1645447459.34375,P19,D01,0,0,0
2040,-7.0,-4.0,62.0,1645447459.375,P19,D01,0,0,0
2041,-7.0,-4.0,62.0,1645447459.40625,P19,D01,0,0,0
2042,-7.0,-4.0,62.0,1645447459.4375,P19,D01,0,0,0
2043,-8.0,-4.0,62.0,1645447459.46875,P19,D01,0,0,0
2044,-8.0,-4.0,62.0,1645447459.5,P19,D01,0,0,0
2045,-7.0,-4.0,62.0,1645447459.53125,P19,D01,0,0,0
2046,-7.0,-4.0,62.0,1645447459.5625,P19,D01,0,0,0
2047,-7.0,-4.0,62.0,1645447459.59375,P19,D01,0,0,0
2048,-8.0,-4.0,62.0,1645447459.625,P19,D01,0,0,0
2049,-7.0,-4.0,62.0,1645447459.65625,P19,D01,0,0,0
2050,-6.0,-4.0,62.0,1645447459.6875,P19,D01,0,0,0
2051,-7.0,-4.0,62.0,1645447459.71875,P19,D01,0,0,0
2052,-7.0,-4.0,62.0,1645447459.75,P19,D01,0,0,0
2053,-7.0,-4.0,62.0,1645447459.78125,P19,D01,0,0,0
2054,-8.0,-4.0,62.0,1645447459.8125,P19,D01,0,0,0
2055,-7.0,-4.0,62.0,1645447459.84375,P19,D01,0,0,0
2056,-7.0,-4.0,62.0,1645447459.875,P19,D01,0,0,0
2057,-7.0,-4.0,62.0,1645447459.90625,P19,D01,0,0,0
2058,-7.0,-4.0,62.0,1645447459.9375,P19,D01,0,0,0
2059,-7.0,-4.0,62.0,1645447459.96875,P19,D01,0,0,0
2060,-7.0,-4.0,62.0,1645447460.0,P19,D01,0,0,0
2061,-7.0,-4.0,62.0,1645447460.03125,P19,D01,0,0,0
2062,-7.0,-4.0,62.0,1645447460.0625,P19,D01,0,0,0
2063,-7.0,-4.0,62.0,1645447460.09375,P19,D01,0,0,0
2064,-7.0,-4.0,62.0,1645447460.125,P19,D01,0,0,0
2065,-7.0,-4.0,62.0,1645447460.15625,P19,D01,0,0,0
2066,-7.0,-4.0,62.0,1645447460.1875,P19,D01,0,0,0
2067,-7.0,-4.0,62.0,1645447460.21875,P19,D01,0,0,0
2068,-7.0,-4.0,62.0,1645447460.25,P19,D01,0,0,0
2069,-7.0,-4.0,62.0,1645447460.28125,P19,D01,0,0,0
2070,-7.0,-4.0,62.0,1645447460.3125,P19,D01,0,0,0
2071,-7.0,-4.0,62.0,1645447460.34375,P19,D01,0,0,0
2072,-7.0,-4.0,62.0,1645447460.375,P19,D01,0,0,0
2073,-8.0,-4.0,62.0,1645447460.40625,P19,D01,0,0,0
2074,-7.0,-4.0,62.0,1645447460.4375,P19,D01,0,0,0
2075,-7.0,-4.0,62.0,1645447460.46875,P19,D01,0,0,0
2076,-7.0,-4.0,62.0,1645447460.5,P19,D01,0,0,0
2077,-6.0,-5.0,62.0,1645447460.53125,P19,D01,0,0,0
2078,-8.0,-4.0,61.0,1645447460.5625,P19,D01,0,0,0
2079,-9.0,-4.0,61.0,1645447460.59375,P19,D01,0,0,0
2080,-7.0,-4.0,62.0,1645447460.625,P19,D01,0,0,0
2081,-8.0,-4.0,62.0,1645447460.65625,P19,D01,0,0,0
2082,-7.0,-4.0,62.0,1645447460.6875,P19,D01,0,0,0
2083,-7.0,-4.0,62.0,1645447460.71875,P19,D01,0,0,0
2084,-8.0,-4.0,62.0,1645447460.75,P19,D01,0,0,0
2085,-8.0,-4.0,62.0,1645447460.78125,P19,D01,0,0,0
2086,-7.0,-4.0,62.0,1645447460.8125,P19,D01,0,0,0
2087,-8.0,-4.0,62.0,1645447460.84375,P19,D01,0,0,0
2088,-7.0,-4.0,62.0,1645447460.875,P19,D01,0,0,0
2089,-7.0,-4.0,62.0,1645447460.90625,P19,D01,0,0,0
2090,-7.0,-4.0,62.0,1645447460.9375,P19,D01,0,0,0
2091,-7.0,-4.0,62.0,1645447460.96875,P19,D01,0,0,0
2092,-7.0,-4.0,62.0,1645447461.0,P19,D01,0,0,0
2093,-7.0,-4.0,62.0,1645447461.03125,P19,D01,0,0,0
2094,-7.0,-4.0,62.0,1645447461.0625,P19,D01,0,0,0
2095,-7.0,-4.0,62.0,1645447461.09375,P19,D01,0,0,0
2096,-7.0,-4.0,62.0,1645447461.125,P19,D01,0,0,0
2097,-7.0,-4.0,62.0,1645447461.15625,P19,D01,0,0,0
2098,-7.0,-4.0,62.0,1645447461.1875,P19,D01,0,0,0
2099,-8.0,-4.0,62.0,1645447461.21875,P19,D01,0,0,0
2100,-7.0,-4.0,62.0,1645447461.25,P19,D01,0,0,0
2101,-7.0,-4.0,62.0,1645447461.28125,P19,D01,0,0,0
2102,-8.0,-4.0,62.0,1645447461.3125,P19,D01,0,0,0
2103,-7.0,-4.0,62.0,1645447461.34375,P19,D01,0,0,0
2104,-7.0,-4.0,62.0,1645447461.375,P19,D01,0,0,0
2105,-7.0,-4.0,62.0,1645447461.40625,P19,D01,0,0,0
2106,-8.0,-4.0,62.0,1645447461.4375,P19,D01,0,0,0
2107,-7.0,-4.0,62.0,1645447461.46875,P19,D01,0,0,0
2108,-6.0,-4.0,62.0,1645447461.5,P19,D01,0,0,0
2109,-8.0,-4.0,62.0,1645447461.53125,P19,D01,0,0,0
2110,-7.0,-4.0,62.0,1645447461.5625,P19,D01,0,0,0
2111,-7.0,-4.0,62.0,1645447461.59375,P19,D01,0,0,0
2112,-7.0,-4.0,62.0,1645447461.625,P19,D01,0,0,0
2113,-7.0,-4.0,62.0,1645447461.65625,P19,D01,0,0,0
2114,-7.0,-4.0,62.0,1645447461.6875,P19,D01,0,0,0
2115,-7.0,-4.0,62.0,1645447461.71875,P19,D01,0,0,0
2116,-7.0,-4.0,62.0,1645447461.75,P19,D01,0,0,0
2117,-7.0,-4.0,62.0,1645447461.78125,P19,D01,0,0,0
2118,-7.0,-4.0,62.0,1645447461.8125,P19,D01,0,0,0
2119,-7.0,-4.0,62.0,1645447461.84375,P19,D01,0,0,0
2120,-7.0,-4.0,62.0,1645447461.875,P19,D01,0,0,0
2121,-7.0,-4.0,62.0,1645447461.90625,P19,D01,0,0,0
2122,-7.0,-4.0,62.0,1645447461.9375,P19,D01,0,0,0
2123,-7.0,-4.0,62.0,1645447461.96875,P19,D01,0,0,0
2124,-7.0,-4.0,62.0,1645447462.0,P19,D01,0,0,0
2125,-8.0,-4.0,62.0,1645447462.03125,P19,D01,0,0,0
2126,-7.0,-4.0,62.0,1645447462.0625,P19,D01,0,0,0
2127,-7.0,-4.0,62.0,1645447462.09375,P19,D01,0,0,0
2128,-8.0,-4.0,62.0,1645447462.125,P19,D01,0,0,0
2129,-7.0,-4.0,62.0,1645447462.15625,P19,D01,0,0,0
2130,-7.0,-4.0,62.0,1645447462.1875,P19,D01,0,0,0
2131,-7.0,-4.0,62.0,1645447462.21875,P19,D01,0,0,0
2132,-7.0,-4.0,62.0,1645447462.25,P19,D01,0,0,0
2133,-7.0,-4.0,62.0,1645447462.28125,P19,D01,0,0,0
2134,-7.0,-4.0,62.0,1645447462.3125,P19,D01,0,0,0
2135,-7.0,-4.0,62.0,1645447462.34375,P19,D01,0,0,0
2136,-7.0,-4.0,62.0,1645447462.375,P19,D01,0,0,0
2137,-7.0,-4.0,62.0,1645447462.40625,P19,D01,0,0,0
2138,-7.0,-4.0,62.0,1645447462.4375,P19,D01,0,0,0
2139,-7.0,-4.0,62.0,1645447462.46875,P19,D01,0,0,0
2140,-7.0,-4.0,62.0,1645447462.5,P19,D01,0,0,0
2141,-7.0,-4.0,62.0,1645447462.53125,P19,D01,0,0,0
2142,-7.0,-4.0,62.0,1645447462.5625,P19,D01,0,0,0
2143,-7.0,-4.0,62.0,1645447462.59375,P19,D01,0,0,0
2144,-7.0,-4.0,62.0,1645447462.625,P19,D01,0,0,0
2145,-7.0,-4.0,62.0,1645447462.65625,P19,D01,0,0,0
2146,-7.0,-4.0,62.0,1645447462.6875,P19,D01,0,0,0
2147,-7.0,-4.0,62.0,1645447462.71875,P19,D01,0,0,0
2148,-7.0,-4.0,62.0,1645447462.75,P19,D01,0,0,0
2149,-7.0,-4.0,62.0,1645447462.78125,P19,D01,0,0,0
2150,-7.0,-4.0,62.0,1645447462.8125,P19,D01,0,0,0
2151,-7.0,-4.0,62.0,1645447462.84375,P19,D01,0,0,0
2152,-7.0,-4.0,62.0,1645447462.875,P19,D01,0,0,0
2153,-7.0,-4.0,62.0,1645447462.90625,P19,D01,0,0,0
2154,-7.0,-4.0,62.0,1645447462.9375,P19,D01,0,0,0
2155,-7.0,-4.0,62.0,1645447462.96875,P19,D01,0,0,0
2156,-7.0,-4.0,62.0,1645447463.0,P19,D01,0,0,0
2157,-7.0,-4.0,62.0,1645447463.03125,P19,D01,0,0,0
2158,-7.0,-4.0,62.0,1645447463.0625,P19,D01,0,0,0
2159,-7.0,-4.0,62.0,1645447463.09375,P19,D01,0,0,0
2160,-7.0,-4.0,62.0,1645447463.125,P19,D01,0,0,0
2161,-7.0,-4.0,62.0,1645447463.15625,P19,D01,0,0,0
2162,-7.0,-4.0,62.0,1645447463.1875,P19,D01,0,0,0
2163,-8.0,-4.0,62.0,1645447463.21875,P19,D01,0,0,0
2164,-7.0,-4.0,62.0,1645447463.25,P19,D01,0,0,0
2165,-7.0,-4.0,62.0,1645447463.28125,P19,D01,0,0,0
2166,-7.0,-4.0,62.0,1645447463.3125,P19,D01,0,0,0
2167,-7.0,-4.0,62.0,1645447463.34375,P19,D01,0,0,0
2168,-7.0,-4.0,62.0,1645447463.375,P19,D01,0,0,0
2169,-7.0,-4.0,62.0,1645447463.40625,P19,D01,0,0,0
2170,-7.0,-4.0,62.0,1645447463.4375,P19,D01,0,0,0
2171,-7.0,-4.0,62.0,1645447463.46875,P19,D01,0,0,0
2172,-7.0,-4.0,62.0,1645447463.5,P19,D01,0,0,0
2173,-7.0,-4.0,62.0,1645447463.53125,P19,D01,0,0,0
2174,-7.0,-4.0,62.0,1645447463.5625,P19,D01,0,0,0
2175,-7.0,-4.0,62.0,1645447463.59375,P19,D01,0,0,0
2176,-7.0,-4.0,62.0,1645447463.625,P19,D01,0,0,0
2177,-7.0,-4.0,62.0,1645447463.65625,P19,D01,0,0,0
2178,-7.0,-4.0,62.0,1645447463.6875,P19,D01,0,0,0
2179,-7.0,-4.0,62.0,1645447463.71875,P19,D01,0,0,0
2180,-7.0,-4.0,62.0,1645447463.75,P19,D01,0,0,0
2181,-7.0,-4.0,62.0,1645447463.78125,P19,D01,0,0,0
2182,-7.0,-4.0,62.0,1645447463.8125,P19,D01,0,0,0
2183,-8.0,-4.0,62.0,1645447463.84375,P19,D01,0,0,0
2184,-8.0,-4.0,62.0,1645447463.875,P19,D01,0,0,0
2185,-7.0,-4.0,62.0,1645447463.90625,P19,D01,0,0,0
2186,-7.0,-4.0,62.0,1645447463.9375,P19,D01,0,0,0
2187,-8.0,-4.0,62.0,1645447463.96875,P19,D01,0,0,0
2188,-7.0,-4.0,62.0,1645447464.0,P19,D01,0,0,0
2189,-7.0,-4.0,62.0,1645447464.03125,P19,D01,0,0,0
2190,-8.0,-4.0,62.0,1645447464.0625,P19,D01,0,0,0
2191,-7.0,-4.0,62.0,1645447464.09375,P19,D01,0,0,0
2192,-7.0,-4.0,62.0,1645447464.125,P19,D01,0,0,0
2193,-7.0,-4.0,62.0,1645447464.15625,P19,D01,0,0,0
2194,-7.0,-4.0,62.0,1645447464.1875,P19,D01,0,0,0
2195,-7.0,-4.0,62.0,1645447464.21875,P19,D01,0,0,0
2196,-8.0,-4.0,62.0,1645447464.25,P19,D01,0,0,0
2197,-7.0,-4.0,62.0,1645447464.28125,P19,D01,0,0,0
2198,-7.0,-4.0,62.0,1645447464.3125,P19,D01,0,0,0
2199,-7.0,-4.0,62.0,1645447464.34375,P19,D01,0,0,0
2200,-8.0,-4.0,62.0,1645447464.375,P19,D01,0,0,0
2201,-7.0,-4.0,62.0,1645447464.40625,P19,D01,0,0,0
2202,-7.0,-4.0,62.0,1645447464.4375,P19,D01,0,0,0
2203,-7.0,-4.0,62.0,1645447464.46875,P19,D01,0,0,0
2204,-7.0,-4.0,62.0,1645447464.5,P19,D01,0,0,0
2205,-7.0,-4.0,62.0,1645447464.53125,P19,D01,0,0,0
2206,-7.0,-4.0,62.0,1645447464.5625,P19,D01,0,0,0
2207,-7.0,-4.0,62.0,1645447464.59375,P19,D01,0,0,0
2208,-7.0,-4.0,62.0,1645447464.625,P19,D01,0,0,0
2209,-7.0,-4.0,62.0,1645447464.65625,P19,D01,0,0,0
2210,-7.0,-4.0,62.0,1645447464.6875,P19,D01,0,0,0
2211,-7.0,-4.0,62.0,1645447464.71875,P19,D01,0,0,0
2212,-7.0,-4.0,62.0,1645447464.75,P19,D01,0,0,0
2213,-7.0,-4.0,62.0,1645447464.78125,P19,D01,0,0,0
2214,-7.0,-4.0,62.0,1645447464.8125,P19,D01,0,0,0
2215,-8.0,-4.0,62.0,1645447464.84375,P19,D01,0,0,0
2216,-7.0,-4.0,62.0,1645447464.875,P19,D01,0,0,0
2217,-7.0,-4.0,62.0,1645447464.90625,P19,D01,0,0,0
2218,-7.0,-4.0,62.0,1645447464.9375,P19,D01,0,0,0
2219,-7.0,-4.0,62.0,1645447464.96875,P19,D01,0,0,0
2220,-7.0,-4.0,62.0,1645447465.0,P19,D01,0,0,0
2221,-7.0,-4.0,62.0,1645447465.03125,P19,D01,0,0,0
2222,-7.0,-4.0,62.0,1645447465.0625,P19,D01,0,0,0
2223,-7.0,-4.0,62.0,1645447465.09375,P19,D01,0,0,0
2224,-7.0,-4.0,62.0,1645447465.125,P19,D01,0,0,0
2225,-7.0,-4.0,62.0,1645447465.15625,P19,D01,0,0,0
2226,-7.0,-4.0,62.0,1645447465.1875,P19,D01,0,0,0
2227,-8.0,-4.0,62.0,1645447465.21875,P19,D01,0,0,0
2228,-7.0,-4.0,62.0,1645447465.25,P19,D01,0,0,0
2229,-7.0,-4.0,62.0,1645447465.28125,P19,D01,0,0,0
2230,-8.0,-4.0,62.0,1645447465.3125,P19,D01,0,0,0
2231,-7.0,-4.0,62.0,1645447465.34375,P19,D01,0,0,0
2232,-7.0,-4.0,62.0,1645447465.375,P19,D01,0,0,0
2233,-7.0,-4.0,62.0,1645447465.40625,P19,D01,0,0,0
2234,-7.0,-4.0,62.0,1645447465.4375,P19,D01,0,0,0
2235,-7.0,-4.0,62.0,1645447465.46875,P19,D01,0,0,0
2236,-7.0,-4.0,62.0,1645447465.5,P19,D01,0,0,0
2237,-7.0,-4.0,62.0,1645447465.53125,P19,D01,0,0,0
2238,-7.0,-4.0,62.0,1645447465.5625,P19,D01,0,0,0
2239,-7.0,-4.0,62.0,1645447465.59375,P19,D01,0,0,0
2240,-7.0,-4.0,62.0,1645447465.625,P19,D01,0,0,0
2241,-7.0,-4.0,62.0,1645447465.65625,P19,D01,0,0,0
2242,-7.0,-4.0,62.0,1645447465.6875,P19,D01,0,0,0
2243,-7.0,-4.0,62.0,1645447465.71875,P19,D01,0,0,0
2244,-7.0,-4.0,62.0,1645447465.75,P19,D01,0,0,0
2245,-7.0,-4.0,62.0,1645447465.78125,P19,D01,0,0,0
2246,-7.0,-4.0,62.0,1645447465.8125,P19,D01,0,0,0
2247,-7.0,-4.0,62.0,1645447465.84375,P19,D01,0,0,0
2248,-7.0,-4.0,62.0,1645447465.875,P19,D01,0,0,0
2249,-7.0,-4.0,62.0,1645447465.90625,P19,D01,0,0,0
2250,-7.0,-4.0,62.0,1645447465.9375,P19,D01,0,0,0
2251,-7.0,-4.0,62.0,1645447465.96875,P19,D01,0,0,0
2252,-7.0,-4.0,62.0,1645447466.0,P19,D01,0,0,0
2253,-7.0,-4.0,62.0,1645447466.03125,P19,D01,0,0,0
2254,-7.0,-4.0,62.0,1645447466.0625,P19,D01,0,0,0
2255,-7.0,-4.0,62.0,1645447466.09375,P19,D01,0,0,0
2256,-7.0,-4.0,62.0,1645447466.125,P19,D01,0,0,0
2257,-8.0,-4.0,62.0,1645447466.15625,P19,D01,0,0,0
2258,-7.0,-4.0,62.0,1645447466.1875,P19,D01,0,0,0
2259,-7.0,-4.0,62.0,1645447466.21875,P19,D01,0,0,0
2260,-8.0,-4.0,62.0,1645447466.25,P19,D01,0,0,0
2261,-8.0,-4.0,62.0,1645447466.28125,P19,D01,0,0,0
2262,-7.0,-4.0,62.0,1645447466.3125,P19,D01,0,0,0
2263,-7.0,-4.0,62.0,1645447466.34375,P19,D01,0,0,0
2264,-7.0,-4.0,62.0,1645447466.375,P19,D01,0,0,0
2265,-7.0,-4.0,62.0,1645447466.40625,P19,D01,0,0,0
2266,-7.0,-4.0,62.0,1645447466.4375,P19,D01,0,0,0
2267,-7.0,-4.0,62.0,1645447466.46875,P19,D01,0,0,0
2268,-7.0,-4.0,62.0,1645447466.5,P19,D01,0,0,0
2269,-7.0,-4.0,62.0,1645447466.53125,P19,D01,0,0,0
2270,-7.0,-4.0,62.0,1645447466.5625,P19,D01,0,0,0
2271,-7.0,-4.0,62.0,1645447466.59375,P19,D01,0,0,0
2272,-7.0,-4.0,62.0,1645447466.625,P19,D01,0,0,0
2273,-8.0,-4.0,62.0,1645447466.65625,P19,D01,0,0,0
2274,-7.0,-4.0,62.0,1645447466.6875,P19,D01,0,0,0
2275,-7.0,-4.0,62.0,1645447466.71875,P19,D01,0,0,0
2276,-7.0,-4.0,62.0,1645447466.75,P19,D01,0,0,0
2277,-7.0,-4.0,62.0,1645447466.78125,P19,D01,0,0,0
2278,-7.0,-4.0,62.0,1645447466.8125,P19,D01,0,0,0
2279,-7.0,-4.0,62.0,1645447466.84375,P19,D01,0,0,0
2280,-7.0,-4.0,62.0,1645447466.875,P19,D01,0,0,0
2281,-7.0,-4.0,62.0,1645447466.90625,P19,D01,0,0,0
2282,-7.0,-4.0,62.0,1645447466.9375,P19,D01,0,0,0
2283,-7.0,-4.0,62.0,1645447466.96875,P19,D01,0,0,0
2284,-7.0,-4.0,62.0,1645447467.0,P19,D01,0,0,0
2285,-7.0,-4.0,62.0,1645447467.03125,P19,D01,0,0,0
2286,-7.0,-4.0,62.0,1645447467.0625,P19,D01,0,0,0
2287,-8.0,-4.0,62.0,1645447467.09375,P19,D01,0,0,0
2288,-7.0,-4.0,62.0,1645447467.125,P19,D01,0,0,0
2289,-7.0,-4.0,62.0,1645447467.15625,P19,D01,0,0,0
2290,-8.0,-4.0,62.0,1645447467.1875,P19,D01,0,0,0
2291,-8.0,-4.0,62.0,1645447467.21875,P19,D01,0,0,0
2292,-7.0,-4.0,62.0,1645447467.25,P19,D01,0,0,0
2293,-7.0,-4.0,62.0,1645447467.28125,P19,D01,0,0,0
2294,-7.0,-4.0,62.0,1645447467.3125,P19,D01,0,0,0
2295,-6.0,-4.0,62.0,1645447467.34375,P19,D01,0,0,0
2296,-7.0,-4.0,62.0,1645447467.375,P19,D01,0,0,0
2297,-8.0,-4.0,62.0,1645447467.40625,P19,D01,0,0,0
2298,-8.0,-4.0,62.0,1645447467.4375,P19,D01,0,0,0
2299,-7.0,-4.0,62.0,1645447467.46875,P19,D01,0,0,0
2300,-7.0,-4.0,62.0,1645447467.5,P19,D01,0,0,0
2301,-7.0,-4.0,62.0,1645447467.53125,P19,D01,0,0,0
2302,-7.0,-4.0,62.0,1645447467.5625,P19,D01,0,0,0
2303,-7.0,-4.0,62.0,1645447467.59375,P19,D01,0,0,0
2304,-7.0,-4.0,62.0,1645447467.625,P19,D01,0,0,0
2305,-8.0,-4.0,62.0,1645447467.65625,P19,D01,0,0,0
2306,-7.0,-4.0,62.0,1645447467.6875,P19,D01,0,0,0
2307,-7.0,-4.0,62.0,1645447467.71875,P19,D01,0,0,0
2308,-7.0,-4.0,62.0,1645447467.75,P19,D01,0,0,0
2309,-8.0,-4.0,62.0,1645447467.78125,P19,D01,0,0,0
2310,-7.0,-4.0,62.0,1645447467.8125,P19,D01,0,0,0
2311,-6.0,-4.0,62.0,1645447467.84375,P19,D01,0,0,0
2312,-8.0,-4.0,61.0,1645447467.875,P19,D01,0,0,0
2313,-8.0,-4.0,62.0,1645447467.90625,P19,D01,0,0,0
2314,-7.0,-4.0,62.0,1645447467.9375,P19,D01,0,0,0
2315,-7.0,-4.0,62.0,1645447467.96875,P19,D01,0,0,0
2316,-7.0,-4.0,62.0,1645447468.0,P19,D01,0,0,0
2317,-7.0,-4.0,62.0,1645447468.03125,P19,D01,0,0,0
2318,-7.0,-4.0,62.0,1645447468.0625,P19,D01,0,0,0
2319,-7.0,-4.0,62.0,1645447468.09375,P19,D01,0,0,0
2320,-7.0,-4.0,62.0,1645447468.125,P19,D01,0,0,0
2321,-7.0,-4.0,62.0,1645447468.15625,P19,D01,0,0,0
2322,-7.0,-4.0,62.0,1645447468.1875,P19,D01,0,0,0
2323,-8.0,-4.0,62.0,1645447468.21875,P19,D01,0,0,0
2324,-7.0,-4.0,62.0,1645447468.25,P19,D01,0,0,0
2325,-7.0,-4.0,62.0,1645447468.28125,P19,D01,0,0,0
2326,-7.0,-4.0,62.0,1645447468.3125,P19,D01,0,0,0
2327,-7.0,-4.0,62.0,1645447468.34375,P19,D01,0,0,0
2328,-7.0,-4.0,62.0,1645447468.375,P19,D01,0,0,0
2329,-7.0,-4.0,62.0,1645447468.40625,P19,D01,0,0,0
2330,-7.0,-4.0,62.0,1645447468.4375,P19,D01,0,0,0
2331,-7.0,-4.0,62.0,1645447468.46875,P19,D01,0,0,0
2332,-7.0,-4.0,62.0,1645447468.5,P19,D01,0,0,0
2333,-7.0,-4.0,62.0,1645447468.53125,P19,D01,0,0,0
2334,-7.0,-4.0,62.0,1645447468.5625,P19,D01,0,0,0
2335,-7.0,-4.0,62.0,1645447468.59375,P19,D01,0,0,0
2336,-7.0,-4.0,62.0,1645447468.625,P19,D01,0,0,0
2337,-7.0,-4.0,62.0,1645447468.65625,P19,D01,0,0,0
2338,-7.0,-4.0,62.0,1645447468.6875,P19,D01,0,0,0
2339,-7.0,-4.0,62.0,1645447468.71875,P19,D01,0,0,0
2340,-7.0,-4.0,62.0,1645447468.75,P19,D01,0,0,0
2341,-7.0,-4.0,62.0,1645447468.78125,P19,D01,0,0,0
2342,-7.0,-4.0,62.0,1645447468.8125,P19,D01,0,0,0
2343,-7.0,-4.0,62.0,1645447468.84375,P19,D01,0,0,0
2344,-7.0,-4.0,62.0,1645447468.875,P19,D01,0,0,0
2345,-8.0,-4.0,62.0,1645447468.90625,P19,D01,0,0,0
2346,-8.0,-4.0,62.0,1645447468.9375,P19,D01,0,0,0
2347,-7.0,-4.0,62.0,1645447468.96875,P19,D01,0,0,0
2348,-7.0,-4.0,62.0,1645447469.0,P19,D01,0,0,0
2349,-7.0,-4.0,62.0,1645447469.03125,P19,D01,0,0,0
2350,-7.0,-4.0,62.0,1645447469.0625,P19,D01,0,0,0
2351,-7.0,-4.0,62.0,1645447469.09375,P19,D01,0,0,0
2352,-8.0,-4.0,62.0,1645447469.125,P19,D01,0,0,0
2353,-7.0,-4.0,62.0,1645447469.15625,P19,D01,0,0,0
2354,-7.0,-4.0,62.0,1645447469.1875,P19,D01,0,0,0
2355,-7.0,-4.0,62.0,1645447469.21875,P19,D01,0,0,0
2356,-7.0,-4.0,62.0,1645447469.25,P19,D01,0,0,0
2357,-7.0,-4.0,62.0,1645447469.28125,P19,D01,0,0,0
2358,-7.0,-4.0,62.0,1645447469.3125,P19,D01,0,0,0
2359,-8.0,-4.0,62.0,1645447469.34375,P19,D01,0,0,0
2360,-8.0,-4.0,62.0,1645447469.375,P19,D01,0,0,0
2361,-7.0,-4.0,62.0,1645447469.40625,P19,D01,0,0,0
2362,-8.0,-4.0,62.0,1645447469.4375,P19,D01,0,0,0
2363,-8.0,-4.0,62.0,1645447469.46875,P19,D01,0,0,0
2364,-7.0,-4.0,62.0,1645447469.5,P19,D01,0,0,0
2365,-8.0,-4.0,62.0,1645447469.53125,P19,D01,0,0,0
2366,-7.0,-4.0,62.0,1645447469.5625,P19,D01,0,0,0
2367,-8.0,-4.0,62.0,1645447469.59375,P19,D01,0,0,0
2368,-8.0,-4.0,62.0,1645447469.625,P19,D01,0,0,0
2369,-6.0,-4.0,62.0,1645447469.65625,P19,D01,0,0,0
2370,-7.0,-4.0,62.0,1645447469.6875,P19,D01,0,0,0
2371,-8.0,-4.0,62.0,1645447469.71875,P19,D01,0,0,0
2372,-6.0,-4.0,62.0,1645447469.75,P19,D01,0,0,0
2373,-8.0,-4.0,62.0,1645447469.78125,P19,D01,0,0,0
2374,-9.0,-4.0,61.0,1645447469.8125,P19,D01,0,0,0
2375,-7.0,-4.0,62.0,1645447469.84375,P19,D01,0,0,0
2376,-6.0,-4.0,62.0,1645447469.875,P19,D01,0,0,0
2377,-7.0,-4.0,62.0,1645447469.90625,P19,D01,0,0,0
2378,-7.0,-4.0,62.0,1645447469.9375,P19,D01,0,0,0
2379,-7.0,-4.0,62.0,1645447469.96875,P19,D01,0,0,0
2380,-7.0,-4.0,62.0,1645447470.0,P19,D01,0,0,0
2381,-7.0,-4.0,62.0,1645447470.03125,P19,D01,0,0,0
2382,-7.0,-3.0,62.0,1645447470.0625,P19,D01,0,0,0
2383,-7.0,-4.0,62.0,1645447470.09375,P19,D01,0,0,0
2384,-7.0,-4.0,62.0,1645447470.125,P19,D01,0,0,0
2385,-8.0,-4.0,62.0,1645447470.15625,P19,D01,0,0,0
2386,-8.0,-4.0,62.0,1645447470.1875,P19,D01,0,0,0
2387,-8.0,-4.0,62.0,1645447470.21875,P19,D01,0,0,0
2388,-7.0,-3.0,62.0,1645447470.25,P19,D01,0,0,0
2389,-8.0,-4.0,62.0,1645447470.28125,P19,D01,0,0,0
2390,-8.0,-4.0,62.0,1645447470.3125,P19,D01,0,0,0
2391,-7.0,-4.0,62.0,1645447470.34375,P19,D01,0,0,0
2392,-6.0,-4.0,62.0,1645447470.375,P19,D01,0,0,0
2393,-8.0,-4.0,62.0,1645447470.40625,P19,D01,0,0,0
2394,-7.0,-4.0,62.0,1645447470.4375,P19,D01,0,0,0
2395,-7.0,-4.0,62.0,1645447470.46875,P19,D01,0,0,0
2396,-8.0,-4.0,62.0,1645447470.5,P19,D01,0,0,0
2397,-7.0,-4.0,62.0,1645447470.53125,P19,D01,0,0,0
2398,-7.0,-4.0,62.0,1645447470.5625,P19,D01,0,0,0
2399,-7.0,-4.0,62.0,1645447470.59375,P19,D01,0,0,0
2400,-9.0,-3.0,62.0,1645447470.625,P19,D01,0,0,0
2401,-5.0,-3.0,62.0,1645447470.65625,P19,D01,0,0,0
2402,-8.0,-4.0,62.0,1645447470.6875,P19,D01,0,0,0
2403,-10.0,-5.0,61.0,1645447470.71875,P19,D01,0,0,0
2404,-4.0,-4.0,62.0,1645447470.75,P19,D01,0,0,0
2405,-8.0,-4.0,62.0,1645447470.78125,P19,D01,0,0,0
2406,-9.0,-4.0,62.0,1645447470.8125,P19,D01,0,0,0
2407,-4.0,-3.0,63.0,1645447470.84375,P19,D01,0,0,0
2408,-7.0,-3.0,62.0,1645447470.875,P19,D01,0,0,0
2409,-9.0,-4.0,61.0,1645447470.90625,P19,D01,0,0,0
2410,-6.0,-4.0,62.0,1645447470.9375,P19,D01,0,0,0
2411,-7.0,-4.0,62.0,1645447470.96875,P19,D01,0,0,0
2412,-8.0,-4.0,62.0,1645447471.0,P19,D01,0,0,0
2413,-6.0,-4.0,62.0,1645447471.03125,P19,D01,0,0,0
2414,-6.0,-4.0,62.0,1645447471.0625,P19,D01,0,0,0
2415,-9.0,-4.0,61.0,1645447471.09375,P19,D01,0,0,0
2416,-8.0,-4.0,62.0,1645447471.125,P19,D01,0,0,0
