,acc_x,acc_y,acc_z,timestamp,participant,document,val,arou,eng
0,59.0,4.0,19.0,1645111919.40625,P12,D12,1,1,1
1,59.0,4.0,19.0,1645111919.4375,P12,D12,1,1,1
2,59.0,4.0,19.0,1645111919.46875,P12,D12,1,1,1
3,59.0,4.0,19.0,1645111919.5,P12,D12,1,1,1
4,59.0,4.0,19.0,1645111919.53125,P12,D12,1,1,1
5,59.0,4.0,19.0,1645111919.5625,P12,D12,1,1,1
6,59.0,4.0,19.0,1645111919.59375,P12,D12,1,1,1
7,59.0,4.0,18.0,1645111919.625,P12,D12,1,1,1
8,59.0,4.0,19.0,1645111919.65625,P12,D12,1,1,1
9,59.0,4.0,19.0,1645111919.6875,P12,D12,1,1,1
10,59.0,4.0,19.0,1645111919.71875,P12,D12,1,1,1
11,59.0,4.0,19.0,1645111919.75,P12,D12,1,1,1
12,59.0,4.0,19.0,1645111919.78125,P12,D12,1,1,1
13,59.0,4.0,19.0,1645111919.8125,P12,D12,1,1,1
14,59.0,4.0,19.0,1645111919.84375,P12,D12,1,1,1
15,59.0,4.0,19.0,1645111919.875,P12,D12,1,1,1
16,59.0,4.0,19.0,1645111919.90625,P12,D12,1,1,1
17,59.0,4.0,19.0,1645111919.9375,P12,D12,1,1,1
18,59.0,4.0,19.0,1645111919.96875,P12,D12,1,1,1
19,59.0,4.0,19.0,1645111920.0,P12,D12,1,1,1
20,59.0,4.0,19.0,1645111920.03125,P12,D12,1,1,1
21,59.0,4.0,19.0,1645111920.0625,P12,D12,1,1,1
22,59.0,5.0,19.0,1645111920.09375,P12,D12,1,1,1
23,59.0,4.0,19.0,1645111920.125,P12,D12,1,1,1
24,59.0,4.0,19.0,1645111920.15625,P12,D12,1,1,1
25,59.0,4.0,19.0,1645111920.1875,P12,D12,1,1,1
26,59.0,4.0,19.0,1645111920.21875,P12,D12,1,1,1
27,59.0,4.0,19.0,1645111920.25,P12,D12,1,1,1
28,59.0,4.0,19.0,1645111920.28125,P12,D12,1,1,1
29,59.0,4.0,19.0,1645111920.3125,P12,D12,1,1,1
30,59.0,4.0,19.0,1645111920.34375,P12,D12,1,1,1
31,60.0,4.0,19.0,1645111920.375,P12,D12,1,1,1
32,59.0,4.0,19.0,1645111920.40625,P12,D12,1,1,1
33,59.0,4.0,19.0,1645111920.4375,P12,D12,1,1,1
34,59.0,4.0,18.0,1645111920.46875,P12,D12,1,1,1
35,59.0,4.0,19.0,1645111920.5,P12,D12,1,1,1
36,59.0,4.0,19.0,1645111920.53125,P12,D12,1,1,1
37,59.0,4.0,19.0,1645111920.5625,P12,D12,1,1,1
38,59.0,4.0,19.0,1645111920.59375,P12,D12,1,1,1
39,59.0,4.0,19.0,1645111920.625,P12,D12,1,1,1
40,59.0,4.0,19.0,1645111920.65625,P12,D12,1,1,1
41,59.0,4.0,19.0,1645111920.6875,P12,D12,1,1,1
42,59.0,4.0,19.0,1645111920.71875,P12,D12,1,1,1
43,59.0,4.0,19.0,1645111920.75,P12,D12,1,1,1
44,59.0,4.0,19.0,1645111920.78125,P12,D12,1,1,1
45,59.0,4.0,18.0,1645111920.8125,P12,D12,1,1,1
46,59.0,4.0,19.0,1645111920.84375,P12,D12,1,1,1
47,59.0,4.0,19.0,1645111920.875,P12,D12,1,1,1
48,59.0,4.0,19.0,1645111920.90625,P12,D12,1,1,1
49,59.0,4.0,19.0,1645111920.9375,P12,D12,1,1,1
50,59.0,4.0,19.0,1645111920.96875,P12,D12,1,1,1
51,59.0,4.0,19.0,1645111921.0,P12,D12,1,1,1
52,59.0,4.0,19.0,1645111921.03125,P12,D12,1,1,1
53,59.0,4.0,19.0,1645111921.0625,P12,D12,1,1,1
54,59.0,4.0,19.0,1645111921.09375,P12,D12,1,1,1
55,59.0,4.0,19.0,1645111921.125,P12,D12,1,1,1
56,59.0,4.0,19.0,1645111921.15625,P12,D12,1,1,1
57,59.0,4.0,19.0,1645111921.1875,P12,D12,1,1,1
58,59.0,4.0,18.0,1645111921.21875,P12,D12,1,1,1
59,59.0,4.0,19.0,1645111921.25,P12,D12,1,1,1
60,59.0,4.0,19.0,1645111921.28125,P12,D12,1,1,1
61,59.0,4.0,19.0,1645111921.3125,P12,D12,1,1,1
62,59.0,4.0,18.0,1645111921.34375,P12,D12,1,1,1
63,59.0,4.0,19.0,1645111921.375,P12,D12,1,1,1
64,59.0,4.0,19.0,1645111921.40625,P12,D12,1,1,1
65,59.0,4.0,19.0,1645111921.4375,P12,D12,1,1,1
66,59.0,4.0,19.0,1645111921.46875,P12,D12,1,1,1
67,59.0,4.0,19.0,1645111921.5,P12,D12,1,1,1
68,59.0,4.0,18.0,1645111921.53125,P12,D12,1,1,1
69,59.0,4.0,18.0,1645111921.5625,P12,D12,1,1,1
70,59.0,4.0,18.0,1645111921.59375,P12,D12,1,1,1
71,59.0,4.0,18.0,1645111921.625,P12,D12,1,1,1
72,59.0,4.0,19.0,1645111921.65625,P12,D12,1,1,1
73,59.0,4.0,19.0,1645111921.6875,P12,D12,1,1,1
74,59.0,4.0,18.0,1645111921.71875,P12,D12,1,1,1
75,59.0,4.0,19.0,1645111921.75,P12,D12,1,1,1
76,59.0,4.0,18.0,1645111921.78125,P12,D12,1,1,1
77,59.0,4.0,19.0,1645111921.8125,P12,D12,1,1,1
78,59.0,4.0,19.0,1645111921.84375,P12,D12,1,1,1
79,59.0,4.0,18.0,1645111921.875,P12,D12,1,1,1
80,59.0,4.0,18.0,1645111921.90625,P12,D12,1,1,1
81,59.0,4.0,19.0,1645111921.9375,P12,D12,1,1,1
82,59.0,4.0,18.0,1645111921.96875,P12,D12,1,1,1
83,59.0,4.0,19.0,1645111922.0,P12,D12,1,1,1
84,59.0,4.0,19.0,1645111922.03125,P12,D12,1,1,1
85,59.0,4.0,18.0,1645111922.0625,P12,D12,1,1,1
86,59.0,4.0,19.0,1645111922.09375,P12,D12,1,1,1
87,59.0,4.0,19.0,1645111922.125,P12,D12,1,1,1
88,59.0,4.0,19.0,1645111922.15625,P12,D12,1,1,1
89,59.0,4.0,19.0,1645111922.1875,P12,D12,1,1,1
90,59.0,4.0,19.0,1645111922.21875,P12,D12,1,1,1
91,59.0,4.0,19.0,1645111922.25,P12,D12,1,1,1
92,59.0,4.0,19.0,1645111922.28125,P12,D12,1,1,1
93,59.0,4.0,19.0,1645111922.3125,P12,D12,1,1,1
94,59.0,4.0,19.0,1645111922.34375,P12,D12,1,1,1
95,59.0,4.0,19.0,1645111922.375,P12,D12,1,1,1
96,59.0,4.0,19.0,1645111922.40625,P12,D12,1,1,1
97,59.0,4.0,18.0,1645111922.4375,P12,D12,1,1,1
98,59.0,4.0,19.0,1645111922.46875,P12,D12,1,1,1
99,59.0,4.0,19.0,1645111922.5,P12,D12,1,1,1
100,59.0,4.0,19.0,1645111922.53125,P12,D12,1,1,1
101,59.0,4.0,19.0,1645111922.5625,P12,D12,1,1,1
102,59.0,4.0,19.0,1645111922.59375,P12,D12,1,1,1
103,59.0,4.0,19.0,1645111922.625,P12,D12,1,1,1
104,59.0,4.0,18.0,1645111922.65625,P12,D12,1,1,1
105,59.0,4.0,19.0,1645111922.6875,P12,D12,1,1,1
106,59.0,4.0,19.0,1645111922.71875,P12,D12,1,1,1
107,59.0,4.0,19.0,1645111922.75,P12,D12,1,1,1
108,59.0,4.0,19.0,1645111922.78125,P12,D12,1,1,1
109,59.0,4.0,19.0,1645111922.8125,P12,D12,1,1,1
110,59.0,4.0,19.0,1645111922.84375,P12,D12,1,1,1
111,59.0,4.0,19.0,1645111922.875,P12,D12,1,1,1
112,59.0,4.0,19.0,1645111922.90625,P12,D12,1,1,1
113,59.0,4.0,19.0,1645111922.9375,P12,D12,1,1,1
114,59.0,4.0,19.0,1645111922.96875,P12,D12,1,1,1
115,59.0,4.0,18.0,1645111923.0,P12,D12,1,1,1
116,59.0,4.0,18.0,1645111923.03125,P12,D12,1,1,1
117,59.0,4.0,19.0,1645111923.0625,P12,D12,1,1,1
118,59.0,5.0,19.0,1645111923.09375,P12,D12,1,1,1
119,59.0,4.0,19.0,1645111923.125,P12,D12,1,1,1
120,59.0,4.0,19.0,1645111923.15625,P12,D12,1,1,1
121,59.0,5.0,19.0,1645111923.1875,P12,D12,1,1,1
122,59.0,4.0,19.0,1645111923.21875,P12,D12,1,1,1
123,59.0,4.0,19.0,1645111923.25,P12,D12,1,1,1
124,59.0,4.0,19.0,1645111923.28125,P12,D12,1,1,1
125,59.0,4.0,19.0,1645111923.3125,P12,D12,1,1,1
126,59.0,4.0,19.0,1645111923.34375,P12,D12,1,1,1
127,59.0,4.0,19.0,1645111923.375,P12,D12,1,1,1
128,59.0,4.0,19.0,1645111923.40625,P12,D12,1,1,1
129,59.0,4.0,19.0,1645111923.4375,P12,D12,1,1,1
130,59.0,4.0,19.0,1645111923.46875,P12,D12,1,1,1
131,59.0,4.0,18.0,1645111923.5,P12,D12,1,1,1
132,59.0,4.0,19.0,1645111923.53125,P12,D12,1,1,1
133,59.0,4.0,19.0,1645111923.5625,P12,D12,1,1,1
134,59.0,4.0,19.0,1645111923.59375,P12,D12,1,1,1
135,59.0,4.0,19.0,1645111923.625,P12,D12,1,1,1
136,59.0,4.0,19.0,1645111923.65625,P12,D12,1,1,1
137,59.0,4.0,19.0,1645111923.6875,P12,D12,1,1,1
138,59.0,4.0,19.0,1645111923.71875,P12,D12,1,1,1
139,59.0,4.0,19.0,1645111923.75,P12,D12,1,1,1
140,59.0,4.0,19.0,1645111923.78125,P12,D12,1,1,1
141,59.0,5.0,19.0,1645111923.8125,P12,D12,1,1,1
142,59.0,4.0,19.0,1645111923.84375,P12,D12,1,1,1
143,59.0,4.0,19.0,1645111923.875,P12,D12,1,1,1
144,59.0,4.0,19.0,1645111923.90625,P12,D12,1,1,1
145,59.0,4.0,19.0,1645111923.9375,P12,D12,1,1,1
146,59.0,4.0,19.0,1645111923.96875,P12,D12,1,1,1
147,59.0,4.0,18.0,1645111924.0,P12,D12,1,1,1
148,59.0,4.0,19.0,1645111924.03125,P12,D12,1,1,1
149,59.0,4.0,19.0,1645111924.0625,P12,D12,1,1,1
150,59.0,4.0,19.0,1645111924.09375,P12,D12,1,1,1
151,59.0,4.0,19.0,1645111924.125,P12,D12,1,1,1
152,59.0,4.0,19.0,1645111924.15625,P12,D12,1,1,1
153,59.0,4.0,19.0,1645111924.1875,P12,D12,1,1,1
154,59.0,4.0,19.0,1645111924.21875,P12,D12,1,1,1
155,59.0,4.0,19.0,1645111924.25,P12,D12,1,1,1
156,59.0,4.0,19.0,1645111924.28125,P12,D12,1,1,1
157,59.0,4.0,19.0,1645111924.3125,P12,D12,1,1,1
158,59.0,4.0,19.0,1645111924.34375,P12,D12,1,1,1
159,59.0,4.0,19.0,1645111924.375,P12,D12,1,1,1
160,59.0,4.0,18.0,1645111924.40625,P12,D12,1,1,1
161,59.0,4.0,19.0,1645111924.4375,P12,D12,1,1,1
162,59.0,4.0,19.0,1645111924.46875,P12,D12,1,1,1
163,59.0,4.0,19.0,1645111924.5,P12,D12,1,1,1
164,59.0,4.0,19.0,1645111924.53125,P12,D12,1,1,1
165,59.0,4.0,19.0,1645111924.5625,P12,D12,1,1,1
166,59.0,4.0,19.0,1645111924.59375,P12,D12,1,1,1
167,59.0,4.0,18.0,1645111924.625,P12,D12,1,1,1
168,59.0,4.0,19.0,1645111924.65625,P12,D12,1,1,1
169,59.0,4.0,18.0,1645111924.6875,P12,D12,1,1,1
170,59.0,4.0,19.0,1645111924.71875,P12,D12,1,1,1
171,59.0,4.0,18.0,1645111924.75,P12,D12,1,1,1
172,59.0,4.0,19.0,1645111924.78125,P12,D12,1,1,1
173,59.0,4.0,18.0,1645111924.8125,P12,D12,1,1,1
174,59.0,4.0,18.0,1645111924.84375,P12,D12,1,1,1
175,59.0,4.0,19.0,1645111924.875,P12,D12,1,1,1
176,59.0,4.0,19.0,1645111924.90625,P12,D12,1,1,1
177,59.0,4.0,19.0,1645111924.9375,P12,D12,1,1,1
178,59.0,4.0,19.0,1645111924.96875,P12,D12,1,1,1
179,59.0,4.0,18.0,1645111925.0,P12,D12,1,1,1
180,59.0,4.0,19.0,1645111925.03125,P12,D12,1,1,1
181,59.0,4.0,19.0,1645111925.0625,P12,D12,1,1,1
182,59.0,4.0,19.0,1645111925.09375,P12,D12,1,1,1
183,59.0,4.0,19.0,1645111925.125,P12,D12,1,1,1
184,59.0,4.0,19.0,1645111925.15625,P12,D12,1,1,1
185,59.0,4.0,18.0,1645111925.1875,P12,D12,1,1,1
186,59.0,4.0,19.0,1645111925.21875,P12,D12,1,1,1
187,59.0,4.0,19.0,1645111925.25,P12,D12,1,1,1
188,59.0,4.0,18.0,1645111925.28125,P12,D12,1,1,1
189,59.0,4.0,19.0,1645111925.3125,P12,D12,1,1,1
190,59.0,5.0,19.0,1645111925.34375,P12,D12,1,1,1
191,59.0,5.0,19.0,1645111925.375,P12,D12,1,1,1
192,59.0,5.0,19.0,1645111925.40625,P12,D12,1,1,1
193,59.0,4.0,19.0,1645111925.4375,P12,D12,1,1,1
194,60.0,4.0,18.0,1645111925.46875,P12,D12,1,1,1
195,60.0,4.0,18.0,1645111925.5,P12,D12,1,1,1
196,59.0,4.0,19.0,1645111925.53125,P12,D12,1,1,1
197,59.0,4.0,19.0,1645111925.5625,P12,D12,1,1,1
198,59.0,3.0,18.0,1645111925.59375,P12,D12,1,1,1
199,59.0,3.0,19.0,1645111925.625,P12,D12,1,1,1
200,59.0,3.0,19.0,1645111925.65625,P12,D12,1,1,1
201,59.0,4.0,20.0,1645111925.6875,P12,D12,1,1,1
202,59.0,4.0,20.0,1645111925.71875,P12,D12,1,1,1
203,59.0,4.0,19.0,1645111925.75,P12,D12,1,1,1
204,59.0,4.0,20.0,1645111925.78125,P12,D12,1,1,1
205,58.0,3.0,20.0,1645111925.8125,P12,D12,1,1,1
206,58.0,4.0,20.0,1645111925.84375,P12,D12,1,1,1
207,58.0,5.0,19.0,1645111925.875,P12,D12,1,1,1
208,59.0,5.0,19.0,1645111925.90625,P12,D12,1,1,1
209,61.0,5.0,20.0,1645111925.9375,P12,D12,1,1,1
210,60.0,5.0,18.0,1645111925.96875,P12,D12,1,1,1
211,59.0,5.0,18.0,1645111926.0,P12,D12,1,1,1
212,59.0,3.0,19.0,1645111926.03125,P12,D12,1,1,1
213,59.0,3.0,18.0,1645111926.0625,P12,D12,1,1,1
214,58.0,4.0,20.0,1645111926.09375,P12,D12,1,1,1
215,59.0,4.0,20.0,1645111926.125,P12,D12,1,1,1
216,59.0,5.0,20.0,1645111926.15625,P12,D12,1,1,1
217,60.0,4.0,19.0,1645111926.1875,P12,D12,1,1,1
218,58.0,4.0,20.0,1645111926.21875,P12,D12,1,1,1
219,59.0,4.0,20.0,1645111926.25,P12,D12,1,1,1
220,57.0,5.0,20.0,1645111926.28125,P12,D12,1,1,1
221,58.0,5.0,20.0,1645111926.3125,P12,D12,1,1,1
222,59.0,5.0,19.0,1645111926.34375,P12,D12,1,1,1
223,58.0,5.0,19.0,1645111926.375,P12,D12,1,1,1
224,58.0,5.0,20.0,1645111926.40625,P12,D12,1,1,1
225,58.0,4.0,20.0,1645111926.4375,P12,D12,1,1,1
226,59.0,4.0,19.0,1645111926.46875,P12,D12,1,1,1
227,59.0,5.0,19.0,1645111926.5,P12,D12,1,1,1
228,58.0,4.0,20.0,1645111926.53125,P12,D12,1,1,1
229,57.0,4.0,20.0,1645111926.5625,P12,D12,1,1,1
230,59.0,4.0,20.0,1645111926.59375,P12,D12,1,1,1
231,58.0,5.0,20.0,1645111926.625,P12,D12,1,1,1
232,59.0,5.0,19.0,1645111926.65625,P12,D12,1,1,1
233,60.0,5.0,18.0,1645111926.6875,P12,D12,1,1,1
234,60.0,4.0,17.0,1645111926.71875,P12,D12,1,1,1
235,60.0,4.0,18.0,1645111926.75,P12,D12,1,1,1
236,60.0,5.0,18.0,1645111926.78125,P12,D12,1,1,1
237,59.0,5.0,18.0,1645111926.8125,P12,D12,1,1,1
238,59.0,4.0,18.0,1645111926.84375,P12,D12,1,1,1
239,59.0,4.0,18.0,1645111926.875,P12,D12,1,1,1
240,60.0,5.0,18.0,1645111926.90625,P12,D12,1,1,1
241,60.0,5.0,18.0,1645111926.9375,P12,D12,1,1,1
242,59.0,5.0,19.0,1645111926.96875,P12,D12,1,1,1
243,59.0,5.0,18.0,1645111927.0,P12,D12,1,1,1
244,59.0,5.0,18.0,1645111927.03125,P12,D12,1,1,1
245,59.0,4.0,19.0,1645111927.0625,P12,D12,1,1,1
246,59.0,4.0,19.0,1645111927.09375,P12,D12,1,1,1
247,59.0,4.0,19.0,1645111927.125,P12,D12,1,1,1
248,59.0,4.0,18.0,1645111927.15625,P12,D12,1,1,1
249,59.0,4.0,19.0,1645111927.1875,P12,D12,1,1,1
250,59.0,4.0,19.0,1645111927.21875,P12,D12,1,1,1
251,59.0,5.0,19.0,1645111927.25,P12,D12,1,1,1
252,59.0,5.0,19.0,1645111927.28125,P12,D12,1,1,1
253,59.0,5.0,19.0,1645111927.3125,P12,D12,1,1,1
254,59.0,5.0,19.0,1645111927.34375,P12,D12,1,1,1
255,59.0,5.0,19.0,1645111927.375,P12,D12,1,1,1
256,59.0,5.0,19.0,1645111927.40625,P12,D12,1,1,1
257,59.0,5.0,19.0,1645111927.4375,P12,D12,1,1,1
258,59.0,4.0,19.0,1645111927.46875,P12,D12,1,1,1
259,59.0,4.0,19.0,1645111927.5,P12,D12,1,1,1
260,59.0,4.0,19.0,1645111927.53125,P12,D12,1,1,1
261,59.0,4.0,19.0,1645111927.5625,P12,D12,1,1,1
262,59.0,5.0,19.0,1645111927.59375,P12,D12,1,1,1
263,59.0,5.0,19.0,1645111927.625,P12,D12,1,1,1
264,59.0,5.0,19.0,1645111927.65625,P12,D12,1,1,1
265,59.0,5.0,18.0,1645111927.6875,P12,D12,1,1,1
266,59.0,4.0,19.0,1645111927.71875,P12,D12,1,1,1
267,59.0,4.0,19.0,1645111927.75,P12,D12,1,1,1
268,59.0,4.0,19.0,1645111927.78125,P12,D12,1,1,1
269,59.0,4.0,19.0,1645111927.8125,P12,D12,1,1,1
270,59.0,4.0,19.0,1645111927.84375,P12,D12,1,1,1
271,59.0,4.0,19.0,1645111927.875,P12,D12,1,1,1
272,59.0,5.0,19.0,1645111927.90625,P12,D12,1,1,1
273,59.0,4.0,19.0,1645111927.9375,P12,D12,1,1,1
274,59.0,4.0,19.0,1645111927.96875,P12,D12,1,1,1
275,59.0,4.0,19.0,1645111928.0,P12,D12,1,1,1
276,59.0,5.0,19.0,1645111928.03125,P12,D12,1,1,1
277,59.0,5.0,19.0,1645111928.0625,P12,D12,1,1,1
278,59.0,5.0,19.0,1645111928.09375,P12,D12,1,1,1
279,59.0,4.0,19.0,1645111928.125,P12,D12,1,1,1
280,59.0,4.0,19.0,1645111928.15625,P12,D12,1,1,1
281,59.0,4.0,19.0,1645111928.1875,P12,D12,1,1,1
282,59.0,4.0,19.0,1645111928.21875,P12,D12,1,1,1
283,59.0,4.0,19.0,1645111928.25,P12,D12,1,1,1
284,60.0,5.0,18.0,1645111928.28125,P12,D12,1,1,1
285,59.0,4.0,19.0,1645111928.3125,P12,D12,1,1,1
286,59.0,4.0,19.0,1645111928.34375,P12,D12,1,1,1
287,59.0,4.0,19.0,1645111928.375,P12,D12,1,1,1
288,59.0,4.0,19.0,1645111928.40625,P12,D12,1,1,1
289,58.0,4.0,19.0,1645111928.4375,P12,D12,1,1,1
290,59.0,5.0,19.0,1645111928.46875,P12,D12,1,1,1
291,59.0,4.0,19.0,1645111928.5,P12,D12,1,1,1
292,59.0,4.0,19.0,1645111928.53125,P12,D12,1,1,1
293,60.0,5.0,19.0,1645111928.5625,P12,D12,1,1,1
294,59.0,5.0,19.0,1645111928.59375,P12,D12,1,1,1
295,59.0,5.0,19.0,1645111928.625,P12,D12,1,1,1
296,59.0,4.0,19.0,1645111928.65625,P12,D12,1,1,1
297,59.0,5.0,19.0,1645111928.6875,P12,D12,1,1,1
298,59.0,4.0,19.0,1645111928.71875,P12,D12,1,1,1
299,59.0,5.0,19.0,1645111928.75,P12,D12,1,1,1
300,59.0,5.0,19.0,1645111928.78125,P12,D12,1,1,1
301,59.0,4.0,19.0,1645111928.8125,P12,D12,1,1,1
302,59.0,4.0,19.0,1645111928.84375,P12,D12,1,1,1
303,59.0,5.0,19.0,1645111928.875,P12,D12,1,1,1
304,59.0,5.0,19.0,1645111928.90625,P12,D12,1,1,1
305,59.0,4.0,19.0,1645111928.9375,P12,D12,1,1,1
306,59.0,4.0,19.0,1645111928.96875,P12,D12,1,1,1
307,59.0,4.0,19.0,1645111929.0,P12,D12,1,1,1
308,59.0,4.0,19.0,1645111929.03125,P12,D12,1,1,1
309,59.0,5.0,19.0,1645111929.0625,P12,D12,1,1,1
310,59.0,4.0,19.0,1645111929.09375,P12,D12,1,1,1
311,59.0,5.0,19.0,1645111929.125,P12,D12,1,1,1
312,60.0,5.0,19.0,1645111929.15625,P12,D12,1,1,1
313,59.0,4.0,19.0,1645111929.1875,P12,D12,1,1,1
314,59.0,4.0,19.0,1645111929.21875,P12,D12,1,1,1
315,59.0,5.0,19.0,1645111929.25,P12,D12,1,1,1
316,59.0,4.0,19.0,1645111929.28125,P12,D12,1,1,1
317,59.0,4.0,19.0,1645111929.3125,P12,D12,1,1,1
318,59.0,4.0,19.0,1645111929.34375,P12,D12,1,1,1
319,59.0,5.0,19.0,1645111929.375,P12,D12,1,1,1
320,59.0,5.0,19.0,1645111929.40625,P12,D12,1,1,1
321,59.0,4.0,19.0,1645111929.4375,P12,D12,1,1,1
322,59.0,4.0,19.0,1645111929.46875,P12,D12,1,1,1
323,59.0,4.0,19.0,1645111929.5,P12,D12,1,1,1
324,59.0,4.0,19.0,1645111929.53125,P12,D12,1,1,1
325,59.0,4.0,19.0,1645111929.5625,P12,D12,1,1,1
326,59.0,4.0,19.0,1645111929.59375,P12,D12,1,1,1
327,59.0,5.0,19.0,1645111929.625,P12,D12,1,1,1
328,59.0,4.0,19.0,1645111929.65625,P12,D12,1,1,1
329,59.0,4.0,19.0,1645111929.6875,P12,D12,1,1,1
330,59.0,4.0,19.0,1645111929.71875,P12,D12,1,1,1
331,59.0,5.0,19.0,1645111929.75,P12,D12,1,1,1
332,59.0,4.0,19.0,1645111929.78125,P12,D12,1,1,1
333,59.0,4.0,19.0,1645111929.8125,P12,D12,1,1,1
334,59.0,4.0,19.0,1645111929.84375,P12,D12,1,1,1
335,59.0,5.0,19.0,1645111929.875,P12,D12,1,1,1
336,59.0,5.0,19.0,1645111929.90625,P12,D12,1,1,1
337,59.0,5.0,19.0,1645111929.9375,P12,D12,1,1,1
338,59.0,5.0,19.0,1645111929.96875,P12,D12,1,1,1
339,59.0,4.0,19.0,1645111930.0,P12,D12,1,1,1
340,59.0,5.0,19.0,1645111930.03125,P12,D12,1,1,1
341,60.0,5.0,19.0,1645111930.0625,P12,D12,1,1,1
342,59.0,4.0,19.0,1645111930.09375,P12,D12,1,1,1
343,59.0,5.0,18.0,1645111930.125,P12,D12,1,1,1
344,59.0,5.0,19.0,1645111930.15625,P12,D12,1,1,1
345,59.0,4.0,19.0,1645111930.1875,P12,D12,1,1,1
346,59.0,4.0,19.0,1645111930.21875,P12,D12,1,1,1
347,59.0,4.0,19.0,1645111930.25,P12,D12,1,1,1
348,59.0,4.0,19.0,1645111930.28125,P12,D12,1,1,1
349,59.0,4.0,19.0,1645111930.3125,P12,D12,1,1,1
350,59.0,5.0,19.0,1645111930.34375,P12,D12,1,1,1
351,59.0,4.0,19.0,1645111930.375,P12,D12,1,1,1
352,59.0,5.0,19.0,1645111930.40625,P12,D12,1,1,1
353,59.0,5.0,19.0,1645111930.4375,P12,D12,1,1,1
354,59.0,4.0,19.0,1645111930.46875,P12,D12,1,1,1
355,59.0,4.0,19.0,1645111930.5,P12,D12,1,1,1
356,59.0,5.0,19.0,1645111930.53125,P12,D12,1,1,1
357,59.0,5.0,19.0,1645111930.5625,P12,D12,1,1,1
358,59.0,4.0,19.0,1645111930.59375,P12,D12,1,1,1
359,59.0,4.0,19.0,1645111930.625,P12,D12,1,1,1
360,59.0,4.0,19.0,1645111930.65625,P12,D12,1,1,1
361,59.0,4.0,19.0,1645111930.6875,P12,D12,1,1,1
362,59.0,4.0,19.0,1645111930.71875,P12,D12,1,1,1
363,59.0,4.0,19.0,1645111930.75,P12,D12,1,1,1
364,59.0,5.0,19.0,1645111930.78125,P12,D12,1,1,1
365,59.0,4.0,19.0,1645111930.8125,P12,D12,1,1,1
366,59.0,4.0,19.0,1645111930.84375,P12,D12,1,1,1
367,59.0,4.0,19.0,1645111930.875,P12,D12,1,1,1
368,59.0,4.0,19.0,1645111930.90625,P12,D12,1,1,1
369,59.0,4.0,19.0,1645111930.9375,P12,D12,1,1,1
370,59.0,4.0,18.0,1645111930.96875,P12,D12,1,1,1
371,59.0,5.0,18.0,1645111931.0,P12,D12,1,1,1
372,59.0,4.0,18.0,1645111931.03125,P12,D12,1,1,1
373,59.0,5.0,19.0,1645111931.0625,P12,D12,1,1,1
374,59.0,5.0,19.0,1645111931.09375,P12,D12,1,1,1
375,59.0,4.0,19.0,1645111931.125,P12,D12,1,1,1
376,59.0,4.0,19.0,1645111931.15625,P12,D12,1,1,1
377,59.0,4.0,19.0,1645111931.1875,P12,D12,1,1,1
378,59.0,4.0,19.0,1645111931.21875,P12,D12,1,1,1
379,59.0,4.0,19.0,1645111931.25,P12,D12,1,1,1
380,59.0,4.0,19.0,1645111931.28125,P12,D12,1,1,1
381,59.0,4.0,19.0,1645111931.3125,P12,D12,1,1,1
382,59.0,4.0,18.0,1645111931.34375,P12,D12,1,1,1
383,59.0,4.0,19.0,1645111931.375,P12,D12,1,1,1
384,59.0,5.0,19.0,1645111931.40625,P12,D12,1,1,1
385,59.0,4.0,19.0,1645111931.4375,P12,D12,1,1,1
386,59.0,5.0,19.0,1645111931.46875,P12,D12,1,1,1
387,59.0,5.0,19.0,1645111931.5,P12,D12,1,1,1
388,59.0,4.0,19.0,1645111931.53125,P12,D12,1,1,1
389,59.0,4.0,19.0,1645111931.5625,P12,D12,1,1,1
390,59.0,4.0,18.0,1645111931.59375,P12,D12,1,1,1
391,59.0,4.0,19.0,1645111931.625,P12,D12,1,1,1
392,59.0,4.0,19.0,1645111931.65625,P12,D12,1,1,1
393,59.0,4.0,18.0,1645111931.6875,P12,D12,1,1,1
394,59.0,4.0,19.0,1645111931.71875,P12,D12,1,1,1
395,59.0,4.0,18.0,1645111931.75,P12,D12,1,1,1
396,59.0,4.0,19.0,1645111931.78125,P12,D12,1,1,1
397,59.0,4.0,19.0,1645111931.8125,P12,D12,1,1,1
398,59.0,4.0,18.0,1645111931.84375,P12,D12,1,1,1
399,59.0,4.0,19.0,1645111931.875,P12,D12,1,1,1
400,59.0,4.0,18.0,1645111931.90625,P12,D12,1,1,1
401,59.0,4.0,18.0,1645111931.9375,P12,D12,1,1,1
402,59.0,4.0,18.0,1645111931.96875,P12,D12,1,1,1
403,59.0,4.0,19.0,1645111932.0,P12,D12,1,1,1
404,59.0,4.0,18.0,1645111932.03125,P12,D12,1,1,1
405,59.0,4.0,19.0,1645111932.0625,P12,D12,1,1,1
406,59.0,4.0,19.0,1645111932.09375,P12,D12,1,1,1
407,59.0,4.0,18.0,1645111932.125,P12,D12,1,1,1
408,59.0,4.0,19.0,1645111932.15625,P12,D12,1,1,1
409,59.0,4.0,19.0,1645111932.1875,P12,D12,1,1,1
410,59.0,5.0,18.0,1645111932.21875,P12,D12,1,1,1
411,59.0,4.0,19.0,1645111932.25,P12,D12,1,1,1
412,59.0,5.0,19.0,1645111932.28125,P12,D12,1,1,1
413,59.0,4.0,19.0,1645111932.3125,P12,D12,1,1,1
414,59.0,5.0,19.0,1645111932.34375,P12,D12,1,1,1
415,60.0,4.0,18.0,1645111932.375,P12,D12,1,1,1
416,59.0,5.0,19.0,1645111932.40625,P12,D12,1,1,1
417,59.0,5.0,19.0,1645111932.4375,P12,D12,1,1,1
418,59.0,4.0,19.0,1645111932.46875,P12,D12,1,1,1
419,59.0,4.0,19.0,1645111932.5,P12,D12,1,1,1
420,59.0,4.0,19.0,1645111932.53125,P12,D12,1,1,1
421,59.0,4.0,19.0,1645111932.5625,P12,D12,1,1,1
422,59.0,5.0,19.0,1645111932.59375,P12,D12,1,1,1
423,59.0,4.0,18.0,1645111932.625,P12,D12,1,1,1
424,59.0,4.0,19.0,1645111932.65625,P12,D12,1,1,1
425,59.0,4.0,18.0,1645111932.6875,P12,D12,1,1,1
426,59.0,4.0,19.0,1645111932.71875,P12,D12,1,1,1
427,59.0,5.0,19.0,1645111932.75,P12,D12,1,1,1
428,59.0,4.0,19.0,1645111932.78125,P12,D12,1,1,1
429,59.0,4.0,19.0,1645111932.8125,P12,D12,1,1,1
430,59.0,5.0,19.0,1645111932.84375,P12,D12,1,1,1
431,59.0,4.0,19.0,1645111932.875,P12,D12,1,1,1
432,59.0,4.0,19.0,1645111932.90625,P12,D12,1,1,1
433,59.0,5.0,19.0,1645111932.9375,P12,D12,1,1,1
434,60.0,4.0,19.0,1645111932.96875,P12,D12,1,1,1
435,59.0,4.0,18.0,1645111933.0,P12,D12,1,1,1
436,59.0,4.0,19.0,1645111933.03125,P12,D12,1,1,1
437,59.0,5.0,19.0,1645111933.0625,P12,D12,1,1,1
438,59.0,4.0,19.0,1645111933.09375,P12,D12,1,1,1
439,59.0,4.0,19.0,1645111933.125,P12,D12,1,1,1
440,59.0,5.0,19.0,1645111933.15625,P12,D12,1,1,1
441,59.0,4.0,19.0,1645111933.1875,P12,D12,1,1,1
442,59.0,4.0,19.0,1645111933.21875,P12,D12,1,1,1
443,59.0,5.0,19.0,1645111933.25,P12,D12,1,1,1
444,59.0,4.0,19.0,1645111933.28125,P12,D12,1,1,1
445,59.0,4.0,19.0,1645111933.3125,P12,D12,1,1,1
446,59.0,4.0,19.0,1645111933.34375,P12,D12,1,1,1
447,59.0,4.0,19.0,1645111933.375,P12,D12,1,1,1
448,59.0,4.0,19.0,1645111933.40625,P12,D12,1,1,1
449,59.0,5.0,19.0,1645111933.4375,P12,D12,1,1,1
450,59.0,4.0,19.0,1645111933.46875,P12,D12,1,1,1
451,59.0,4.0,19.0,1645111933.5,P12,D12,1,1,1
452,59.0,5.0,19.0,1645111933.53125,P12,D12,1,1,1
453,59.0,4.0,19.0,1645111933.5625,P12,D12,1,1,1
454,59.0,4.0,19.0,1645111933.59375,P12,D12,1,1,1
455,59.0,4.0,19.0,1645111933.625,P12,D12,1,1,1
456,59.0,4.0,19.0,1645111933.65625,P12,D12,1,1,1
457,59.0,4.0,19.0,1645111933.6875,P12,D12,1,1,1
458,59.0,4.0,19.0,1645111933.71875,P12,D12,1,1,1
459,59.0,4.0,19.0,1645111933.75,P12,D12,1,1,1
460,59.0,5.0,19.0,1645111933.78125,P12,D12,1,1,1
461,59.0,5.0,19.0,1645111933.8125,P12,D12,1,1,1
462,59.0,4.0,19.0,1645111933.84375,P12,D12,1,1,1
463,59.0,5.0,18.0,1645111933.875,P12,D12,1,1,1
464,59.0,4.0,19.0,1645111933.90625,P12,D12,1,1,1
465,59.0,4.0,19.0,1645111933.9375,P12,D12,1,1,1
466,60.0,5.0,19.0,1645111933.96875,P12,D12,1,1,1
467,59.0,5.0,19.0,1645111934.0,P12,D12,1,1,1
468,59.0,4.0,19.0,1645111934.03125,P12,D12,1,1,1
469,59.0,4.0,19.0,1645111934.0625,P12,D12,1,1,1
470,59.0,5.0,19.0,1645111934.09375,P12,D12,1,1,1
471,59.0,4.0,19.0,1645111934.125,P12,D12,1,1,1
472,59.0,4.0,19.0,1645111934.15625,P12,D12,1,1,1
473,59.0,5.0,19.0,1645111934.1875,P12,D12,1,1,1
474,59.0,4.0,19.0,1645111934.21875,P12,D12,1,1,1
475,59.0,5.0,19.0,1645111934.25,P12,D12,1,1,1
476,59.0,5.0,19.0,1645111934.28125,P12,D12,1,1,1
477,59.0,4.0,19.0,1645111934.3125,P12,D12,1,1,1
478,59.0,4.0,19.0,1645111934.34375,P12,D12,1,1,1
479,59.0,4.0,19.0,1645111934.375,P12,D12,1,1,1
480,59.0,4.0,19.0,1645111934.40625,P12,D12,1,1,1
481,59.0,4.0,19.0,1645111934.4375,P12,D12,1,1,1
482,59.0,4.0,19.0,1645111934.46875,P12,D12,1,1,1
483,59.0,4.0,19.0,1645111934.5,P12,D12,1,1,1
484,59.0,4.0,19.0,1645111934.53125,P12,D12,1,1,1
485,59.0,4.0,19.0,1645111934.5625,P12,D12,1,1,1
486,59.0,4.0,19.0,1645111934.59375,P12,D12,1,1,1
487,59.0,4.0,19.0,1645111934.625,P12,D12,1,1,1
488,59.0,4.0,19.0,1645111934.65625,P12,D12,1,1,1
489,59.0,4.0,19.0,1645111934.6875,P12,D12,1,1,1
490,59.0,4.0,18.0,1645111934.71875,P12,D12,1,1,1
491,59.0,4.0,19.0,1645111934.75,P12,D12,1,1,1
492,59.0,4.0,19.0,1645111934.78125,P12,D12,1,1,1
493,59.0,4.0,18.0,1645111934.8125,P12,D12,1,1,1
494,59.0,4.0,18.0,1645111934.84375,P12,D12,1,1,1
495,59.0,5.0,19.0,1645111934.875,P12,D12,1,1,1
496,59.0,5.0,19.0,1645111934.90625,P12,D12,1,1,1
497,59.0,4.0,19.0,1645111934.9375,P12,D12,1,1,1
498,59.0,4.0,19.0,1645111934.96875,P12,D12,1,1,1
499,59.0,4.0,19.0,1645111935.0,P12,D12,1,1,1
500,59.0,4.0,19.0,1645111935.03125,P12,D12,1,1,1
501,59.0,4.0,19.0,1645111935.0625,P12,D12,1,1,1
502,59.0,4.0,19.0,1645111935.09375,P12,D12,1,1,1
503,59.0,4.0,19.0,1645111935.125,P12,D12,1,1,1
504,59.0,5.0,19.0,1645111935.15625,P12,D12,1,1,1
505,59.0,4.0,18.0,1645111935.1875,P12,D12,1,1,1
506,59.0,4.0,19.0,1645111935.21875,P12,D12,1,1,1
507,59.0,5.0,19.0,1645111935.25,P12,D12,1,1,1
508,59.0,4.0,19.0,1645111935.28125,P12,D12,1,1,1
509,59.0,4.0,19.0,1645111935.3125,P12,D12,1,1,1
510,59.0,4.0,19.0,1645111935.34375,P12,D12,1,1,1
511,59.0,4.0,19.0,1645111935.375,P12,D12,1,1,1
512,59.0,5.0,19.0,1645111935.40625,P12,D12,1,1,1
513,59.0,4.0,19.0,1645111935.4375,P12,D12,1,1,1
514,59.0,4.0,18.0,1645111935.46875,P12,D12,1,1,1
515,59.0,4.0,19.0,1645111935.5,P12,D12,1,1,1
516,59.0,4.0,19.0,1645111935.53125,P12,D12,1,1,1
517,59.0,4.0,19.0,1645111935.5625,P12,D12,1,1,1
518,59.0,4.0,18.0,1645111935.59375,P12,D12,1,1,1
519,59.0,4.0,19.0,1645111935.625,P12,D12,1,1,1
520,59.0,4.0,19.0,1645111935.65625,P12,D12,1,1,1
521,59.0,5.0,18.0,1645111935.6875,P12,D12,1,1,1
522,59.0,4.0,19.0,1645111935.71875,P12,D12,1,1,1
523,59.0,4.0,19.0,1645111935.75,P12,D12,1,1,1
524,59.0,4.0,19.0,1645111935.78125,P12,D12,1,1,1
525,59.0,5.0,19.0,1645111935.8125,P12,D12,1,1,1
526,59.0,4.0,19.0,1645111935.84375,P12,D12,1,1,1
527,59.0,4.0,19.0,1645111935.875,P12,D12,1,1,1
528,59.0,4.0,19.0,1645111935.90625,P12,D12,1,1,1
529,59.0,4.0,18.0,1645111935.9375,P12,D12,1,1,1
530,59.0,4.0,19.0,1645111935.96875,P12,D12,1,1,1
531,59.0,4.0,19.0,1645111936.0,P12,D12,1,1,1
532,59.0,5.0,19.0,1645111936.03125,P12,D12,1,1,1
533,59.0,5.0,19.0,1645111936.0625,P12,D12,1,1,1
534,59.0,4.0,19.0,1645111936.09375,P12,D12,1,1,1
535,59.0,5.0,19.0,1645111936.125,P12,D12,1,1,1
536,59.0,4.0,19.0,1645111936.15625,P12,D12,1,1,1
537,59.0,4.0,19.0,1645111936.1875,P12,D12,1,1,1
538,59.0,5.0,18.0,1645111936.21875,P12,D12,1,1,1
539,59.0,5.0,19.0,1645111936.25,P12,D12,1,1,1
540,59.0,4.0,19.0,1645111936.28125,P12,D12,1,1,1
541,59.0,4.0,19.0,1645111936.3125,P12,D12,1,1,1
542,59.0,5.0,19.0,1645111936.34375,P12,D12,1,1,1
543,59.0,5.0,18.0,1645111936.375,P12,D12,1,1,1
544,59.0,4.0,18.0,1645111936.40625,P12,D12,1,1,1
545,59.0,5.0,19.0,1645111936.4375,P12,D12,1,1,1
546,59.0,4.0,19.0,1645111936.46875,P12,D12,1,1,1
547,59.0,4.0,19.0,1645111936.5,P12,D12,1,1,1
548,59.0,5.0,19.0,1645111936.53125,P12,D12,1,1,1
549,59.0,4.0,19.0,1645111936.5625,P12,D12,1,1,1
550,59.0,4.0,19.0,1645111936.59375,P12,D12,1,1,1
551,59.0,4.0,19.0,1645111936.625,P12,D12,1,1,1
552,59.0,4.0,19.0,1645111936.65625,P12,D12,1,1,1
553,59.0,4.0,19.0,1645111936.6875,P12,D12,1,1,1
554,59.0,4.0,19.0,1645111936.71875,P12,D12,1,1,1
555,59.0,4.0,18.0,1645111936.75,P12,D12,1,1,1
556,59.0,4.0,19.0,1645111936.78125,P12,D12,1,1,1
557,59.0,4.0,19.0,1645111936.8125,P12,D12,1,1,1
558,59.0,4.0,19.0,1645111936.84375,P12,D12,1,1,1
559,59.0,5.0,19.0,1645111936.875,P12,D12,1,1,1
560,59.0,4.0,19.0,1645111936.90625,P12,D12,1,1,1
561,59.0,4.0,19.0,1645111936.9375,P12,D12,1,1,1
562,59.0,4.0,19.0,1645111936.96875,P12,D12,1,1,1
563,59.0,4.0,19.0,1645111937.0,P12,D12,1,1,1
564,59.0,4.0,19.0,1645111937.03125,P12,D12,1,1,1
565,59.0,5.0,19.0,1645111937.0625,P12,D12,1,1,1
566,59.0,4.0,19.0,1645111937.09375,P12,D12,1,1,1
567,59.0,4.0,19.0,1645111937.125,P12,D12,1,1,1
568,59.0,4.0,19.0,1645111937.15625,P12,D12,1,1,1
569,59.0,4.0,19.0,1645111937.1875,P12,D12,1,1,1
570,59.0,4.0,19.0,1645111937.21875,P12,D12,1,1,1
571,59.0,4.0,19.0,1645111937.25,P12,D12,1,1,1
572,59.0,4.0,19.0,1645111937.28125,P12,D12,1,1,1
573,59.0,4.0,18.0,1645111937.3125,P12,D12,1,1,1
574,59.0,4.0,18.0,1645111937.34375,P12,D12,1,1,1
575,59.0,4.0,19.0,1645111937.375,P12,D12,1,1,1
576,59.0,4.0,19.0,1645111937.40625,P12,D12,1,1,1
577,59.0,4.0,19.0,1645111937.4375,P12,D12,1,1,1
578,59.0,5.0,19.0,1645111937.46875,P12,D12,1,1,1
579,59.0,4.0,19.0,1645111937.5,P12,D12,1,1,1
580,59.0,5.0,19.0,1645111937.53125,P12,D12,1,1,1
581,59.0,4.0,19.0,1645111937.5625,P12,D12,1,1,1
582,59.0,4.0,19.0,1645111937.59375,P12,D12,1,1,1
583,59.0,4.0,18.0,1645111937.625,P12,D12,1,1,1
584,59.0,4.0,19.0,1645111937.65625,P12,D12,1,1,1
585,59.0,5.0,19.0,1645111937.6875,P12,D12,1,1,1
586,59.0,4.0,19.0,1645111937.71875,P12,D12,1,1,1
587,59.0,5.0,19.0,1645111937.75,P12,D12,1,1,1
588,59.0,5.0,19.0,1645111937.78125,P12,D12,1,1,1
589,59.0,5.0,19.0,1645111937.8125,P12,D12,1,1,1
590,59.0,4.0,19.0,1645111937.84375,P12,D12,1,1,1
591,59.0,5.0,19.0,1645111937.875,P12,D12,1,1,1
592,58.0,4.0,19.0,1645111937.90625,P12,D12,1,1,1
593,59.0,4.0,19.0,1645111937.9375,P12,D12,1,1,1
594,59.0,4.0,19.0,1645111937.96875,P12,D12,1,1,1
595,59.0,5.0,19.0,1645111938.0,P12,D12,1,1,1
596,59.0,4.0,19.0,1645111938.03125,P12,D12,1,1,1
597,59.0,4.0,18.0,1645111938.0625,P12,D12,1,1,1
598,59.0,5.0,19.0,1645111938.09375,P12,D12,1,1,1
599,59.0,5.0,19.0,1645111938.125,P12,D12,1,1,1
600,59.0,4.0,19.0,1645111938.15625,P12,D12,1,1,1
601,59.0,4.0,19.0,1645111938.1875,P12,D12,1,1,1
602,59.0,4.0,19.0,1645111938.21875,P12,D12,1,1,1
603,59.0,4.0,19.0,1645111938.25,P12,D12,1,1,1
604,59.0,4.0,19.0,1645111938.28125,P12,D12,1,1,1
605,59.0,4.0,19.0,1645111938.3125,P12,D12,1,1,1
606,59.0,4.0,19.0,1645111938.34375,P12,D12,1,1,1
607,59.0,5.0,19.0,1645111938.375,P12,D12,1,1,1
608,59.0,4.0,19.0,1645111938.40625,P12,D12,1,1,1
609,59.0,5.0,19.0,1645111938.4375,P12,D12,1,1,1
610,59.0,4.0,19.0,1645111938.46875,P12,D12,1,1,1
611,59.0,4.0,19.0,1645111938.5,P12,D12,1,1,1
612,59.0,4.0,19.0,1645111938.53125,P12,D12,1,1,1
613,59.0,4.0,19.0,1645111938.5625,P12,D12,1,1,1
614,59.0,4.0,19.0,1645111938.59375,P12,D12,1,1,1
615,59.0,4.0,19.0,1645111938.625,P12,D12,1,1,1
616,59.0,4.0,19.0,1645111938.65625,P12,D12,1,1,1
617,59.0,4.0,19.0,1645111938.6875,P12,D12,1,1,1
618,59.0,4.0,19.0,1645111938.71875,P12,D12,1,1,1
619,59.0,4.0,19.0,1645111938.75,P12,D12,1,1,1
620,59.0,4.0,19.0,1645111938.78125,P12,D12,1,1,1
621,59.0,5.0,19.0,1645111938.8125,P12,D12,1,1,1
622,59.0,4.0,19.0,1645111938.84375,P12,D12,1,1,1
623,59.0,4.0,19.0,1645111938.875,P12,D12,1,1,1
624,59.0,4.0,19.0,1645111938.90625,P12,D12,1,1,1
625,59.0,4.0,18.0,1645111938.9375,P12,D12,1,1,1
626,59.0,4.0,19.0,1645111938.96875,P12,D12,1,1,1
627,59.0,4.0,19.0,1645111939.0,P12,D12,1,1,1
628,59.0,4.0,19.0,1645111939.03125,P12,D12,1,1,1
629,59.0,4.0,19.0,1645111939.0625,P12,D12,1,1,1
630,59.0,5.0,19.0,1645111939.09375,P12,D12,1,1,1
631,59.0,5.0,18.0,1645111939.125,P12,D12,1,1,1
632,59.0,4.0,19.0,1645111939.15625,P12,D12,1,1,1
633,59.0,4.0,19.0,1645111939.1875,P12,D12,1,1,1
634,59.0,4.0,19.0,1645111939.21875,P12,D12,1,1,1
635,59.0,4.0,19.0,1645111939.25,P12,D12,1,1,1
636,59.0,4.0,19.0,1645111939.28125,P12,D12,1,1,1
637,59.0,4.0,18.0,1645111939.3125,P12,D12,1,1,1
638,59.0,4.0,18.0,1645111939.34375,P12,D12,1,1,1
639,59.0,4.0,18.0,1645111939.375,P12,D12,1,1,1
640,59.0,4.0,19.0,1645111939.40625,P12,D12,1,1,1
641,59.0,4.0,19.0,1645111939.4375,P12,D12,1,1,1
642,59.0,4.0,19.0,1645111939.46875,P12,D12,1,1,1
643,59.0,4.0,19.0,1645111939.5,P12,D12,1,1,1
644,59.0,4.0,18.0,1645111939.53125,P12,D12,1,1,1
645,59.0,4.0,19.0,1645111939.5625,P12,D12,1,1,1
646,59.0,4.0,19.0,1645111939.59375,P12,D12,1,1,1
647,59.0,4.0,19.0,1645111939.625,P12,D12,1,1,1
648,59.0,4.0,18.0,1645111939.65625,P12,D12,1,1,1
649,59.0,4.0,19.0,1645111939.6875,P12,D12,1,1,1
650,59.0,5.0,18.0,1645111939.71875,P12,D12,1,1,1
651,59.0,4.0,19.0,1645111939.75,P12,D12,1,1,1
652,59.0,4.0,18.0,1645111939.78125,P12,D12,1,1,1
653,59.0,5.0,19.0,1645111939.8125,P12,D12,1,1,1
654,59.0,4.0,19.0,1645111939.84375,P12,D12,1,1,1
655,59.0,4.0,19.0,1645111939.875,P12,D12,1,1,1
656,59.0,4.0,19.0,1645111939.90625,P12,D12,1,1,1
657,59.0,5.0,18.0,1645111939.9375,P12,D12,1,1,1
658,59.0,4.0,19.0,1645111939.96875,P12,D12,1,1,1
659,59.0,4.0,19.0,1645111940.0,P12,D12,1,1,1
660,59.0,4.0,19.0,1645111940.03125,P12,D12,1,1,1
661,59.0,4.0,19.0,1645111940.0625,P12,D12,1,1,1
662,59.0,4.0,19.0,1645111940.09375,P12,D12,1,1,1
663,59.0,4.0,19.0,1645111940.125,P12,D12,1,1,1
664,59.0,4.0,19.0,1645111940.15625,P12,D12,1,1,1
665,59.0,4.0,19.0,1645111940.1875,P12,D12,1,1,1
666,59.0,4.0,19.0,1645111940.21875,P12,D12,1,1,1
667,59.0,4.0,19.0,1645111940.25,P12,D12,1,1,1
668,59.0,4.0,18.0,1645111940.28125,P12,D12,1,1,1
669,59.0,4.0,19.0,1645111940.3125,P12,D12,1,1,1
670,59.0,4.0,18.0,1645111940.34375,P12,D12,1,1,1
671,59.0,4.0,19.0,1645111940.375,P12,D12,1,1,1
672,59.0,4.0,19.0,1645111940.40625,P12,D12,1,1,1
673,59.0,4.0,19.0,1645111940.4375,P12,D12,1,1,1
674,59.0,4.0,18.0,1645111940.46875,P12,D12,1,1,1
675,59.0,4.0,19.0,1645111940.5,P12,D12,1,1,1
676,59.0,4.0,19.0,1645111940.53125,P12,D12,1,1,1
677,59.0,4.0,19.0,1645111940.5625,P12,D12,1,1,1
678,59.0,4.0,19.0,1645111940.59375,P12,D12,1,1,1
679,59.0,4.0,19.0,1645111940.625,P12,D12,1,1,1
680,59.0,4.0,19.0,1645111940.65625,P12,D12,1,1,1
681,59.0,5.0,19.0,1645111940.6875,P12,D12,1,1,1
682,59.0,5.0,19.0,1645111940.71875,P12,D12,1,1,1
683,59.0,5.0,19.0,1645111940.75,P12,D12,1,1,1
684,59.0,4.0,19.0,1645111940.78125,P12,D12,1,1,1
685,59.0,4.0,19.0,1645111940.8125,P12,D12,1,1,1
686,59.0,4.0,19.0,1645111940.84375,P12,D12,1,1,1
687,59.0,4.0,19.0,1645111940.875,P12,D12,1,1,1
688,59.0,4.0,19.0,1645111940.90625,P12,D12,1,1,1
689,59.0,4.0,19.0,1645111940.9375,P12,D12,1,1,1
690,59.0,5.0,19.0,1645111940.96875,P12,D12,1,1,1
691,59.0,5.0,19.0,1645111941.0,P12,D12,1,1,1
692,59.0,5.0,19.0,1645111941.03125,P12,D12,1,1,1
693,59.0,4.0,19.0,1645111941.0625,P12,D12,1,1,1
694,59.0,4.0,19.0,1645111941.09375,P12,D12,1,1,1
695,59.0,5.0,19.0,1645111941.125,P12,D12,1,1,1
696,59.0,4.0,19.0,1645111941.15625,P12,D12,1,1,1
697,59.0,4.0,19.0,1645111941.1875,P12,D12,1,1,1
698,59.0,4.0,19.0,1645111941.21875,P12,D12,1,1,1
699,59.0,4.0,19.0,1645111941.25,P12,D12,1,1,1
700,59.0,4.0,19.0,1645111941.28125,P12,D12,1,1,1
701,59.0,4.0,19.0,1645111941.3125,P12,D12,1,1,1
702,59.0,5.0,19.0,1645111941.34375,P12,D12,1,1,1
703,59.0,5.0,19.0,1645111941.375,P12,D12,1,1,1
704,59.0,4.0,19.0,1645111941.40625,P12,D12,1,1,1
705,59.0,5.0,19.0,1645111941.4375,P12,D12,1,1,1
706,59.0,4.0,19.0,1645111941.46875,P12,D12,1,1,1
707,59.0,4.0,19.0,1645111941.5,P12,D12,1,1,1
708,59.0,4.0,19.0,1645111941.53125,P12,D12,1,1,1
709,59.0,5.0,19.0,1645111941.5625,P12,D12,1,1,1
710,59.0,5.0,19.0,1645111941.59375,P12,D12,1,1,1
711,59.0,4.0,19.0,1645111941.625,P12,D12,1,1,1
712,59.0,4.0,19.0,1645111941.65625,P12,D12,1,1,1
713,59.0,4.0,19.0,1645111941.6875,P12,D12,1,1,1
714,59.0,4.0,19.0,1645111941.71875,P12,D12,1,1,1
715,59.0,4.0,19.0,1645111941.75,P12,D12,1,1,1
716,59.0,5.0,19.0,1645111941.78125,P12,D12,1,1,1
717,59.0,5.0,19.0,1645111941.8125,P12,D12,1,1,1
718,59.0,4.0,19.0,1645111941.84375,P12,D12,1,1,1
719,59.0,5.0,19.0,1645111941.875,P12,D12,1,1,1
720,59.0,5.0,19.0,1645111941.90625,P12,D12,1,1,1
721,59.0,4.0,19.0,1645111941.9375,P12,D12,1,1,1
722,59.0,4.0,18.0,1645111941.96875,P12,D12,1,1,1
723,59.0,5.0,19.0,1645111942.0,P12,D12,1,1,1
724,59.0,4.0,19.0,1645111942.03125,P12,D12,1,1,1
725,59.0,5.0,19.0,1645111942.0625,P12,D12,1,1,1
726,59.0,4.0,19.0,1645111942.09375,P12,D12,1,1,1
727,59.0,4.0,19.0,1645111942.125,P12,D12,1,1,1
728,59.0,4.0,19.0,1645111942.15625,P12,D12,1,1,1
729,59.0,4.0,19.0,1645111942.1875,P12,D12,1,1,1
730,59.0,4.0,18.0,1645111942.21875,P12,D12,1,1,1
731,59.0,5.0,19.0,1645111942.25,P12,D12,1,1,1
732,59.0,4.0,19.0,1645111942.28125,P12,D12,1,1,1
733,59.0,4.0,19.0,1645111942.3125,P12,D12,1,1,1
734,59.0,4.0,19.0,1645111942.34375,P12,D12,1,1,1
735,59.0,4.0,19.0,1645111942.375,P12,D12,1,1,1
736,59.0,5.0,19.0,1645111942.40625,P12,D12,1,1,1
737,59.0,4.0,19.0,1645111942.4375,P12,D12,1,1,1
738,59.0,4.0,19.0,1645111942.46875,P12,D12,1,1,1
739,59.0,5.0,19.0,1645111942.5,P12,D12,1,1,1
740,59.0,5.0,19.0,1645111942.53125,P12,D12,1,1,1
741,59.0,4.0,19.0,1645111942.5625,P12,D12,1,1,1
742,59.0,4.0,19.0,1645111942.59375,P12,D12,1,1,1
743,59.0,5.0,19.0,1645111942.625,P12,D12,1,1,1
744,59.0,4.0,19.0,1645111942.65625,P12,D12,1,1,1
745,59.0,5.0,19.0,1645111942.6875,P12,D12,1,1,1
746,59.0,4.0,19.0,1645111942.71875,P12,D12,1,1,1
747,59.0,4.0,19.0,1645111942.75,P12,D12,1,1,1
748,59.0,5.0,19.0,1645111942.78125,P12,D12,1,1,1
749,59.0,4.0,19.0,1645111942.8125,P12,D12,1,1,1
750,59.0,4.0,19.0,1645111942.84375,P12,D12,1,1,1
751,59.0,5.0,19.0,1645111942.875,P12,D12,1,1,1
752,59.0,5.0,19.0,1645111942.90625,P12,D12,1,1,1
753,59.0,4.0,19.0,1645111942.9375,P12,D12,1,1,1
754,59.0,4.0,19.0,1645111942.96875,P12,D12,1,1,1
755,59.0,4.0,19.0,1645111943.0,P12,D12,1,1,1
756,59.0,5.0,19.0,1645111943.03125,P12,D12,1,1,1
757,59.0,4.0,19.0,1645111943.0625,P12,D12,1,1,1
758,59.0,4.0,19.0,1645111943.09375,P12,D12,1,1,1
759,59.0,4.0,19.0,1645111943.125,P12,D12,1,1,1
760,59.0,4.0,19.0,1645111943.15625,P12,D12,1,1,1
761,59.0,4.0,19.0,1645111943.1875,P12,D12,1,1,1
762,59.0,4.0,19.0,1645111943.21875,P12,D12,1,1,1
763,59.0,4.0,19.0,1645111943.25,P12,D12,1,1,1
764,59.0,4.0,19.0,1645111943.28125,P12,D12,1,1,1
765,59.0,4.0,19.0,1645111943.3125,P12,D12,1,1,1
766,59.0,4.0,19.0,1645111943.34375,P12,D12,1,1,1
767,59.0,4.0,19.0,1645111943.375,P12,D12,1,1,1
768,59.0,4.0,18.0,1645111943.40625,P12,D12,1,1,1
769,59.0,4.0,19.0,1645111943.4375,P12,D12,1,1,1
770,59.0,4.0,18.0,1645111943.46875,P12,D12,1,1,1
771,59.0,4.0,19.0,1645111943.5,P12,D12,1,1,1
772,59.0,4.0,18.0,1645111943.53125,P12,D12,1,1,1
773,59.0,4.0,18.0,1645111943.5625,P12,D12,1,1,1
774,59.0,4.0,19.0,1645111943.59375,P12,D12,1,1,1
775,59.0,4.0,19.0,1645111943.625,P12,D12,1,1,1
776,59.0,4.0,19.0,1645111943.65625,P12,D12,1,1,1
777,59.0,4.0,19.0,1645111943.6875,P12,D12,1,1,1
778,59.0,5.0,18.0,1645111943.71875,P12,D12,1,1,1
779,60.0,4.0,19.0,1645111943.75,P12,D12,1,1,1
780,59.0,4.0,19.0,1645111943.78125,P12,D12,1,1,1
781,59.0,4.0,19.0,1645111943.8125,P12,D12,1,1,1
782,59.0,4.0,19.0,1645111943.84375,P12,D12,1,1,1
783,59.0,4.0,18.0,1645111943.875,P12,D12,1,1,1
784,59.0,4.0,19.0,1645111943.90625,P12,D12,1,1,1
785,59.0,4.0,19.0,1645111943.9375,P12,D12,1,1,1
786,59.0,5.0,19.0,1645111943.96875,P12,D12,1,1,1
787,59.0,4.0,19.0,1645111944.0,P12,D12,1,1,1
788,59.0,5.0,19.0,1645111944.03125,P12,D12,1,1,1
789,59.0,4.0,19.0,1645111944.0625,P12,D12,1,1,1
790,59.0,4.0,19.0,1645111944.09375,P12,D12,1,1,1
791,59.0,4.0,19.0,1645111944.125,P12,D12,1,1,1
792,59.0,4.0,19.0,1645111944.15625,P12,D12,1,1,1
793,59.0,5.0,19.0,1645111944.1875,P12,D12,1,1,1
794,59.0,4.0,19.0,1645111944.21875,P12,D12,1,1,1
795,59.0,4.0,19.0,1645111944.25,P12,D12,1,1,1
796,59.0,5.0,18.0,1645111944.28125,P12,D12,1,1,1
797,59.0,4.0,19.0,1645111944.3125,P12,D12,1,1,1
798,59.0,4.0,19.0,1645111944.34375,P12,D12,1,1,1
799,59.0,5.0,19.0,1645111944.375,P12,D12,1,1,1
800,59.0,4.0,19.0,1645111944.40625,P12,D12,1,1,1
801,59.0,4.0,19.0,1645111944.4375,P12,D12,1,1,1
802,59.0,4.0,19.0,1645111944.46875,P12,D12,1,1,1
803,59.0,4.0,19.0,1645111944.5,P12,D12,1,1,1
804,59.0,4.0,19.0,1645111944.53125,P12,D12,1,1,1
805,59.0,4.0,18.0,1645111944.5625,P12,D12,1,1,1
806,59.0,4.0,19.0,1645111944.59375,P12,D12,1,1,1
807,59.0,5.0,19.0,1645111944.625,P12,D12,1,1,1
808,59.0,4.0,19.0,1645111944.65625,P12,D12,1,1,1
809,59.0,4.0,19.0,1645111944.6875,P12,D12,1,1,1
810,59.0,4.0,19.0,1645111944.71875,P12,D12,1,1,1
811,59.0,4.0,19.0,1645111944.75,P12,D12,1,1,1
812,59.0,4.0,18.0,1645111944.78125,P12,D12,1,1,1
813,59.0,4.0,19.0,1645111944.8125,P12,D12,1,1,1
814,59.0,4.0,19.0,1645111944.84375,P12,D12,1,1,1
815,59.0,5.0,18.0,1645111944.875,P12,D12,1,1,1
816,59.0,4.0,19.0,1645111944.90625,P12,D12,1,1,1
817,59.0,5.0,18.0,1645111944.9375,P12,D12,1,1,1
818,59.0,5.0,19.0,1645111944.96875,P12,D12,1,1,1
819,59.0,4.0,19.0,1645111945.0,P12,D12,1,1,1
820,59.0,4.0,19.0,1645111945.03125,P12,D12,1,1,1
821,59.0,4.0,19.0,1645111945.0625,P12,D12,1,1,1
822,59.0,4.0,19.0,1645111945.09375,P12,D12,1,1,1
823,59.0,4.0,19.0,1645111945.125,P12,D12,1,1,1
824,59.0,4.0,19.0,1645111945.15625,P12,D12,1,1,1
825,59.0,4.0,19.0,1645111945.1875,P12,D12,1,1,1
826,59.0,4.0,19.0,1645111945.21875,P12,D12,1,1,1
827,59.0,4.0,19.0,1645111945.25,P12,D12,1,1,1
828,59.0,4.0,19.0,1645111945.28125,P12,D12,1,1,1
829,59.0,5.0,19.0,1645111945.3125,P12,D12,1,1,1
830,59.0,4.0,19.0,1645111945.34375,P12,D12,1,1,1
831,59.0,4.0,19.0,1645111945.375,P12,D12,1,1,1
832,59.0,4.0,19.0,1645111945.40625,P12,D12,1,1,1
833,59.0,4.0,18.0,1645111945.4375,P12,D12,1,1,1
834,59.0,5.0,19.0,1645111945.46875,P12,D12,1,1,1
835,59.0,5.0,19.0,1645111945.5,P12,D12,1,1,1
836,59.0,4.0,19.0,1645111945.53125,P12,D12,1,1,1
837,59.0,4.0,19.0,1645111945.5625,P12,D12,1,1,1
838,59.0,4.0,19.0,1645111945.59375,P12,D12,1,1,1
839,59.0,5.0,19.0,1645111945.625,P12,D12,1,1,1
840,59.0,4.0,19.0,1645111945.65625,P12,D12,1,1,1
841,59.0,4.0,19.0,1645111945.6875,P12,D12,1,1,1
842,59.0,5.0,19.0,1645111945.71875,P12,D12,1,1,1
843,59.0,4.0,19.0,1645111945.75,P12,D12,1,1,1
844,59.0,4.0,18.0,1645111945.78125,P12,D12,1,1,1
845,59.0,4.0,19.0,1645111945.8125,P12,D12,1,1,1
846,59.0,5.0,19.0,1645111945.84375,P12,D12,1,1,1
847,59.0,4.0,19.0,1645111945.875,P12,D12,1,1,1
848,59.0,4.0,19.0,1645111945.90625,P12,D12,1,1,1
849,59.0,5.0,19.0,1645111945.9375,P12,D12,1,1,1
850,59.0,5.0,19.0,1645111945.96875,P12,D12,1,1,1
851,59.0,4.0,19.0,1645111946.0,P12,D12,1,1,1
852,59.0,4.0,19.0,1645111946.03125,P12,D12,1,1,1
853,59.0,4.0,19.0,1645111946.0625,P12,D12,1,1,1
854,59.0,4.0,19.0,1645111946.09375,P12,D12,1,1,1
855,59.0,4.0,19.0,1645111946.125,P12,D12,1,1,1
856,59.0,4.0,19.0,1645111946.15625,P12,D12,1,1,1
857,59.0,4.0,19.0,1645111946.1875,P12,D12,1,1,1
858,59.0,5.0,19.0,1645111946.21875,P12,D12,1,1,1
859,59.0,4.0,19.0,1645111946.25,P12,D12,1,1,1
860,59.0,4.0,19.0,1645111946.28125,P12,D12,1,1,1
861,59.0,4.0,19.0,1645111946.3125,P12,D12,1,1,1
862,59.0,5.0,19.0,1645111946.34375,P12,D12,1,1,1
863,59.0,5.0,19.0,1645111946.375,P12,D12,1,1,1
864,59.0,4.0,19.0,1645111946.40625,P12,D12,1,1,1
865,59.0,4.0,19.0,1645111946.4375,P12,D12,1,1,1
866,59.0,4.0,19.0,1645111946.46875,P12,D12,1,1,1
867,59.0,5.0,19.0,1645111946.5,P12,D12,1,1,1
868,59.0,5.0,19.0,1645111946.53125,P12,D12,1,1,1
869,59.0,4.0,19.0,1645111946.5625,P12,D12,1,1,1
870,59.0,4.0,19.0,1645111946.59375,P12,D12,1,1,1
871,59.0,4.0,19.0,1645111946.625,P12,D12,1,1,1
872,59.0,4.0,19.0,1645111946.65625,P12,D12,1,1,1
873,59.0,5.0,19.0,1645111946.6875,P12,D12,1,1,1
874,59.0,4.0,19.0,1645111946.71875,P12,D12,1,1,1
875,59.0,4.0,19.0,1645111946.75,P12,D12,1,1,1
876,59.0,5.0,19.0,1645111946.78125,P12,D12,1,1,1
877,59.0,4.0,19.0,1645111946.8125,P12,D12,1,1,1
878,59.0,4.0,18.0,1645111946.84375,P12,D12,1,1,1
879,59.0,4.0,19.0,1645111946.875,P12,D12,1,1,1
880,59.0,4.0,19.0,1645111946.90625,P12,D12,1,1,1
881,59.0,5.0,19.0,1645111946.9375,P12,D12,1,1,1
882,59.0,5.0,19.0,1645111946.96875,P12,D12,1,1,1
883,59.0,5.0,19.0,1645111947.0,P12,D12,1,1,1
884,59.0,4.0,19.0,1645111947.03125,P12,D12,1,1,1
885,59.0,5.0,19.0,1645111947.0625,P12,D12,1,1,1
886,59.0,4.0,19.0,1645111947.09375,P12,D12,1,1,1
887,59.0,4.0,19.0,1645111947.125,P12,D12,1,1,1
888,59.0,4.0,19.0,1645111947.15625,P12,D12,1,1,1
889,59.0,4.0,19.0,1645111947.1875,P12,D12,1,1,1
890,59.0,4.0,19.0,1645111947.21875,P12,D12,1,1,1
891,59.0,4.0,19.0,1645111947.25,P12,D12,1,1,1
892,59.0,4.0,19.0,1645111947.28125,P12,D12,1,1,1
893,59.0,4.0,19.0,1645111947.3125,P12,D12,1,1,1
894,59.0,4.0,19.0,1645111947.34375,P12,D12,1,1,1
895,59.0,4.0,18.0,1645111947.375,P12,D12,1,1,1
896,59.0,5.0,19.0,1645111947.40625,P12,D12,1,1,1
897,59.0,4.0,19.0,1645111947.4375,P12,D12,1,1,1
898,59.0,4.0,19.0,1645111947.46875,P12,D12,1,1,1
899,59.0,4.0,19.0,1645111947.5,P12,D12,1,1,1
900,59.0,5.0,19.0,1645111947.53125,P12,D12,1,1,1
901,59.0,4.0,19.0,1645111947.5625,P12,D12,1,1,1
902,59.0,4.0,19.0,1645111947.59375,P12,D12,1,1,1
903,59.0,4.0,19.0,1645111947.625,P12,D12,1,1,1
904,59.0,4.0,19.0,1645111947.65625,P12,D12,1,1,1
905,59.0,4.0,19.0,1645111947.6875,P12,D12,1,1,1
906,59.0,4.0,18.0,1645111947.71875,P12,D12,1,1,1
907,59.0,5.0,19.0,1645111947.75,P12,D12,1,1,1
908,59.0,4.0,19.0,1645111947.78125,P12,D12,1,1,1
909,59.0,4.0,19.0,1645111947.8125,P12,D12,1,1,1
910,59.0,4.0,19.0,1645111947.84375,P12,D12,1,1,1
911,59.0,4.0,18.0,1645111947.875,P12,D12,1,1,1
912,59.0,4.0,19.0,1645111947.90625,P12,D12,1,1,1
913,59.0,4.0,19.0,1645111947.9375,P12,D12,1,1,1
914,59.0,4.0,19.0,1645111947.96875,P12,D12,1,1,1
915,59.0,4.0,19.0,1645111948.0,P12,D12,1,1,1
916,59.0,4.0,19.0,1645111948.03125,P12,D12,1,1,1
917,59.0,4.0,19.0,1645111948.0625,P12,D12,1,1,1
918,59.0,4.0,19.0,1645111948.09375,P12,D12,1,1,1
919,59.0,4.0,19.0,1645111948.125,P12,D12,1,1,1
920,59.0,4.0,19.0,1645111948.15625,P12,D12,1,1,1
921,59.0,4.0,19.0,1645111948.1875,P12,D12,1,1,1
922,59.0,4.0,19.0,1645111948.21875,P12,D12,1,1,1
923,59.0,4.0,19.0,1645111948.25,P12,D12,1,1,1
924,59.0,4.0,19.0,1645111948.28125,P12,D12,1,1,1
925,59.0,4.0,19.0,1645111948.3125,P12,D12,1,1,1
926,59.0,4.0,19.0,1645111948.34375,P12,D12,1,1,1
927,59.0,4.0,19.0,1645111948.375,P12,D12,1,1,1
928,59.0,4.0,19.0,1645111948.40625,P12,D12,1,1,1
929,59.0,4.0,18.0,1645111948.4375,P12,D12,1,1,1
930,59.0,4.0,19.0,1645111948.46875,P12,D12,1,1,1
931,59.0,5.0,19.0,1645111948.5,P12,D12,1,1,1
932,59.0,4.0,19.0,1645111948.53125,P12,D12,1,1,1
933,59.0,4.0,19.0,1645111948.5625,P12,D12,1,1,1
934,59.0,4.0,18.0,1645111948.59375,P12,D12,1,1,1
935,59.0,4.0,19.0,1645111948.625,P12,D12,1,1,1
936,59.0,4.0,18.0,1645111948.65625,P12,D12,1,1,1
937,59.0,4.0,19.0,1645111948.6875,P12,D12,1,1,1
938,59.0,4.0,19.0,1645111948.71875,P12,D12,1,1,1
939,59.0,4.0,19.0,1645111948.75,P12,D12,1,1,1
940,59.0,4.0,18.0,1645111948.78125,P12,D12,1,1,1
941,59.0,4.0,19.0,1645111948.8125,P12,D12,1,1,1
942,59.0,4.0,19.0,1645111948.84375,P12,D12,1,1,1
943,59.0,4.0,19.0,1645111948.875,P12,D12,1,1,1
944,59.0,5.0,19.0,1645111948.90625,P12,D12,1,1,1
945,59.0,5.0,19.0,1645111948.9375,P12,D12,1,1,1
946,59.0,5.0,19.0,1645111948.96875,P12,D12,1,1,1
947,59.0,5.0,19.0,1645111949.0,P12,D12,1,1,1
948,59.0,4.0,19.0,1645111949.03125,P12,D12,1,1,1
949,59.0,5.0,19.0,1645111949.0625,P12,D12,1,1,1
950,59.0,4.0,19.0,1645111949.09375,P12,D12,1,1,1
951,59.0,4.0,19.0,1645111949.125,P12,D12,1,1,1
952,59.0,4.0,19.0,1645111949.15625,P12,D12,1,1,1
953,59.0,4.0,19.0,1645111949.1875,P12,D12,1,1,1
954,59.0,4.0,19.0,1645111949.21875,P12,D12,1,1,1
955,59.0,4.0,19.0,1645111949.25,P12,D12,1,1,1
956,59.0,4.0,19.0,1645111949.28125,P12,D12,1,1,1
957,59.0,4.0,19.0,1645111949.3125,P12,D12,1,1,1
958,59.0,4.0,19.0,1645111949.34375,P12,D12,1,1,1
959,59.0,4.0,19.0,1645111949.375,P12,D12,1,1,1
960,59.0,5.0,19.0,1645111949.40625,P12,D12,1,1,1
961,59.0,5.0,19.0,1645111949.4375,P12,D12,1,1,1
962,59.0,4.0,19.0,1645111949.46875,P12,D12,1,1,1
963,59.0,4.0,18.0,1645111949.5,P12,D12,1,1,1
964,59.0,4.0,19.0,1645111949.53125,P12,D12,1,1,1
965,59.0,5.0,19.0,1645111949.5625,P12,D12,1,1,1
966,59.0,4.0,19.0,1645111949.59375,P12,D12,1,1,1
967,59.0,4.0,19.0,1645111949.625,P12,D12,1,1,1
968,59.0,5.0,19.0,1645111949.65625,P12,D12,1,1,1
969,59.0,4.0,19.0,1645111949.6875,P12,D12,1,1,1
970,59.0,5.0,19.0,1645111949.71875,P12,D12,1,1,1
971,59.0,4.0,19.0,1645111949.75,P12,D12,1,1,1
972,59.0,4.0,19.0,1645111949.78125,P12,D12,1,1,1
973,59.0,5.0,19.0,1645111949.8125,P12,D12,1,1,1
974,59.0,4.0,19.0,1645111949.84375,P12,D12,1,1,1
975,59.0,4.0,19.0,1645111949.875,P12,D12,1,1,1
976,59.0,4.0,19.0,1645111949.90625,P12,D12,1,1,1
977,59.0,4.0,19.0,1645111949.9375,P12,D12,1,1,1
978,59.0,5.0,19.0,1645111949.96875,P12,D12,1,1,1
979,59.0,4.0,19.0,1645111950.0,P12,D12,1,1,1
980,59.0,4.0,19.0,1645111950.03125,P12,D12,1,1,1
981,59.0,4.0,19.0,1645111950.0625,P12,D12,1,1,1
982,59.0,4.0,19.0,1645111950.09375,P12,D12,1,1,1
983,59.0,4.0,19.0,1645111950.125,P12,D12,1,1,1
984,59.0,4.0,19.0,1645111950.15625,P12,D12,1,1,1
985,59.0,4.0,18.0,1645111950.1875,P12,D12,1,1,1
986,59.0,4.0,19.0,1645111950.21875,P12,D12,1,1,1
987,59.0,4.0,19.0,1645111950.25,P12,D12,1,1,1
988,59.0,4.0,19.0,1645111950.28125,P12,D12,1,1,1
989,59.0,4.0,19.0,1645111950.3125,P12,D12,1,1,1
990,59.0,5.0,19.0,1645111950.34375,P12,D12,1,1,1
991,59.0,4.0,19.0,1645111950.375,P12,D12,1,1,1
992,59.0,4.0,19.0,1645111950.40625,P12,D12,1,1,1
993,59.0,4.0,19.0,1645111950.4375,P12,D12,1,1,1
994,59.0,5.0,19.0,1645111950.46875,P12,D12,1,1,1
995,59.0,4.0,19.0,1645111950.5,P12,D12,1,1,1
996,59.0,5.0,19.0,1645111950.53125,P12,D12,1,1,1
997,59.0,4.0,19.0,1645111950.5625,P12,D12,1,1,1
998,59.0,4.0,19.0,1645111950.59375,P12,D12,1,1,1
999,59.0,4.0,19.0,1645111950.625,P12,D12,1,1,1
1000,59.0,4.0,19.0,1645111950.65625,P12,D12,1,1,1
1001,59.0,4.0,19.0,1645111950.6875,P12,D12,1,1,1
1002,59.0,4.0,19.0,1645111950.71875,P12,D12,1,1,1
1003,59.0,5.0,19.0,1645111950.75,P12,D12,1,1,1
1004,59.0,4.0,19.0,1645111950.78125,P12,D12,1,1,1
1005,60.0,4.0,19.0,1645111950.8125,P12,D12,1,1,1
1006,59.0,5.0,19.0,1645111950.84375,P12,D12,1,1,1
1007,59.0,4.0,19.0,1645111950.875,P12,D12,1,1,1
1008,59.0,4.0,19.0,1645111950.90625,P12,D12,1,1,1
1009,59.0,5.0,19.0,1645111950.9375,P12,D12,1,1,1
1010,59.0,5.0,19.0,1645111950.96875,P12,D12,1,1,1
1011,59.0,4.0,19.0,1645111951.0,P12,D12,1,1,1
1012,59.0,4.0,19.0,1645111951.03125,P12,D12,1,1,1
1013,59.0,5.0,19.0,1645111951.0625,P12,D12,1,1,1
1014,59.0,4.0,19.0,1645111951.09375,P12,D12,1,1,1
1015,59.0,4.0,19.0,1645111951.125,P12,D12,1,1,1
1016,59.0,4.0,19.0,1645111951.15625,P12,D12,1,1,1
1017,59.0,4.0,19.0,1645111951.1875,P12,D12,1,1,1
1018,59.0,4.0,19.0,1645111951.21875,P12,D12,1,1,1
1019,59.0,4.0,19.0,1645111951.25,P12,D12,1,1,1
1020,59.0,4.0,19.0,1645111951.28125,P12,D12,1,1,1
1021,59.0,4.0,19.0,1645111951.3125,P12,D12,1,1,1
1022,59.0,5.0,19.0,1645111951.34375,P12,D12,1,1,1
1023,59.0,4.0,19.0,1645111951.375,P12,D12,1,1,1
1024,59.0,4.0,19.0,1645111951.40625,P12,D12,1,1,1
1025,59.0,4.0,19.0,1645111951.4375,P12,D12,1,1,1
1026,59.0,4.0,19.0,1645111951.46875,P12,D12,1,1,1
1027,59.0,4.0,19.0,1645111951.5,P12,D12,1,1,1
1028,59.0,5.0,19.0,1645111951.53125,P12,D12,1,1,1
1029,59.0,4.0,19.0,1645111951.5625,P12,D12,1,1,1
1030,59.0,4.0,19.0,1645111951.59375,P12,D12,1,1,1
1031,59.0,4.0,19.0,1645111951.625,P12,D12,1,1,1
1032,59.0,4.0,19.0,1645111951.65625,P12,D12,1,1,1
1033,59.0,4.0,19.0,1645111951.6875,P12,D12,1,1,1
1034,59.0,4.0,19.0,1645111951.71875,P12,D12,1,1,1
1035,59.0,4.0,19.0,1645111951.75,P12,D12,1,1,1
1036,59.0,5.0,18.0,1645111951.78125,P12,D12,1,1,1
1037,59.0,4.0,19.0,1645111951.8125,P12,D12,1,1,1
1038,59.0,4.0,19.0,1645111951.84375,P12,D12,1,1,1
1039,59.0,4.0,19.0,1645111951.875,P12,D12,1,1,1
1040,59.0,4.0,19.0,1645111951.90625,P12,D12,1,1,1
1041,59.0,4.0,19.0,1645111951.9375,P12,D12,1,1,1
1042,59.0,4.0,19.0,1645111951.96875,P12,D12,1,1,1
1043,59.0,4.0,19.0,1645111952.0,P12,D12,1,1,1
1044,59.0,4.0,19.0,1645111952.03125,P12,D12,1,1,1
1045,59.0,4.0,18.0,1645111952.0625,P12,D12,1,1,1
1046,59.0,4.0,19.0,1645111952.09375,P12,D12,1,1,1
1047,59.0,4.0,19.0,1645111952.125,P12,D12,1,1,1
1048,59.0,4.0,19.0,1645111952.15625,P12,D12,1,1,1
1049,59.0,4.0,19.0,1645111952.1875,P12,D12,1,1,1
1050,59.0,4.0,19.0,1645111952.21875,P12,D12,1,1,1
1051,59.0,4.0,19.0,1645111952.25,P12,D12,1,1,1
1052,59.0,4.0,19.0,1645111952.28125,P12,D12,1,1,1
1053,59.0,4.0,19.0,1645111952.3125,P12,D12,1,1,1
1054,59.0,4.0,19.0,1645111952.34375,P12,D12,1,1,1
1055,59.0,4.0,19.0,1645111952.375,P12,D12,1,1,1
1056,59.0,4.0,19.0,1645111952.40625,P12,D12,1,1,1
1057,59.0,4.0,18.0,1645111952.4375,P12,D12,1,1,1
1058,59.0,4.0,19.0,1645111952.46875,P12,D12,1,1,1
1059,59.0,4.0,19.0,1645111952.5,P12,D12,1,1,1
1060,59.0,5.0,19.0,1645111952.53125,P12,D12,1,1,1
1061,59.0,4.0,19.0,1645111952.5625,P12,D12,1,1,1
1062,59.0,4.0,19.0,1645111952.59375,P12,D12,1,1,1
1063,59.0,4.0,19.0,1645111952.625,P12,D12,1,1,1
1064,59.0,4.0,18.0,1645111952.65625,P12,D12,1,1,1
1065,59.0,5.0,19.0,1645111952.6875,P12,D12,1,1,1
1066,59.0,4.0,19.0,1645111952.71875,P12,D12,1,1,1
1067,59.0,5.0,19.0,1645111952.75,P12,D12,1,1,1
1068,60.0,4.0,19.0,1645111952.78125,P12,D12,1,1,1
1069,59.0,5.0,19.0,1645111952.8125,P12,D12,1,1,1
1070,59.0,4.0,19.0,1645111952.84375,P12,D12,1,1,1
1071,59.0,4.0,19.0,1645111952.875,P12,D12,1,1,1
1072,59.0,4.0,19.0,1645111952.90625,P12,D12,1,1,1
1073,59.0,4.0,19.0,1645111952.9375,P12,D12,1,1,1
1074,59.0,4.0,19.0,1645111952.96875,P12,D12,1,1,1
1075,59.0,4.0,19.0,1645111953.0,P12,D12,1,1,1
1076,59.0,5.0,19.0,1645111953.03125,P12,D12,1,1,1
1077,59.0,4.0,19.0,1645111953.0625,P12,D12,1,1,1
1078,59.0,4.0,19.0,1645111953.09375,P12,D12,1,1,1
1079,59.0,4.0,19.0,1645111953.125,P12,D12,1,1,1
1080,59.0,4.0,19.0,1645111953.15625,P12,D12,1,1,1
1081,59.0,4.0,19.0,1645111953.1875,P12,D12,1,1,1
1082,59.0,4.0,19.0,1645111953.21875,P12,D12,1,1,1
1083,59.0,4.0,18.0,1645111953.25,P12,D12,1,1,1
1084,59.0,4.0,19.0,1645111953.28125,P12,D12,1,1,1
1085,59.0,4.0,19.0,1645111953.3125,P12,D12,1,1,1
1086,59.0,5.0,19.0,1645111953.34375,P12,D12,1,1,1
1087,59.0,5.0,19.0,1645111953.375,P12,D12,1,1,1
1088,59.0,4.0,19.0,1645111953.40625,P12,D12,1,1,1
1089,59.0,5.0,19.0,1645111953.4375,P12,D12,1,1,1
1090,59.0,5.0,18.0,1645111953.46875,P12,D12,1,1,1
1091,59.0,4.0,19.0,1645111953.5,P12,D12,1,1,1
1092,59.0,4.0,19.0,1645111953.53125,P12,D12,1,1,1
1093,59.0,4.0,19.0,1645111953.5625,P12,D12,1,1,1
1094,59.0,5.0,19.0,1645111953.59375,P12,D12,1,1,1
1095,59.0,4.0,19.0,1645111953.625,P12,D12,1,1,1
1096,59.0,4.0,19.0,1645111953.65625,P12,D12,1,1,1
1097,59.0,4.0,19.0,1645111953.6875,P12,D12,1,1,1
1098,59.0,5.0,19.0,1645111953.71875,P12,D12,1,1,1
1099,59.0,4.0,19.0,1645111953.75,P12,D12,1,1,1
1100,59.0,4.0,19.0,1645111953.78125,P12,D12,1,1,1
1101,59.0,4.0,19.0,1645111953.8125,P12,D12,1,1,1
1102,59.0,5.0,19.0,1645111953.84375,P12,D12,1,1,1
1103,59.0,4.0,19.0,1645111953.875,P12,D12,1,1,1
1104,59.0,4.0,19.0,1645111953.90625,P12,D12,1,1,1
1105,59.0,4.0,19.0,1645111953.9375,P12,D12,1,1,1
1106,59.0,4.0,19.0,1645111953.96875,P12,D12,1,1,1
1107,59.0,4.0,19.0,1645111954.0,P12,D12,1,1,1
1108,59.0,5.0,19.0,1645111954.03125,P12,D12,1,1,1
1109,59.0,5.0,19.0,1645111954.0625,P12,D12,1,1,1
1110,59.0,4.0,19.0,1645111954.09375,P12,D12,1,1,1
1111,59.0,5.0,19.0,1645111954.125,P12,D12,1,1,1
1112,59.0,4.0,19.0,1645111954.15625,P12,D12,1,1,1
1113,59.0,4.0,19.0,1645111954.1875,P12,D12,1,1,1
1114,59.0,4.0,19.0,1645111954.21875,P12,D12,1,1,1
1115,59.0,5.0,19.0,1645111954.25,P12,D12,1,1,1
1116,59.0,4.0,19.0,1645111954.28125,P12,D12,1,1,1
1117,59.0,4.0,19.0,1645111954.3125,P12,D12,1,1,1
1118,59.0,4.0,19.0,1645111954.34375,P12,D12,1,1,1
1119,59.0,4.0,19.0,1645111954.375,P12,D12,1,1,1
1120,59.0,4.0,19.0,1645111954.40625,P12,D12,1,1,1
1121,59.0,4.0,19.0,1645111954.4375,P12,D12,1,1,1
1122,59.0,4.0,19.0,1645111954.46875,P12,D12,1,1,1
1123,59.0,5.0,18.0,1645111954.5,P12,D12,1,1,1
1124,59.0,5.0,19.0,1645111954.53125,P12,D12,1,1,1
1125,59.0,4.0,19.0,1645111954.5625,P12,D12,1,1,1
1126,59.0,4.0,19.0,1645111954.59375,P12,D12,1,1,1
1127,59.0,5.0,19.0,1645111954.625,P12,D12,1,1,1
1128,59.0,4.0,19.0,1645111954.65625,P12,D12,1,1,1
1129,59.0,4.0,19.0,1645111954.6875,P12,D12,1,1,1
1130,59.0,5.0,19.0,1645111954.71875,P12,D12,1,1,1
1131,59.0,5.0,19.0,1645111954.75,P12,D12,1,1,1
1132,59.0,5.0,19.0,1645111954.78125,P12,D12,1,1,1
1133,59.0,4.0,19.0,1645111954.8125,P12,D12,1,1,1
1134,59.0,4.0,19.0,1645111954.84375,P12,D12,1,1,1
1135,59.0,4.0,19.0,1645111954.875,P12,D12,1,1,1
1136,59.0,4.0,19.0,1645111954.90625,P12,D12,1,1,1
1137,59.0,5.0,19.0,1645111954.9375,P12,D12,1,1,1
1138,59.0,4.0,19.0,1645111954.96875,P12,D12,1,1,1
1139,59.0,4.0,19.0,1645111955.0,P12,D12,1,1,1
1140,59.0,5.0,19.0,1645111955.03125,P12,D12,1,1,1
1141,59.0,5.0,19.0,1645111955.0625,P12,D12,1,1,1
1142,59.0,5.0,19.0,1645111955.09375,P12,D12,1,1,1
1143,59.0,5.0,19.0,1645111955.125,P12,D12,1,1,1
1144,59.0,4.0,19.0,1645111955.15625,P12,D12,1,1,1
1145,59.0,4.0,19.0,1645111955.1875,P12,D12,1,1,1
1146,59.0,4.0,19.0,1645111955.21875,P12,D12,1,1,1
1147,59.0,5.0,19.0,1645111955.25,P12,D12,1,1,1
1148,59.0,4.0,19.0,1645111955.28125,P12,D12,1,1,1
1149,59.0,4.0,19.0,1645111955.3125,P12,D12,1,1,1
1150,59.0,4.0,19.0,1645111955.34375,P12,D12,1,1,1
1151,59.0,4.0,19.0,1645111955.375,P12,D12,1,1,1
1152,59.0,4.0,19.0,1645111955.40625,P12,D12,1,1,1
1153,59.0,4.0,19.0,1645111955.4375,P12,D12,1,1,1
1154,59.0,4.0,19.0,1645111955.46875,P12,D12,1,1,1
1155,59.0,4.0,19.0,1645111955.5,P12,D12,1,1,1
1156,59.0,4.0,19.0,1645111955.53125,P12,D12,1,1,1
1157,59.0,4.0,19.0,1645111955.5625,P12,D12,1,1,1
1158,59.0,4.0,19.0,1645111955.59375,P12,D12,1,1,1
1159,59.0,4.0,19.0,1645111955.625,P12,D12,1,1,1
1160,59.0,4.0,19.0,1645111955.65625,P12,D12,1,1,1
1161,59.0,4.0,19.0,1645111955.6875,P12,D12,1,1,1
1162,59.0,4.0,19.0,1645111955.71875,P12,D12,1,1,1
1163,59.0,4.0,19.0,1645111955.75,P12,D12,1,1,1
1164,59.0,4.0,19.0,1645111955.78125,P12,D12,1,1,1
1165,59.0,4.0,19.0,1645111955.8125,P12,D12,1,1,1
1166,59.0,4.0,19.0,1645111955.84375,P12,D12,1,1,1
1167,59.0,4.0,19.0,1645111955.875,P12,D12,1,1,1
1168,59.0,4.0,18.0,1645111955.90625,P12,D12,1,1,1
1169,59.0,4.0,19.0,1645111955.9375,P12,D12,1,1,1
1170,59.0,4.0,19.0,1645111955.96875,P12,D12,1,1,1
1171,59.0,4.0,19.0,1645111956.0,P12,D12,1,1,1
1172,59.0,4.0,19.0,1645111956.03125,P12,D12,1,1,1
1173,59.0,4.0,19.0,1645111956.0625,P12,D12,1,1,1
1174,59.0,4.0,19.0,1645111956.09375,P12,D12,1,1,1
1175,59.0,4.0,19.0,1645111956.125,P12,D12,1,1,1
1176,59.0,4.0,18.0,1645111956.15625,P12,D12,1,1,1
1177,59.0,4.0,19.0,1645111956.1875,P12,D12,1,1,1
1178,59.0,4.0,18.0,1645111956.21875,P12,D12,1,1,1
1179,59.0,4.0,19.0,1645111956.25,P12,D12,1,1,1
1180,59.0,4.0,19.0,1645111956.28125,P12,D12,1,1,1
1181,59.0,5.0,19.0,1645111956.3125,P12,D12,1,1,1
1182,59.0,4.0,19.0,1645111956.34375,P12,D12,1,1,1
1183,59.0,4.0,19.0,1645111956.375,P12,D12,1,1,1
1184,59.0,4.0,19.0,1645111956.40625,P12,D12,1,1,1
1185,59.0,4.0,19.0,1645111956.4375,P12,D12,1,1,1
1186,59.0,4.0,19.0,1645111956.46875,P12,D12,1,1,1
1187,59.0,4.0,18.0,1645111956.5,P12,D12,1,1,1
1188,59.0,4.0,18.0,1645111956.53125,P12,D12,1,1,1
1189,59.0,4.0,19.0,1645111956.5625,P12,D12,1,1,1
1190,59.0,4.0,19.0,1645111956.59375,P12,D12,1,1,1
1191,59.0,4.0,19.0,1645111956.625,P12,D12,1,1,1
1192,59.0,4.0,18.0,1645111956.65625,P12,D12,1,1,1
1193,59.0,4.0,19.0,1645111956.6875,P12,D12,1,1,1
1194,59.0,4.0,19.0,1645111956.71875,P12,D12,1,1,1
1195,59.0,4.0,19.0,1645111956.75,P12,D12,1,1,1
1196,59.0,4.0,19.0,1645111956.78125,P12,D12,1,1,1
1197,59.0,4.0,19.0,1645111956.8125,P12,D12,1,1,1
1198,59.0,4.0,19.0,1645111956.84375,P12,D12,1,1,1
1199,59.0,4.0,19.0,1645111956.875,P12,D12,1,1,1
1200,59.0,4.0,19.0,1645111956.90625,P12,D12,1,1,1
1201,59.0,4.0,19.0,1645111956.9375,P12,D12,1,1,1
1202,59.0,4.0,19.0,1645111956.96875,P12,D12,1,1,1
1203,59.0,5.0,19.0,1645111957.0,P12,D12,1,1,1
1204,59.0,4.0,19.0,1645111957.03125,P12,D12,1,1,1
1205,59.0,4.0,18.0,1645111957.0625,P12,D12,1,1,1
1206,59.0,4.0,19.0,1645111957.09375,P12,D12,1,1,1
1207,59.0,4.0,18.0,1645111957.125,P12,D12,1,1,1
1208,59.0,4.0,19.0,1645111957.15625,P12,D12,1,1,1
1209,59.0,4.0,19.0,1645111957.1875,P12,D12,1,1,1
1210,59.0,4.0,18.0,1645111957.21875,P12,D12,1,1,1
1211,59.0,5.0,19.0,1645111957.25,P12,D12,1,1,1
1212,59.0,4.0,19.0,1645111957.28125,P12,D12,1,1,1
1213,59.0,4.0,19.0,1645111957.3125,P12,D12,1,1,1
1214,59.0,4.0,19.0,1645111957.34375,P12,D12,1,1,1
1215,59.0,4.0,19.0,1645111957.375,P12,D12,1,1,1
1216,59.0,4.0,19.0,1645111957.40625,P12,D12,1,1,1
1217,59.0,4.0,19.0,1645111957.4375,P12,D12,1,1,1
1218,59.0,5.0,19.0,1645111957.46875,P12,D12,1,1,1
1219,59.0,4.0,19.0,1645111957.5,P12,D12,1,1,1
1220,59.0,4.0,19.0,1645111957.53125,P12,D12,1,1,1
1221,59.0,4.0,19.0,1645111957.5625,P12,D12,1,1,1
1222,59.0,4.0,19.0,1645111957.59375,P12,D12,1,1,1
1223,59.0,4.0,19.0,1645111957.625,P12,D12,1,1,1
1224,59.0,4.0,19.0,1645111957.65625,P12,D12,1,1,1
1225,59.0,4.0,19.0,1645111957.6875,P12,D12,1,1,1
1226,59.0,5.0,19.0,1645111957.71875,P12,D12,1,1,1
1227,59.0,4.0,19.0,1645111957.75,P12,D12,1,1,1
1228,59.0,4.0,19.0,1645111957.78125,P12,D12,1,1,1
1229,59.0,5.0,19.0,1645111957.8125,P12,D12,1,1,1
1230,59.0,4.0,19.0,1645111957.84375,P12,D12,1,1,1
1231,59.0,4.0,19.0,1645111957.875,P12,D12,1,1,1
1232,59.0,5.0,19.0,1645111957.90625,P12,D12,1,1,1
1233,59.0,4.0,19.0,1645111957.9375,P12,D12,1,1,1
1234,59.0,4.0,19.0,1645111957.96875,P12,D12,1,1,1
1235,59.0,4.0,19.0,1645111958.0,P12,D12,1,1,1
1236,59.0,4.0,19.0,1645111958.03125,P12,D12,1,1,1
1237,59.0,4.0,19.0,1645111958.0625,P12,D12,1,1,1
1238,59.0,4.0,19.0,1645111958.09375,P12,D12,1,1,1
1239,59.0,4.0,19.0,1645111958.125,P12,D12,1,1,1
1240,59.0,4.0,19.0,1645111958.15625,P12,D12,1,1,1
1241,59.0,4.0,19.0,1645111958.1875,P12,D12,1,1,1
1242,59.0,4.0,19.0,1645111958.21875,P12,D12,1,1,1
1243,59.0,4.0,19.0,1645111958.25,P12,D12,1,1,1
1244,59.0,5.0,19.0,1645111958.28125,P12,D12,1,1,1
1245,59.0,4.0,19.0,1645111958.3125,P12,D12,1,1,1
1246,59.0,4.0,19.0,1645111958.34375,P12,D12,1,1,1
1247,59.0,4.0,19.0,1645111958.375,P12,D12,1,1,1
1248,59.0,4.0,19.0,1645111958.40625,P12,D12,1,1,1
1249,59.0,5.0,19.0,1645111958.4375,P12,D12,1,1,1
1250,59.0,4.0,19.0,1645111958.46875,P12,D12,1,1,1
1251,59.0,4.0,19.0,1645111958.5,P12,D12,1,1,1
1252,59.0,4.0,19.0,1645111958.53125,P12,D12,1,1,1
1253,59.0,5.0,19.0,1645111958.5625,P12,D12,1,1,1
1254,59.0,5.0,19.0,1645111958.59375,P12,D12,1,1,1
1255,59.0,4.0,19.0,1645111958.625,P12,D12,1,1,1
1256,59.0,4.0,19.0,1645111958.65625,P12,D12,1,1,1
1257,59.0,4.0,19.0,1645111958.6875,P12,D12,1,1,1
1258,59.0,5.0,19.0,1645111958.71875,P12,D12,1,1,1
1259,59.0,5.0,19.0,1645111958.75,P12,D12,1,1,1
1260,59.0,4.0,19.0,1645111958.78125,P12,D12,1,1,1
1261,59.0,4.0,19.0,1645111958.8125,P12,D12,1,1,1
1262,59.0,4.0,19.0,1645111958.84375,P12,D12,1,1,1
1263,59.0,5.0,19.0,1645111958.875,P12,D12,1,1,1
1264,59.0,5.0,19.0,1645111958.90625,P12,D12,1,1,1
1265,59.0,4.0,19.0,1645111958.9375,P12,D12,1,1,1
1266,59.0,4.0,19.0,1645111958.96875,P12,D12,1,1,1
1267,59.0,4.0,19.0,1645111959.0,P12,D12,1,1,1
1268,59.0,5.0,19.0,1645111959.03125,P12,D12,1,1,1
1269,59.0,4.0,19.0,1645111959.0625,P12,D12,1,1,1
1270,59.0,4.0,19.0,1645111959.09375,P12,D12,1,1,1
1271,59.0,5.0,19.0,1645111959.125,P12,D12,1,1,1
1272,59.0,4.0,19.0,1645111959.15625,P12,D12,1,1,1
1273,59.0,4.0,19.0,1645111959.1875,P12,D12,1,1,1
1274,59.0,4.0,19.0,1645111959.21875,P12,D12,1,1,1
1275,59.0,4.0,19.0,1645111959.25,P12,D12,1,1,1
1276,59.0,5.0,19.0,1645111959.28125,P12,D12,1,1,1
1277,59.0,4.0,19.0,1645111959.3125,P12,D12,1,1,1
1278,59.0,4.0,19.0,1645111959.34375,P12,D12,1,1,1
1279,59.0,4.0,19.0,1645111959.375,P12,D12,1,1,1
1280,59.0,4.0,19.0,1645111959.40625,P12,D12,1,1,1
1281,59.0,4.0,19.0,1645111959.4375,P12,D12,1,1,1
1282,59.0,4.0,19.0,1645111959.46875,P12,D12,1,1,1
1283,59.0,4.0,19.0,1645111959.5,P12,D12,1,1,1
1284,59.0,4.0,19.0,1645111959.53125,P12,D12,1,1,1
1285,59.0,4.0,19.0,1645111959.5625,P12,D12,1,1,1
1286,59.0,4.0,18.0,1645111959.59375,P12,D12,1,1,1
1287,59.0,4.0,19.0,1645111959.625,P12,D12,1,1,1
1288,59.0,5.0,18.0,1645111959.65625,P12,D12,1,1,1
1289,59.0,5.0,19.0,1645111959.6875,P12,D12,1,1,1
1290,59.0,4.0,19.0,1645111959.71875,P12,D12,1,1,1
1291,59.0,4.0,19.0,1645111959.75,P12,D12,1,1,1
1292,59.0,4.0,19.0,1645111959.78125,P12,D12,1,1,1
1293,59.0,4.0,19.0,1645111959.8125,P12,D12,1,1,1
1294,59.0,4.0,18.0,1645111959.84375,P12,D12,1,1,1
1295,59.0,4.0,19.0,1645111959.875,P12,D12,1,1,1
1296,59.0,5.0,19.0,1645111959.90625,P12,D12,1,1,1
1297,59.0,5.0,18.0,1645111959.9375,P12,D12,1,1,1
1298,59.0,4.0,19.0,1645111959.96875,P12,D12,1,1,1
1299,59.0,4.0,19.0,1645111960.0,P12,D12,1,1,1
1300,59.0,4.0,19.0,1645111960.03125,P12,D12,1,1,1
1301,59.0,4.0,19.0,1645111960.0625,P12,D12,1,1,1
1302,59.0,4.0,19.0,1645111960.09375,P12,D12,1,1,1
1303,59.0,4.0,19.0,1645111960.125,P12,D12,1,1,1
1304,59.0,4.0,18.0,1645111960.15625,P12,D12,1,1,1
1305,59.0,4.0,18.0,1645111960.1875,P12,D12,1,1,1
1306,59.0,4.0,19.0,1645111960.21875,P12,D12,1,1,1
1307,59.0,4.0,19.0,1645111960.25,P12,D12,1,1,1
1308,59.0,4.0,19.0,1645111960.28125,P12,D12,1,1,1
1309,59.0,4.0,19.0,1645111960.3125,P12,D12,1,1,1
1310,59.0,4.0,19.0,1645111960.34375,P12,D12,1,1,1
1311,59.0,4.0,19.0,1645111960.375,P12,D12,1,1,1
1312,59.0,4.0,19.0,1645111960.40625,P12,D12,1,1,1
1313,59.0,4.0,19.0,1645111960.4375,P12,D12,1,1,1
1314,59.0,4.0,19.0,1645111960.46875,P12,D12,1,1,1
1315,59.0,4.0,18.0,1645111960.5,P12,D12,1,1,1
1316,59.0,4.0,19.0,1645111960.53125,P12,D12,1,1,1
1317,59.0,4.0,19.0,1645111960.5625,P12,D12,1,1,1
1318,59.0,4.0,18.0,1645111960.59375,P12,D12,1,1,1
1319,60.0,4.0,19.0,1645111960.625,P12,D12,1,1,1
1320,59.0,5.0,19.0,1645111960.65625,P12,D12,1,1,1
1321,59.0,4.0,19.0,1645111960.6875,P12,D12,1,1,1
1322,59.0,5.0,19.0,1645111960.71875,P12,D12,1,1,1
1323,59.0,4.0,19.0,1645111960.75,P12,D12,1,1,1
1324,59.0,4.0,19.0,1645111960.78125,P12,D12,1,1,1
1325,59.0,4.0,19.0,1645111960.8125,P12,D12,1,1,1
1326,59.0,4.0,19.0,1645111960.84375,P12,D12,1,1,1
1327,59.0,4.0,19.0,1645111960.875,P12,D12,1,1,1
1328,59.0,4.0,19.0,1645111960.90625,P12,D12,1,1,1
1329,59.0,5.0,19.0,1645111960.9375,P12,D12,1,1,1
1330,59.0,4.0,19.0,1645111960.96875,P12,D12,1,1,1
1331,59.0,5.0,19.0,1645111961.0,P12,D12,1,1,1
1332,59.0,4.0,19.0,1645111961.03125,P12,D12,1,1,1
1333,59.0,4.0,19.0,1645111961.0625,P12,D12,1,1,1
1334,59.0,4.0,19.0,1645111961.09375,P12,D12,1,1,1
1335,59.0,4.0,19.0,1645111961.125,P12,D12,1,1,1
1336,59.0,4.0,19.0,1645111961.15625,P12,D12,1,1,1
1337,59.0,4.0,19.0,1645111961.1875,P12,D12,1,1,1
1338,59.0,4.0,19.0,1645111961.21875,P12,D12,1,1,1
1339,59.0,5.0,19.0,1645111961.25,P12,D12,1,1,1
1340,59.0,4.0,19.0,1645111961.28125,P12,D12,1,1,1
1341,59.0,4.0,19.0,1645111961.3125,P12,D12,1,1,1
1342,59.0,4.0,19.0,1645111961.34375,P12,D12,1,1,1
1343,59.0,4.0,19.0,1645111961.375,P12,D12,1,1,1
1344,59.0,4.0,19.0,1645111961.40625,P12,D12,1,1,1
1345,59.0,5.0,19.0,1645111961.4375,P12,D12,1,1,1
1346,59.0,4.0,18.0,1645111961.46875,P12,D12,1,1,1
1347,59.0,4.0,19.0,1645111961.5,P12,D12,1,1,1
1348,59.0,4.0,19.0,1645111961.53125,P12,D12,1,1,1
1349,59.0,4.0,19.0,1645111961.5625,P12,D12,1,1,1
1350,59.0,4.0,19.0,1645111961.59375,P12,D12,1,1,1
1351,59.0,5.0,19.0,1645111961.625,P12,D12,1,1,1
1352,59.0,5.0,19.0,1645111961.65625,P12,D12,1,1,1
1353,59.0,4.0,19.0,1645111961.6875,P12,D12,1,1,1
1354,59.0,4.0,19.0,1645111961.71875,P12,D12,1,1,1
1355,59.0,5.0,19.0,1645111961.75,P12,D12,1,1,1
1356,59.0,4.0,19.0,1645111961.78125,P12,D12,1,1,1
1357,59.0,4.0,19.0,1645111961.8125,P12,D12,1,1,1
1358,59.0,4.0,19.0,1645111961.84375,P12,D12,1,1,1
1359,59.0,5.0,19.0,1645111961.875,P12,D12,1,1,1
1360,59.0,5.0,19.0,1645111961.90625,P12,D12,1,1,1
1361,59.0,4.0,19.0,1645111961.9375,P12,D12,1,1,1
1362,59.0,4.0,19.0,1645111961.96875,P12,D12,1,1,1
1363,59.0,4.0,19.0,1645111962.0,P12,D12,1,1,1
1364,59.0,4.0,19.0,1645111962.03125,P12,D12,1,1,1
1365,59.0,5.0,19.0,1645111962.0625,P12,D12,1,1,1
1366,59.0,4.0,19.0,1645111962.09375,P12,D12,1,1,1
1367,59.0,4.0,19.0,1645111962.125,P12,D12,1,1,1
1368,59.0,4.0,19.0,1645111962.15625,P12,D12,1,1,1
1369,59.0,4.0,19.0,1645111962.1875,P12,D12,1,1,1
1370,59.0,4.0,19.0,1645111962.21875,P12,D12,1,1,1
1371,59.0,5.0,19.0,1645111962.25,P12,D12,1,1,1
1372,59.0,5.0,19.0,1645111962.28125,P12,D12,1,1,1
1373,59.0,5.0,19.0,1645111962.3125,P12,D12,1,1,1
1374,59.0,5.0,19.0,1645111962.34375,P12,D12,1,1,1
1375,59.0,4.0,19.0,1645111962.375,P12,D12,1,1,1
1376,59.0,4.0,19.0,1645111962.40625,P12,D12,1,1,1
1377,59.0,4.0,19.0,1645111962.4375,P12,D12,1,1,1
1378,59.0,5.0,19.0,1645111962.46875,P12,D12,1,1,1
1379,59.0,4.0,19.0,1645111962.5,P12,D12,1,1,1
1380,59.0,4.0,19.0,1645111962.53125,P12,D12,1,1,1
1381,59.0,5.0,19.0,1645111962.5625,P12,D12,1,1,1
1382,59.0,5.0,19.0,1645111962.59375,P12,D12,1,1,1
1383,58.0,5.0,19.0,1645111962.625,P12,D12,1,1,1
1384,59.0,4.0,19.0,1645111962.65625,P12,D12,1,1,1
1385,59.0,4.0,19.0,1645111962.6875,P12,D12,1,1,1
1386,59.0,5.0,19.0,1645111962.71875,P12,D12,1,1,1
1387,59.0,4.0,19.0,1645111962.75,P12,D12,1,1,1
1388,59.0,4.0,19.0,1645111962.78125,P12,D12,1,1,1
1389,59.0,5.0,19.0,1645111962.8125,P12,D12,1,1,1
1390,59.0,4.0,19.0,1645111962.84375,P12,D12,1,1,1
1391,59.0,4.0,19.0,1645111962.875,P12,D12,1,1,1
1392,59.0,4.0,19.0,1645111962.90625,P12,D12,1,1,1
1393,59.0,4.0,19.0,1645111962.9375,P12,D12,1,1,1
1394,59.0,4.0,19.0,1645111962.96875,P12,D12,1,1,1
1395,59.0,4.0,19.0,1645111963.0,P12,D12,1,1,1
1396,59.0,4.0,19.0,1645111963.03125,P12,D12,1,1,1
1397,59.0,4.0,18.0,1645111963.0625,P12,D12,1,1,1
1398,59.0,4.0,18.0,1645111963.09375,P12,D12,1,1,1
1399,59.0,4.0,19.0,1645111963.125,P12,D12,1,1,1
1400,59.0,4.0,19.0,1645111963.15625,P12,D12,1,1,1
1401,59.0,4.0,19.0,1645111963.1875,P12,D12,1,1,1
1402,59.0,4.0,18.0,1645111963.21875,P12,D12,1,1,1
1403,59.0,4.0,19.0,1645111963.25,P12,D12,1,1,1
1404,59.0,4.0,19.0,1645111963.28125,P12,D12,1,1,1
1405,59.0,4.0,19.0,1645111963.3125,P12,D12,1,1,1
1406,59.0,4.0,19.0,1645111963.34375,P12,D12,1,1,1
1407,59.0,4.0,19.0,1645111963.375,P12,D12,1,1,1
1408,59.0,4.0,19.0,1645111963.40625,P12,D12,1,1,1
1409,59.0,4.0,19.0,1645111963.4375,P12,D12,1,1,1
1410,59.0,5.0,19.0,1645111963.46875,P12,D12,1,1,1
1411,59.0,4.0,19.0,1645111963.5,P12,D12,1,1,1
1412,59.0,4.0,19.0,1645111963.53125,P12,D12,1,1,1
1413,59.0,4.0,19.0,1645111963.5625,P12,D12,1,1,1
1414,59.0,4.0,19.0,1645111963.59375,P12,D12,1,1,1
1415,60.0,4.0,19.0,1645111963.625,P12,D12,1,1,1
1416,59.0,4.0,19.0,1645111963.65625,P12,D12,1,1,1
1417,59.0,4.0,19.0,1645111963.6875,P12,D12,1,1,1
1418,59.0,4.0,19.0,1645111963.71875,P12,D12,1,1,1
1419,59.0,4.0,19.0,1645111963.75,P12,D12,1,1,1
1420,59.0,4.0,19.0,1645111963.78125,P12,D12,1,1,1
1421,59.0,4.0,19.0,1645111963.8125,P12,D12,1,1,1
1422,59.0,4.0,18.0,1645111963.84375,P12,D12,1,1,1
1423,59.0,4.0,19.0,1645111963.875,P12,D12,1,1,1
1424,59.0,4.0,19.0,1645111963.90625,P12,D12,1,1,1
1425,59.0,4.0,19.0,1645111963.9375,P12,D12,1,1,1
1426,59.0,4.0,18.0,1645111963.96875,P12,D12,1,1,1
1427,59.0,4.0,19.0,1645111964.0,P12,D12,1,1,1
1428,59.0,4.0,19.0,1645111964.03125,P12,D12,1,1,1
1429,59.0,4.0,19.0,1645111964.0625,P12,D12,1,1,1
1430,59.0,4.0,19.0,1645111964.09375,P12,D12,1,1,1
1431,59.0,4.0,19.0,1645111964.125,P12,D12,1,1,1
1432,59.0,4.0,19.0,1645111964.15625,P12,D12,1,1,1
1433,59.0,4.0,19.0,1645111964.1875,P12,D12,1,1,1
1434,59.0,4.0,19.0,1645111964.21875,P12,D12,1,1,1
1435,59.0,4.0,18.0,1645111964.25,P12,D12,1,1,1
1436,59.0,4.0,19.0,1645111964.28125,P12,D12,1,1,1
1437,59.0,4.0,19.0,1645111964.3125,P12,D12,1,1,1
1438,59.0,5.0,19.0,1645111964.34375,P12,D12,1,1,1
1439,59.0,4.0,19.0,1645111964.375,P12,D12,1,1,1
1440,59.0,4.0,19.0,1645111964.40625,P12,D12,1,1,1
1441,59.0,4.0,19.0,1645111964.4375,P12,D12,1,1,1
1442,59.0,4.0,19.0,1645111964.46875,P12,D12,1,1,1
1443,59.0,5.0,19.0,1645111964.5,P12,D12,1,1,1
1444,59.0,4.0,19.0,1645111964.53125,P12,D12,1,1,1
1445,59.0,5.0,19.0,1645111964.5625,P12,D12,1,1,1
1446,59.0,5.0,19.0,1645111964.59375,P12,D12,1,1,1
1447,59.0,4.0,19.0,1645111964.625,P12,D12,1,1,1
1448,59.0,4.0,19.0,1645111964.65625,P12,D12,1,1,1
1449,59.0,5.0,19.0,1645111964.6875,P12,D12,1,1,1
1450,59.0,4.0,19.0,1645111964.71875,P12,D12,1,1,1
1451,59.0,4.0,19.0,1645111964.75,P12,D12,1,1,1
1452,59.0,4.0,19.0,1645111964.78125,P12,D12,1,1,1
1453,59.0,4.0,19.0,1645111964.8125,P12,D12,1,1,1
1454,59.0,4.0,19.0,1645111964.84375,P12,D12,1,1,1
1455,59.0,4.0,19.0,1645111964.875,P12,D12,1,1,1
1456,59.0,4.0,19.0,1645111964.90625,P12,D12,1,1,1
1457,59.0,4.0,19.0,1645111964.9375,P12,D12,1,1,1
1458,59.0,4.0,19.0,1645111964.96875,P12,D12,1,1,1
1459,59.0,4.0,19.0,1645111965.0,P12,D12,1,1,1
1460,59.0,4.0,19.0,1645111965.03125,P12,D12,1,1,1
1461,59.0,4.0,19.0,1645111965.0625,P12,D12,1,1,1
1462,59.0,4.0,19.0,1645111965.09375,P12,D12,1,1,1
1463,59.0,4.0,19.0,1645111965.125,P12,D12,1,1,1
1464,59.0,4.0,19.0,1645111965.15625,P12,D12,1,1,1
1465,59.0,4.0,19.0,1645111965.1875,P12,D12,1,1,1
1466,59.0,4.0,19.0,1645111965.21875,P12,D12,1,1,1
1467,59.0,4.0,19.0,1645111965.25,P12,D12,1,1,1
1468,60.0,4.0,19.0,1645111965.28125,P12,D12,1,1,1
1469,59.0,4.0,19.0,1645111965.3125,P12,D12,1,1,1
1470,60.0,4.0,19.0,1645111965.34375,P12,D12,1,1,1
1471,59.0,4.0,19.0,1645111965.375,P12,D12,1,1,1
1472,59.0,4.0,19.0,1645111965.40625,P12,D12,1,1,1
1473,59.0,4.0,19.0,1645111965.4375,P12,D12,1,1,1
1474,59.0,4.0,19.0,1645111965.46875,P12,D12,1,1,1
1475,59.0,4.0,19.0,1645111965.5,P12,D12,1,1,1
1476,59.0,4.0,19.0,1645111965.53125,P12,D12,1,1,1
1477,59.0,4.0,19.0,1645111965.5625,P12,D12,1,1,1
1478,59.0,5.0,19.0,1645111965.59375,P12,D12,1,1,1
1479,59.0,4.0,19.0,1645111965.625,P12,D12,1,1,1
1480,59.0,4.0,19.0,1645111965.65625,P12,D12,1,1,1
1481,59.0,4.0,19.0,1645111965.6875,P12,D12,1,1,1
1482,59.0,4.0,19.0,1645111965.71875,P12,D12,1,1,1
1483,59.0,4.0,19.0,1645111965.75,P12,D12,1,1,1
1484,59.0,4.0,19.0,1645111965.78125,P12,D12,1,1,1
1485,59.0,4.0,19.0,1645111965.8125,P12,D12,1,1,1
1486,59.0,4.0,19.0,1645111965.84375,P12,D12,1,1,1
1487,59.0,4.0,19.0,1645111965.875,P12,D12,1,1,1
1488,59.0,5.0,19.0,1645111965.90625,P12,D12,1,1,1
1489,59.0,4.0,19.0,1645111965.9375,P12,D12,1,1,1
1490,59.0,4.0,19.0,1645111965.96875,P12,D12,1,1,1
1491,59.0,5.0,19.0,1645111966.0,P12,D12,1,1,1
1492,59.0,5.0,19.0,1645111966.03125,P12,D12,1,1,1
1493,59.0,4.0,19.0,1645111966.0625,P12,D12,1,1,1
1494,59.0,4.0,19.0,1645111966.09375,P12,D12,1,1,1
1495,59.0,4.0,19.0,1645111966.125,P12,D12,1,1,1
1496,59.0,4.0,19.0,1645111966.15625,P12,D12,1,1,1
1497,59.0,4.0,19.0,1645111966.1875,P12,D12,1,1,1
1498,59.0,4.0,19.0,1645111966.21875,P12,D12,1,1,1
1499,59.0,5.0,19.0,1645111966.25,P12,D12,1,1,1
1500,59.0,5.0,19.0,1645111966.28125,P12,D12,1,1,1
1501,59.0,5.0,19.0,1645111966.3125,P12,D12,1,1,1
1502,59.0,4.0,19.0,1645111966.34375,P12,D12,1,1,1
1503,59.0,5.0,19.0,1645111966.375,P12,D12,1,1,1
1504,59.0,4.0,19.0,1645111966.40625,P12,D12,1,1,1
1505,59.0,4.0,19.0,1645111966.4375,P12,D12,1,1,1
1506,59.0,4.0,19.0,1645111966.46875,P12,D12,1,1,1
1507,59.0,4.0,19.0,1645111966.5,P12,D12,1,1,1
1508,59.0,4.0,19.0,1645111966.53125,P12,D12,1,1,1
1509,59.0,4.0,19.0,1645111966.5625,P12,D12,1,1,1
1510,59.0,4.0,19.0,1645111966.59375,P12,D12,1,1,1
1511,59.0,4.0,19.0,1645111966.625,P12,D12,1,1,1
1512,59.0,4.0,19.0,1645111966.65625,P12,D12,1,1,1
1513,59.0,4.0,19.0,1645111966.6875,P12,D12,1,1,1
1514,59.0,4.0,19.0,1645111966.71875,P12,D12,1,1,1
1515,59.0,4.0,19.0,1645111966.75,P12,D12,1,1,1
1516,59.0,4.0,19.0,1645111966.78125,P12,D12,1,1,1
1517,59.0,4.0,19.0,1645111966.8125,P12,D12,1,1,1
1518,59.0,4.0,19.0,1645111966.84375,P12,D12,1,1,1
1519,59.0,4.0,19.0,1645111966.875,P12,D12,1,1,1
1520,59.0,4.0,19.0,1645111966.90625,P12,D12,1,1,1
1521,59.0,4.0,19.0,1645111966.9375,P12,D12,1,1,1
1522,59.0,4.0,19.0,1645111966.96875,P12,D12,1,1,1
1523,59.0,4.0,19.0,1645111967.0,P12,D12,1,1,1
1524,59.0,4.0,19.0,1645111967.03125,P12,D12,1,1,1
