,acc_x,acc_y,acc_z,timestamp,participant,document,val,arou,eng
0,59.0,6.0,18.0,1645111988.84375,P12,D13,0,0,0
1,59.0,6.0,18.0,1645111988.875,P12,D13,0,0,0
2,59.0,6.0,18.0,1645111988.90625,P12,D13,0,0,0
3,59.0,6.0,18.0,1645111988.9375,P12,D13,0,0,0
4,59.0,6.0,18.0,1645111988.96875,P12,D13,0,0,0
5,59.0,6.0,18.0,1645111989.0,P12,D13,0,0,0
6,59.0,6.0,18.0,1645111989.03125,P12,D13,0,0,0
7,59.0,6.0,18.0,1645111989.0625,P12,D13,0,0,0
8,59.0,6.0,18.0,1645111989.09375,P12,D13,0,0,0
9,59.0,6.0,18.0,1645111989.125,P12,D13,0,0,0
10,59.0,6.0,18.0,1645111989.15625,P12,D13,0,0,0
11,59.0,6.0,18.0,1645111989.1875,P12,D13,0,0,0
12,59.0,6.0,18.0,1645111989.21875,P12,D13,0,0,0
13,59.0,6.0,18.0,1645111989.25,P12,D13,0,0,0
14,59.0,6.0,18.0,1645111989.28125,P12,D13,0,0,0
15,59.0,6.0,18.0,1645111989.3125,P12,D13,0,0,0
16,59.0,6.0,18.0,1645111989.34375,P12,D13,0,0,0
17,59.0,6.0,18.0,1645111989.375,P12,D13,0,0,0
18,59.0,6.0,18.0,1645111989.40625,P12,D13,0,0,0
19,59.0,6.0,18.0,1645111989.4375,P12,D13,0,0,0
20,59.0,6.0,18.0,1645111989.46875,P12,D13,0,0,0
21,59.0,6.0,18.0,1645111989.5,P12,D13,0,0,0
22,59.0,6.0,18.0,1645111989.53125,P12,D13,0,0,0
23,59.0,6.0,18.0,1645111989.5625,P12,D13,0,0,0
24,59.0,6.0,18.0,1645111989.59375,P12,D13,0,0,0
25,59.0,6.0,18.0,1645111989.625,P12,D13,0,0,0
26,59.0,6.0,18.0,1645111989.65625,P12,D13,0,0,0
27,59.0,6.0,18.0,1645111989.6875,P12,D13,0,0,0
28,59.0,6.0,18.0,1645111989.71875,P12,D13,0,0,0
29,59.0,6.0,18.0,1645111989.75,P12,D13,0,0,0
30,59.0,6.0,18.0,1645111989.78125,P12,D13,0,0,0
31,59.0,6.0,18.0,1645111989.8125,P12,D13,0,0,0
32,59.0,6.0,18.0,1645111989.84375,P12,D13,0,0,0
33,60.0,6.0,18.0,1645111989.875,P12,D13,0,0,0
34,59.0,6.0,18.0,1645111989.90625,P12,D13,0,0,0
35,59.0,6.0,18.0,1645111989.9375,P12,D13,0,0,0
36,59.0,6.0,18.0,1645111989.96875,P12,D13,0,0,0
37,59.0,6.0,18.0,1645111990.0,P12,D13,0,0,0
38,59.0,6.0,18.0,1645111990.03125,P12,D13,0,0,0
39,59.0,6.0,18.0,1645111990.0625,P12,D13,0,0,0
40,59.0,6.0,18.0,1645111990.09375,P12,D13,0,0,0
41,59.0,6.0,18.0,1645111990.125,P12,D13,0,0,0
42,59.0,6.0,18.0,1645111990.15625,P12,D13,0,0,0
43,59.0,6.0,18.0,1645111990.1875,P12,D13,0,0,0
44,59.0,6.0,18.0,1645111990.21875,P12,D13,0,0,0
45,59.0,6.0,18.0,1645111990.25,P12,D13,0,0,0
46,59.0,6.0,18.0,1645111990.28125,P12,D13,0,0,0
47,59.0,6.0,18.0,1645111990.3125,P12,D13,0,0,0
48,59.0,6.0,18.0,1645111990.34375,P12,D13,0,0,0
49,59.0,6.0,18.0,1645111990.375,P12,D13,0,0,0
50,59.0,6.0,18.0,1645111990.40625,P12,D13,0,0,0
51,59.0,6.0,18.0,1645111990.4375,P12,D13,0,0,0
52,59.0,6.0,18.0,1645111990.46875,P12,D13,0,0,0
53,59.0,6.0,18.0,1645111990.5,P12,D13,0,0,0
54,59.0,6.0,18.0,1645111990.53125,P12,D13,0,0,0
55,59.0,6.0,18.0,1645111990.5625,P12,D13,0,0,0
56,59.0,6.0,18.0,1645111990.59375,P12,D13,0,0,0
57,60.0,6.0,18.0,1645111990.625,P12,D13,0,0,0
58,59.0,6.0,18.0,1645111990.65625,P12,D13,0,0,0
59,60.0,6.0,18.0,1645111990.6875,P12,D13,0,0,0
60,60.0,6.0,18.0,1645111990.71875,P12,D13,0,0,0
61,59.0,6.0,18.0,1645111990.75,P12,D13,0,0,0
62,59.0,6.0,18.0,1645111990.78125,P12,D13,0,0,0
63,59.0,6.0,18.0,1645111990.8125,P12,D13,0,0,0
64,59.0,6.0,18.0,1645111990.84375,P12,D13,0,0,0
65,59.0,6.0,18.0,1645111990.875,P12,D13,0,0,0
66,60.0,6.0,18.0,1645111990.90625,P12,D13,0,0,0
67,59.0,6.0,18.0,1645111990.9375,P12,D13,0,0,0
68,59.0,6.0,18.0,1645111990.96875,P12,D13,0,0,0
69,59.0,6.0,18.0,1645111991.0,P12,D13,0,0,0
70,59.0,6.0,18.0,1645111991.03125,P12,D13,0,0,0
71,59.0,6.0,18.0,1645111991.0625,P12,D13,0,0,0
72,59.0,6.0,18.0,1645111991.09375,P12,D13,0,0,0
73,59.0,6.0,18.0,1645111991.125,P12,D13,0,0,0
74,59.0,6.0,18.0,1645111991.15625,P12,D13,0,0,0
75,59.0,6.0,18.0,1645111991.1875,P12,D13,0,0,0
76,59.0,6.0,18.0,1645111991.21875,P12,D13,0,0,0
77,59.0,6.0,18.0,1645111991.25,P12,D13,0,0,0
78,59.0,6.0,18.0,1645111991.28125,P12,D13,0,0,0
79,59.0,6.0,18.0,1645111991.3125,P12,D13,0,0,0
80,59.0,6.0,18.0,1645111991.34375,P12,D13,0,0,0
81,59.0,6.0,18.0,1645111991.375,P12,D13,0,0,0
82,59.0,6.0,18.0,1645111991.40625,P12,D13,0,0,0
83,59.0,6.0,18.0,1645111991.4375,P12,D13,0,0,0
84,59.0,6.0,18.0,1645111991.46875,P12,D13,0,0,0
85,59.0,6.0,18.0,1645111991.5,P12,D13,0,0,0
86,59.0,6.0,18.0,1645111991.53125,P12,D13,0,0,0
87,59.0,6.0,18.0,1645111991.5625,P12,D13,0,0,0
88,59.0,6.0,18.0,1645111991.59375,P12,D13,0,0,0
89,59.0,6.0,18.0,1645111991.625,P12,D13,0,0,0
90,60.0,6.0,18.0,1645111991.65625,P12,D13,0,0,0
91,59.0,6.0,18.0,1645111991.6875,P12,D13,0,0,0
92,59.0,6.0,18.0,1645111991.71875,P12,D13,0,0,0
93,59.0,6.0,18.0,1645111991.75,P12,D13,0,0,0
94,59.0,6.0,18.0,1645111991.78125,P12,D13,0,0,0
95,59.0,6.0,18.0,1645111991.8125,P12,D13,0,0,0
96,59.0,6.0,18.0,1645111991.84375,P12,D13,0,0,0
97,59.0,6.0,18.0,1645111991.875,P12,D13,0,0,0
98,59.0,6.0,18.0,1645111991.90625,P12,D13,0,0,0
99,59.0,6.0,18.0,1645111991.9375,P12,D13,0,0,0
100,59.0,6.0,18.0,1645111991.96875,P12,D13,0,0,0
101,59.0,6.0,18.0,1645111992.0,P12,D13,0,0,0
102,59.0,6.0,18.0,1645111992.03125,P12,D13,0,0,0
103,59.0,6.0,18.0,1645111992.0625,P12,D13,0,0,0
104,59.0,6.0,18.0,1645111992.09375,P12,D13,0,0,0
105,59.0,6.0,18.0,1645111992.125,P12,D13,0,0,0
106,59.0,6.0,18.0,1645111992.15625,P12,D13,0,0,0
107,59.0,6.0,18.0,1645111992.1875,P12,D13,0,0,0
108,59.0,6.0,18.0,1645111992.21875,P12,D13,0,0,0
109,59.0,6.0,18.0,1645111992.25,P12,D13,0,0,0
110,59.0,6.0,18.0,1645111992.28125,P12,D13,0,0,0
111,59.0,6.0,18.0,1645111992.3125,P12,D13,0,0,0
112,59.0,6.0,18.0,1645111992.34375,P12,D13,0,0,0
113,59.0,6.0,18.0,1645111992.375,P12,D13,0,0,0
114,59.0,6.0,18.0,1645111992.40625,P12,D13,0,0,0
115,59.0,6.0,18.0,1645111992.4375,P12,D13,0,0,0
116,59.0,6.0,18.0,1645111992.46875,P12,D13,0,0,0
117,59.0,6.0,18.0,1645111992.5,P12,D13,0,0,0
118,59.0,6.0,18.0,1645111992.53125,P12,D13,0,0,0
119,59.0,6.0,18.0,1645111992.5625,P12,D13,0,0,0
120,59.0,6.0,18.0,1645111992.59375,P12,D13,0,0,0
121,59.0,6.0,18.0,1645111992.625,P12,D13,0,0,0
122,59.0,6.0,18.0,1645111992.65625,P12,D13,0,0,0
123,59.0,6.0,18.0,1645111992.6875,P12,D13,0,0,0
124,59.0,6.0,18.0,1645111992.71875,P12,D13,0,0,0
125,59.0,6.0,18.0,1645111992.75,P12,D13,0,0,0
126,59.0,6.0,18.0,1645111992.78125,P12,D13,0,0,0
127,59.0,6.0,18.0,1645111992.8125,P12,D13,0,0,0
128,59.0,6.0,18.0,1645111992.84375,P12,D13,0,0,0
129,59.0,6.0,18.0,1645111992.875,P12,D13,0,0,0
130,59.0,6.0,18.0,1645111992.90625,P12,D13,0,0,0
131,60.0,6.0,18.0,1645111992.9375,P12,D13,0,0,0
132,60.0,6.0,18.0,1645111992.96875,P12,D13,0,0,0
133,59.0,6.0,18.0,1645111993.0,P12,D13,0,0,0
134,59.0,6.0,18.0,1645111993.03125,P12,D13,0,0,0
135,59.0,6.0,18.0,1645111993.0625,P12,D13,0,0,0
136,59.0,6.0,18.0,1645111993.09375,P12,D13,0,0,0
137,59.0,6.0,18.0,1645111993.125,P12,D13,0,0,0
138,59.0,6.0,18.0,1645111993.15625,P12,D13,0,0,0
139,59.0,6.0,18.0,1645111993.1875,P12,D13,0,0,0
140,59.0,6.0,18.0,1645111993.21875,P12,D13,0,0,0
141,59.0,6.0,18.0,1645111993.25,P12,D13,0,0,0
142,59.0,6.0,18.0,1645111993.28125,P12,D13,0,0,0
143,59.0,6.0,18.0,1645111993.3125,P12,D13,0,0,0
144,59.0,6.0,18.0,1645111993.34375,P12,D13,0,0,0
145,59.0,6.0,18.0,1645111993.375,P12,D13,0,0,0
146,59.0,6.0,18.0,1645111993.40625,P12,D13,0,0,0
147,59.0,6.0,18.0,1645111993.4375,P12,D13,0,0,0
148,59.0,6.0,18.0,1645111993.46875,P12,D13,0,0,0
149,59.0,6.0,18.0,1645111993.5,P12,D13,0,0,0
150,59.0,6.0,18.0,1645111993.53125,P12,D13,0,0,0
151,59.0,6.0,18.0,1645111993.5625,P12,D13,0,0,0
152,59.0,6.0,18.0,1645111993.59375,P12,D13,0,0,0
153,59.0,6.0,18.0,1645111993.625,P12,D13,0,0,0
154,59.0,6.0,18.0,1645111993.65625,P12,D13,0,0,0
155,59.0,6.0,18.0,1645111993.6875,P12,D13,0,0,0
156,59.0,6.0,18.0,1645111993.71875,P12,D13,0,0,0
157,59.0,6.0,18.0,1645111993.75,P12,D13,0,0,0
158,59.0,6.0,18.0,1645111993.78125,P12,D13,0,0,0
159,59.0,6.0,18.0,1645111993.8125,P12,D13,0,0,0
160,59.0,6.0,18.0,1645111993.84375,P12,D13,0,0,0
161,59.0,6.0,18.0,1645111993.875,P12,D13,0,0,0
162,59.0,6.0,18.0,1645111993.90625,P12,D13,0,0,0
163,59.0,6.0,18.0,1645111993.9375,P12,D13,0,0,0
164,59.0,6.0,18.0,1645111993.96875,P12,D13,0,0,0
165,59.0,6.0,18.0,1645111994.0,P12,D13,0,0,0
166,59.0,6.0,18.0,1645111994.03125,P12,D13,0,0,0
167,59.0,6.0,18.0,1645111994.0625,P12,D13,0,0,0
168,59.0,6.0,18.0,1645111994.09375,P12,D13,0,0,0
169,59.0,6.0,18.0,1645111994.125,P12,D13,0,0,0
170,59.0,6.0,18.0,1645111994.15625,P12,D13,0,0,0
171,59.0,6.0,18.0,1645111994.1875,P12,D13,0,0,0
172,59.0,6.0,18.0,1645111994.21875,P12,D13,0,0,0
173,59.0,6.0,18.0,1645111994.25,P12,D13,0,0,0
174,59.0,6.0,18.0,1645111994.28125,P12,D13,0,0,0
175,59.0,6.0,18.0,1645111994.3125,P12,D13,0,0,0
176,59.0,6.0,18.0,1645111994.34375,P12,D13,0,0,0
177,59.0,6.0,18.0,1645111994.375,P12,D13,0,0,0
178,59.0,6.0,18.0,1645111994.40625,P12,D13,0,0,0
179,59.0,6.0,18.0,1645111994.4375,P12,D13,0,0,0
180,59.0,6.0,18.0,1645111994.46875,P12,D13,0,0,0
181,59.0,6.0,18.0,1645111994.5,P12,D13,0,0,0
182,59.0,6.0,18.0,1645111994.53125,P12,D13,0,0,0
183,59.0,6.0,18.0,1645111994.5625,P12,D13,0,0,0
184,59.0,6.0,18.0,1645111994.59375,P12,D13,0,0,0
185,59.0,6.0,18.0,1645111994.625,P12,D13,0,0,0
186,59.0,6.0,18.0,1645111994.65625,P12,D13,0,0,0
187,59.0,6.0,18.0,1645111994.6875,P12,D13,0,0,0
188,59.0,6.0,18.0,1645111994.71875,P12,D13,0,0,0
189,59.0,6.0,18.0,1645111994.75,P12,D13,0,0,0
190,59.0,6.0,18.0,1645111994.78125,P12,D13,0,0,0
191,59.0,6.0,18.0,1645111994.8125,P12,D13,0,0,0
192,59.0,6.0,18.0,1645111994.84375,P12,D13,0,0,0
193,59.0,6.0,18.0,1645111994.875,P12,D13,0,0,0
194,59.0,6.0,18.0,1645111994.90625,P12,D13,0,0,0
195,59.0,6.0,18.0,1645111994.9375,P12,D13,0,0,0
196,59.0,6.0,18.0,1645111994.96875,P12,D13,0,0,0
197,59.0,6.0,18.0,1645111995.0,P12,D13,0,0,0
198,59.0,6.0,18.0,1645111995.03125,P12,D13,0,0,0
199,59.0,6.0,18.0,1645111995.0625,P12,D13,0,0,0
200,59.0,6.0,18.0,1645111995.09375,P12,D13,0,0,0
201,59.0,6.0,18.0,1645111995.125,P12,D13,0,0,0
202,59.0,6.0,18.0,1645111995.15625,P12,D13,0,0,0
203,59.0,6.0,18.0,1645111995.1875,P12,D13,0,0,0
204,59.0,6.0,18.0,1645111995.21875,P12,D13,0,0,0
205,59.0,6.0,17.0,1645111995.25,P12,D13,0,0,0
206,59.0,6.0,18.0,1645111995.28125,P12,D13,0,0,0
207,59.0,6.0,18.0,1645111995.3125,P12,D13,0,0,0
208,59.0,6.0,17.0,1645111995.34375,P12,D13,0,0,0
209,59.0,6.0,18.0,1645111995.375,P12,D13,0,0,0
210,60.0,6.0,18.0,1645111995.40625,P12,D13,0,0,0
211,59.0,5.0,18.0,1645111995.4375,P12,D13,0,0,0
212,60.0,5.0,18.0,1645111995.46875,P12,D13,0,0,0
213,59.0,4.0,18.0,1645111995.5,P12,D13,0,0,0
214,57.0,5.0,19.0,1645111995.53125,P12,D13,0,0,0
215,59.0,5.0,19.0,1645111995.5625,P12,D13,0,0,0
216,59.0,6.0,18.0,1645111995.59375,P12,D13,0,0,0
217,59.0,6.0,19.0,1645111995.625,P12,D13,0,0,0
218,59.0,6.0,19.0,1645111995.65625,P12,D13,0,0,0
219,59.0,6.0,19.0,1645111995.6875,P12,D13,0,0,0
220,59.0,6.0,18.0,1645111995.71875,P12,D13,0,0,0
221,58.0,7.0,19.0,1645111995.75,P12,D13,0,0,0
222,59.0,7.0,19.0,1645111995.78125,P12,D13,0,0,0
223,60.0,7.0,19.0,1645111995.8125,P12,D13,0,0,0
224,60.0,6.0,19.0,1645111995.84375,P12,D13,0,0,0
225,58.0,6.0,20.0,1645111995.875,P12,D13,0,0,0
226,60.0,5.0,19.0,1645111995.90625,P12,D13,0,0,0
227,55.0,4.0,21.0,1645111995.9375,P12,D13,0,0,0
228,59.0,6.0,17.0,1645111995.96875,P12,D13,0,0,0
229,61.0,5.0,20.0,1645111996.0,P12,D13,0,0,0
230,58.0,6.0,19.0,1645111996.03125,P12,D13,0,0,0
231,58.0,7.0,20.0,1645111996.0625,P12,D13,0,0,0
232,57.0,8.0,20.0,1645111996.09375,P12,D13,0,0,0
233,60.0,6.0,20.0,1645111996.125,P12,D13,0,0,0
234,60.0,6.0,19.0,1645111996.15625,P12,D13,0,0,0
235,59.0,6.0,19.0,1645111996.1875,P12,D13,0,0,0
236,58.0,6.0,20.0,1645111996.21875,P12,D13,0,0,0
237,58.0,6.0,20.0,1645111996.25,P12,D13,0,0,0
238,60.0,6.0,21.0,1645111996.28125,P12,D13,0,0,0
239,57.0,6.0,20.0,1645111996.3125,P12,D13,0,0,0
240,58.0,7.0,19.0,1645111996.34375,P12,D13,0,0,0
241,58.0,7.0,19.0,1645111996.375,P12,D13,0,0,0
242,58.0,7.0,19.0,1645111996.40625,P12,D13,0,0,0
243,60.0,5.0,19.0,1645111996.4375,P12,D13,0,0,0
244,60.0,6.0,18.0,1645111996.46875,P12,D13,0,0,0
245,58.0,6.0,18.0,1645111996.5,P12,D13,0,0,0
246,59.0,5.0,18.0,1645111996.53125,P12,D13,0,0,0
247,61.0,6.0,17.0,1645111996.5625,P12,D13,0,0,0
248,60.0,6.0,17.0,1645111996.59375,P12,D13,0,0,0
249,60.0,6.0,17.0,1645111996.625,P12,D13,0,0,0
250,59.0,6.0,17.0,1645111996.65625,P12,D13,0,0,0
251,60.0,6.0,17.0,1645111996.6875,P12,D13,0,0,0
252,59.0,6.0,18.0,1645111996.71875,P12,D13,0,0,0
253,58.0,6.0,18.0,1645111996.75,P12,D13,0,0,0
254,59.0,6.0,17.0,1645111996.78125,P12,D13,0,0,0
255,59.0,6.0,18.0,1645111996.8125,P12,D13,0,0,0
256,60.0,6.0,17.0,1645111996.84375,P12,D13,0,0,0
257,59.0,6.0,17.0,1645111996.875,P12,D13,0,0,0
258,60.0,6.0,18.0,1645111996.90625,P12,D13,0,0,0
259,60.0,7.0,18.0,1645111996.9375,P12,D13,0,0,0
260,58.0,6.0,17.0,1645111996.96875,P12,D13,0,0,0
261,59.0,6.0,17.0,1645111997.0,P12,D13,0,0,0
262,59.0,6.0,19.0,1645111997.03125,P12,D13,0,0,0
263,59.0,6.0,19.0,1645111997.0625,P12,D13,0,0,0
264,58.0,7.0,18.0,1645111997.09375,P12,D13,0,0,0
265,59.0,7.0,18.0,1645111997.125,P12,D13,0,0,0
266,60.0,6.0,18.0,1645111997.15625,P12,D13,0,0,0
267,59.0,6.0,18.0,1645111997.1875,P12,D13,0,0,0
268,59.0,6.0,18.0,1645111997.21875,P12,D13,0,0,0
269,59.0,6.0,18.0,1645111997.25,P12,D13,0,0,0
270,59.0,6.0,18.0,1645111997.28125,P12,D13,0,0,0
271,60.0,6.0,18.0,1645111997.3125,P12,D13,0,0,0
272,60.0,6.0,18.0,1645111997.34375,P12,D13,0,0,0
273,59.0,7.0,18.0,1645111997.375,P12,D13,0,0,0
274,59.0,7.0,19.0,1645111997.40625,P12,D13,0,0,0
275,59.0,6.0,18.0,1645111997.4375,P12,D13,0,0,0
276,59.0,6.0,18.0,1645111997.46875,P12,D13,0,0,0
277,59.0,6.0,18.0,1645111997.5,P12,D13,0,0,0
278,59.0,7.0,19.0,1645111997.53125,P12,D13,0,0,0
279,59.0,7.0,18.0,1645111997.5625,P12,D13,0,0,0
280,59.0,6.0,18.0,1645111997.59375,P12,D13,0,0,0
281,59.0,6.0,18.0,1645111997.625,P12,D13,0,0,0
282,59.0,6.0,18.0,1645111997.65625,P12,D13,0,0,0
283,59.0,7.0,18.0,1645111997.6875,P12,D13,0,0,0
284,59.0,7.0,18.0,1645111997.71875,P12,D13,0,0,0
285,59.0,7.0,19.0,1645111997.75,P12,D13,0,0,0
286,59.0,7.0,19.0,1645111997.78125,P12,D13,0,0,0
287,59.0,6.0,18.0,1645111997.8125,P12,D13,0,0,0
288,59.0,6.0,19.0,1645111997.84375,P12,D13,0,0,0
289,59.0,6.0,18.0,1645111997.875,P12,D13,0,0,0
290,59.0,7.0,18.0,1645111997.90625,P12,D13,0,0,0
291,59.0,6.0,19.0,1645111997.9375,P12,D13,0,0,0
292,59.0,7.0,18.0,1645111997.96875,P12,D13,0,0,0
293,59.0,6.0,18.0,1645111998.0,P12,D13,0,0,0
294,59.0,7.0,18.0,1645111998.03125,P12,D13,0,0,0
295,59.0,7.0,18.0,1645111998.0625,P12,D13,0,0,0
296,59.0,7.0,18.0,1645111998.09375,P12,D13,0,0,0
297,59.0,7.0,18.0,1645111998.125,P12,D13,0,0,0
298,59.0,7.0,18.0,1645111998.15625,P12,D13,0,0,0
299,59.0,7.0,18.0,1645111998.1875,P12,D13,0,0,0
300,59.0,6.0,18.0,1645111998.21875,P12,D13,0,0,0
301,59.0,6.0,19.0,1645111998.25,P12,D13,0,0,0
302,59.0,6.0,19.0,1645111998.28125,P12,D13,0,0,0
303,59.0,6.0,19.0,1645111998.3125,P12,D13,0,0,0
304,59.0,7.0,19.0,1645111998.34375,P12,D13,0,0,0
305,59.0,7.0,18.0,1645111998.375,P12,D13,0,0,0
306,59.0,7.0,19.0,1645111998.40625,P12,D13,0,0,0
307,59.0,7.0,18.0,1645111998.4375,P12,D13,0,0,0
308,59.0,6.0,18.0,1645111998.46875,P12,D13,0,0,0
309,59.0,6.0,19.0,1645111998.5,P12,D13,0,0,0
310,59.0,7.0,19.0,1645111998.53125,P12,D13,0,0,0
311,59.0,7.0,19.0,1645111998.5625,P12,D13,0,0,0
312,59.0,7.0,18.0,1645111998.59375,P12,D13,0,0,0
313,59.0,7.0,18.0,1645111998.625,P12,D13,0,0,0
314,59.0,6.0,19.0,1645111998.65625,P12,D13,0,0,0
315,59.0,6.0,18.0,1645111998.6875,P12,D13,0,0,0
316,59.0,6.0,19.0,1645111998.71875,P12,D13,0,0,0
317,59.0,7.0,19.0,1645111998.75,P12,D13,0,0,0
318,59.0,7.0,19.0,1645111998.78125,P12,D13,0,0,0
319,59.0,6.0,19.0,1645111998.8125,P12,D13,0,0,0
320,59.0,6.0,19.0,1645111998.84375,P12,D13,0,0,0
321,59.0,7.0,19.0,1645111998.875,P12,D13,0,0,0
322,59.0,6.0,19.0,1645111998.90625,P12,D13,0,0,0
323,59.0,7.0,19.0,1645111998.9375,P12,D13,0,0,0
324,59.0,7.0,19.0,1645111998.96875,P12,D13,0,0,0
325,59.0,7.0,19.0,1645111999.0,P12,D13,0,0,0
326,59.0,7.0,19.0,1645111999.03125,P12,D13,0,0,0
327,59.0,7.0,18.0,1645111999.0625,P12,D13,0,0,0
328,59.0,7.0,18.0,1645111999.09375,P12,D13,0,0,0
329,59.0,7.0,19.0,1645111999.125,P12,D13,0,0,0
330,59.0,6.0,19.0,1645111999.15625,P12,D13,0,0,0
331,59.0,7.0,19.0,1645111999.1875,P12,D13,0,0,0
332,59.0,6.0,19.0,1645111999.21875,P12,D13,0,0,0
333,59.0,6.0,19.0,1645111999.25,P12,D13,0,0,0
334,59.0,7.0,19.0,1645111999.28125,P12,D13,0,0,0
335,59.0,7.0,19.0,1645111999.3125,P12,D13,0,0,0
336,59.0,7.0,19.0,1645111999.34375,P12,D13,0,0,0
337,59.0,7.0,19.0,1645111999.375,P12,D13,0,0,0
338,59.0,7.0,19.0,1645111999.40625,P12,D13,0,0,0
339,59.0,7.0,19.0,1645111999.4375,P12,D13,0,0,0
340,59.0,6.0,19.0,1645111999.46875,P12,D13,0,0,0
341,59.0,7.0,19.0,1645111999.5,P12,D13,0,0,0
342,59.0,6.0,19.0,1645111999.53125,P12,D13,0,0,0
343,59.0,6.0,19.0,1645111999.5625,P12,D13,0,0,0
344,59.0,7.0,19.0,1645111999.59375,P12,D13,0,0,0
345,59.0,7.0,19.0,1645111999.625,P12,D13,0,0,0
346,59.0,7.0,18.0,1645111999.65625,P12,D13,0,0,0
347,59.0,7.0,19.0,1645111999.6875,P12,D13,0,0,0
348,59.0,7.0,19.0,1645111999.71875,P12,D13,0,0,0
349,59.0,6.0,19.0,1645111999.75,P12,D13,0,0,0
350,59.0,6.0,19.0,1645111999.78125,P12,D13,0,0,0
351,59.0,7.0,19.0,1645111999.8125,P12,D13,0,0,0
352,59.0,7.0,19.0,1645111999.84375,P12,D13,0,0,0
353,59.0,7.0,19.0,1645111999.875,P12,D13,0,0,0
354,59.0,7.0,19.0,1645111999.90625,P12,D13,0,0,0
355,59.0,7.0,19.0,1645111999.9375,P12,D13,0,0,0
356,59.0,7.0,19.0,1645111999.96875,P12,D13,0,0,0
357,59.0,6.0,19.0,1645112000.0,P12,D13,0,0,0
358,59.0,6.0,19.0,1645112000.03125,P12,D13,0,0,0
359,59.0,6.0,19.0,1645112000.0625,P12,D13,0,0,0
360,59.0,7.0,18.0,1645112000.09375,P12,D13,0,0,0
361,59.0,7.0,19.0,1645112000.125,P12,D13,0,0,0
362,59.0,6.0,19.0,1645112000.15625,P12,D13,0,0,0
363,59.0,6.0,19.0,1645112000.1875,P12,D13,0,0,0
364,59.0,7.0,19.0,1645112000.21875,P12,D13,0,0,0
365,59.0,6.0,19.0,1645112000.25,P12,D13,0,0,0
366,59.0,7.0,19.0,1645112000.28125,P12,D13,0,0,0
367,59.0,7.0,19.0,1645112000.3125,P12,D13,0,0,0
368,59.0,7.0,19.0,1645112000.34375,P12,D13,0,0,0
369,59.0,7.0,18.0,1645112000.375,P12,D13,0,0,0
370,59.0,6.0,19.0,1645112000.40625,P12,D13,0,0,0
371,59.0,7.0,19.0,1645112000.4375,P12,D13,0,0,0
372,59.0,7.0,19.0,1645112000.46875,P12,D13,0,0,0
373,59.0,6.0,19.0,1645112000.5,P12,D13,0,0,0
374,59.0,6.0,19.0,1645112000.53125,P12,D13,0,0,0
375,59.0,6.0,18.0,1645112000.5625,P12,D13,0,0,0
376,59.0,6.0,18.0,1645112000.59375,P12,D13,0,0,0
377,59.0,6.0,19.0,1645112000.625,P12,D13,0,0,0
378,59.0,7.0,19.0,1645112000.65625,P12,D13,0,0,0
379,59.0,6.0,18.0,1645112000.6875,P12,D13,0,0,0
380,59.0,6.0,19.0,1645112000.71875,P12,D13,0,0,0
381,59.0,7.0,18.0,1645112000.75,P12,D13,0,0,0
382,59.0,7.0,18.0,1645112000.78125,P12,D13,0,0,0
383,59.0,6.0,18.0,1645112000.8125,P12,D13,0,0,0
384,59.0,6.0,18.0,1645112000.84375,P12,D13,0,0,0
385,59.0,6.0,18.0,1645112000.875,P12,D13,0,0,0
386,59.0,7.0,19.0,1645112000.90625,P12,D13,0,0,0
387,59.0,6.0,19.0,1645112000.9375,P12,D13,0,0,0
388,59.0,6.0,18.0,1645112000.96875,P12,D13,0,0,0
389,59.0,6.0,19.0,1645112001.0,P12,D13,0,0,0
390,59.0,6.0,18.0,1645112001.03125,P12,D13,0,0,0
391,59.0,6.0,18.0,1645112001.0625,P12,D13,0,0,0
392,59.0,6.0,18.0,1645112001.09375,P12,D13,0,0,0
393,59.0,6.0,19.0,1645112001.125,P12,D13,0,0,0
394,59.0,7.0,18.0,1645112001.15625,P12,D13,0,0,0
395,59.0,6.0,19.0,1645112001.1875,P12,D13,0,0,0
396,59.0,6.0,18.0,1645112001.21875,P12,D13,0,0,0
397,59.0,6.0,19.0,1645112001.25,P12,D13,0,0,0
398,59.0,6.0,19.0,1645112001.28125,P12,D13,0,0,0
399,59.0,6.0,18.0,1645112001.3125,P12,D13,0,0,0
400,59.0,6.0,18.0,1645112001.34375,P12,D13,0,0,0
401,59.0,6.0,18.0,1645112001.375,P12,D13,0,0,0
402,59.0,6.0,19.0,1645112001.40625,P12,D13,0,0,0
403,59.0,6.0,19.0,1645112001.4375,P12,D13,0,0,0
404,59.0,7.0,18.0,1645112001.46875,P12,D13,0,0,0
405,59.0,6.0,19.0,1645112001.5,P12,D13,0,0,0
406,59.0,6.0,19.0,1645112001.53125,P12,D13,0,0,0
407,59.0,6.0,19.0,1645112001.5625,P12,D13,0,0,0
408,59.0,6.0,19.0,1645112001.59375,P12,D13,0,0,0
409,59.0,6.0,18.0,1645112001.625,P12,D13,0,0,0
410,59.0,6.0,18.0,1645112001.65625,P12,D13,0,0,0
411,59.0,6.0,18.0,1645112001.6875,P12,D13,0,0,0
412,59.0,6.0,19.0,1645112001.71875,P12,D13,0,0,0
413,59.0,7.0,19.0,1645112001.75,P12,D13,0,0,0
414,59.0,7.0,18.0,1645112001.78125,P12,D13,0,0,0
415,59.0,6.0,19.0,1645112001.8125,P12,D13,0,0,0
416,59.0,6.0,19.0,1645112001.84375,P12,D13,0,0,0
417,59.0,6.0,19.0,1645112001.875,P12,D13,0,0,0
418,59.0,6.0,19.0,1645112001.90625,P12,D13,0,0,0
419,59.0,7.0,19.0,1645112001.9375,P12,D13,0,0,0
420,59.0,7.0,18.0,1645112001.96875,P12,D13,0,0,0
421,59.0,7.0,19.0,1645112002.0,P12,D13,0,0,0
422,59.0,7.0,18.0,1645112002.03125,P12,D13,0,0,0
423,59.0,6.0,18.0,1645112002.0625,P12,D13,0,0,0
424,59.0,7.0,19.0,1645112002.09375,P12,D13,0,0,0
425,59.0,7.0,18.0,1645112002.125,P12,D13,0,0,0
426,59.0,7.0,19.0,1645112002.15625,P12,D13,0,0,0
427,59.0,7.0,19.0,1645112002.1875,P12,D13,0,0,0
428,59.0,6.0,18.0,1645112002.21875,P12,D13,0,0,0
429,59.0,7.0,19.0,1645112002.25,P12,D13,0,0,0
430,59.0,6.0,19.0,1645112002.28125,P12,D13,0,0,0
431,59.0,6.0,18.0,1645112002.3125,P12,D13,0,0,0
432,59.0,7.0,19.0,1645112002.34375,P12,D13,0,0,0
433,59.0,7.0,19.0,1645112002.375,P12,D13,0,0,0
434,59.0,6.0,19.0,1645112002.40625,P12,D13,0,0,0
435,59.0,7.0,18.0,1645112002.4375,P12,D13,0,0,0
436,59.0,7.0,19.0,1645112002.46875,P12,D13,0,0,0
437,59.0,6.0,19.0,1645112002.5,P12,D13,0,0,0
438,59.0,7.0,18.0,1645112002.53125,P12,D13,0,0,0
439,59.0,7.0,19.0,1645112002.5625,P12,D13,0,0,0
440,59.0,7.0,18.0,1645112002.59375,P12,D13,0,0,0
441,59.0,6.0,19.0,1645112002.625,P12,D13,0,0,0
442,59.0,6.0,19.0,1645112002.65625,P12,D13,0,0,0
443,59.0,6.0,19.0,1645112002.6875,P12,D13,0,0,0
444,59.0,7.0,19.0,1645112002.71875,P12,D13,0,0,0
445,59.0,6.0,19.0,1645112002.75,P12,D13,0,0,0
446,59.0,7.0,19.0,1645112002.78125,P12,D13,0,0,0
447,59.0,6.0,19.0,1645112002.8125,P12,D13,0,0,0
448,59.0,6.0,19.0,1645112002.84375,P12,D13,0,0,0
449,59.0,6.0,19.0,1645112002.875,P12,D13,0,0,0
450,59.0,7.0,19.0,1645112002.90625,P12,D13,0,0,0
451,59.0,7.0,19.0,1645112002.9375,P12,D13,0,0,0
452,59.0,6.0,19.0,1645112002.96875,P12,D13,0,0,0
453,59.0,6.0,19.0,1645112003.0,P12,D13,0,0,0
454,59.0,7.0,19.0,1645112003.03125,P12,D13,0,0,0
455,59.0,7.0,19.0,1645112003.0625,P12,D13,0,0,0
456,59.0,6.0,19.0,1645112003.09375,P12,D13,0,0,0
457,59.0,7.0,19.0,1645112003.125,P12,D13,0,0,0
458,59.0,7.0,19.0,1645112003.15625,P12,D13,0,0,0
459,59.0,7.0,19.0,1645112003.1875,P12,D13,0,0,0
460,59.0,7.0,19.0,1645112003.21875,P12,D13,0,0,0
461,59.0,7.0,19.0,1645112003.25,P12,D13,0,0,0
462,59.0,6.0,19.0,1645112003.28125,P12,D13,0,0,0
463,59.0,6.0,19.0,1645112003.3125,P12,D13,0,0,0
464,59.0,6.0,19.0,1645112003.34375,P12,D13,0,0,0
465,59.0,6.0,19.0,1645112003.375,P12,D13,0,0,0
466,59.0,6.0,19.0,1645112003.40625,P12,D13,0,0,0
467,59.0,7.0,19.0,1645112003.4375,P12,D13,0,0,0
468,59.0,7.0,19.0,1645112003.46875,P12,D13,0,0,0
469,59.0,7.0,19.0,1645112003.5,P12,D13,0,0,0
470,59.0,7.0,19.0,1645112003.53125,P12,D13,0,0,0
471,59.0,7.0,19.0,1645112003.5625,P12,D13,0,0,0
472,59.0,7.0,19.0,1645112003.59375,P12,D13,0,0,0
473,59.0,7.0,19.0,1645112003.625,P12,D13,0,0,0
474,59.0,7.0,19.0,1645112003.65625,P12,D13,0,0,0
475,59.0,7.0,19.0,1645112003.6875,P12,D13,0,0,0
476,59.0,7.0,19.0,1645112003.71875,P12,D13,0,0,0
477,59.0,6.0,19.0,1645112003.75,P12,D13,0,0,0
478,59.0,6.0,19.0,1645112003.78125,P12,D13,0,0,0
479,59.0,7.0,19.0,1645112003.8125,P12,D13,0,0,0
480,59.0,7.0,19.0,1645112003.84375,P12,D13,0,0,0
481,59.0,7.0,19.0,1645112003.875,P12,D13,0,0,0
482,59.0,6.0,19.0,1645112003.90625,P12,D13,0,0,0
483,59.0,6.0,18.0,1645112003.9375,P12,D13,0,0,0
484,59.0,6.0,19.0,1645112003.96875,P12,D13,0,0,0
485,59.0,6.0,19.0,1645112004.0,P12,D13,0,0,0
486,59.0,7.0,19.0,1645112004.03125,P12,D13,0,0,0
487,59.0,7.0,19.0,1645112004.0625,P12,D13,0,0,0
488,59.0,7.0,19.0,1645112004.09375,P12,D13,0,0,0
489,59.0,7.0,19.0,1645112004.125,P12,D13,0,0,0
490,59.0,6.0,19.0,1645112004.15625,P12,D13,0,0,0
491,59.0,7.0,19.0,1645112004.1875,P12,D13,0,0,0
492,59.0,7.0,18.0,1645112004.21875,P12,D13,0,0,0
493,59.0,6.0,19.0,1645112004.25,P12,D13,0,0,0
494,59.0,6.0,19.0,1645112004.28125,P12,D13,0,0,0
495,59.0,7.0,19.0,1645112004.3125,P12,D13,0,0,0
496,59.0,7.0,19.0,1645112004.34375,P12,D13,0,0,0
497,59.0,6.0,19.0,1645112004.375,P12,D13,0,0,0
498,59.0,7.0,18.0,1645112004.40625,P12,D13,0,0,0
499,58.0,7.0,18.0,1645112004.4375,P12,D13,0,0,0
500,59.0,7.0,19.0,1645112004.46875,P12,D13,0,0,0
501,59.0,7.0,19.0,1645112004.5,P12,D13,0,0,0
502,59.0,6.0,19.0,1645112004.53125,P12,D13,0,0,0
503,59.0,6.0,19.0,1645112004.5625,P12,D13,0,0,0
504,59.0,6.0,18.0,1645112004.59375,P12,D13,0,0,0
505,59.0,7.0,19.0,1645112004.625,P12,D13,0,0,0
506,59.0,6.0,19.0,1645112004.65625,P12,D13,0,0,0
507,59.0,6.0,19.0,1645112004.6875,P12,D13,0,0,0
508,59.0,6.0,19.0,1645112004.71875,P12,D13,0,0,0
509,59.0,6.0,19.0,1645112004.75,P12,D13,0,0,0
510,59.0,6.0,19.0,1645112004.78125,P12,D13,0,0,0
511,59.0,6.0,19.0,1645112004.8125,P12,D13,0,0,0
512,59.0,6.0,19.0,1645112004.84375,P12,D13,0,0,0
513,59.0,6.0,19.0,1645112004.875,P12,D13,0,0,0
514,59.0,6.0,18.0,1645112004.90625,P12,D13,0,0,0
515,59.0,7.0,19.0,1645112004.9375,P12,D13,0,0,0
516,59.0,6.0,19.0,1645112004.96875,P12,D13,0,0,0
517,59.0,6.0,19.0,1645112005.0,P12,D13,0,0,0
518,59.0,6.0,19.0,1645112005.03125,P12,D13,0,0,0
519,59.0,7.0,19.0,1645112005.0625,P12,D13,0,0,0
520,59.0,7.0,19.0,1645112005.09375,P12,D13,0,0,0
521,59.0,6.0,19.0,1645112005.125,P12,D13,0,0,0
522,59.0,6.0,18.0,1645112005.15625,P12,D13,0,0,0
523,59.0,6.0,18.0,1645112005.1875,P12,D13,0,0,0
524,59.0,6.0,19.0,1645112005.21875,P12,D13,0,0,0
525,59.0,7.0,18.0,1645112005.25,P12,D13,0,0,0
526,59.0,6.0,18.0,1645112005.28125,P12,D13,0,0,0
527,59.0,6.0,18.0,1645112005.3125,P12,D13,0,0,0
528,59.0,7.0,18.0,1645112005.34375,P12,D13,0,0,0
529,59.0,6.0,19.0,1645112005.375,P12,D13,0,0,0
530,59.0,6.0,19.0,1645112005.40625,P12,D13,0,0,0
531,59.0,6.0,19.0,1645112005.4375,P12,D13,0,0,0
532,59.0,7.0,18.0,1645112005.46875,P12,D13,0,0,0
533,59.0,6.0,19.0,1645112005.5,P12,D13,0,0,0
534,59.0,6.0,19.0,1645112005.53125,P12,D13,0,0,0
535,59.0,7.0,19.0,1645112005.5625,P12,D13,0,0,0
536,59.0,6.0,18.0,1645112005.59375,P12,D13,0,0,0
537,59.0,6.0,18.0,1645112005.625,P12,D13,0,0,0
538,59.0,6.0,19.0,1645112005.65625,P12,D13,0,0,0
539,59.0,6.0,19.0,1645112005.6875,P12,D13,0,0,0
540,59.0,7.0,19.0,1645112005.71875,P12,D13,0,0,0
541,59.0,6.0,19.0,1645112005.75,P12,D13,0,0,0
542,59.0,6.0,19.0,1645112005.78125,P12,D13,0,0,0
543,59.0,7.0,19.0,1645112005.8125,P12,D13,0,0,0
544,59.0,7.0,19.0,1645112005.84375,P12,D13,0,0,0
545,59.0,6.0,19.0,1645112005.875,P12,D13,0,0,0
546,59.0,6.0,18.0,1645112005.90625,P12,D13,0,0,0
547,59.0,6.0,19.0,1645112005.9375,P12,D13,0,0,0
548,59.0,6.0,19.0,1645112005.96875,P12,D13,0,0,0
549,59.0,6.0,19.0,1645112006.0,P12,D13,0,0,0
550,59.0,6.0,19.0,1645112006.03125,P12,D13,0,0,0
551,59.0,6.0,19.0,1645112006.0625,P12,D13,0,0,0
552,59.0,7.0,19.0,1645112006.09375,P12,D13,0,0,0
553,59.0,7.0,19.0,1645112006.125,P12,D13,0,0,0
554,59.0,6.0,19.0,1645112006.15625,P12,D13,0,0,0
555,59.0,6.0,19.0,1645112006.1875,P12,D13,0,0,0
556,59.0,7.0,19.0,1645112006.21875,P12,D13,0,0,0
557,59.0,6.0,18.0,1645112006.25,P12,D13,0,0,0
558,59.0,6.0,19.0,1645112006.28125,P12,D13,0,0,0
559,59.0,6.0,19.0,1645112006.3125,P12,D13,0,0,0
560,59.0,7.0,19.0,1645112006.34375,P12,D13,0,0,0
561,59.0,6.0,19.0,1645112006.375,P12,D13,0,0,0
562,59.0,7.0,19.0,1645112006.40625,P12,D13,0,0,0
563,59.0,6.0,19.0,1645112006.4375,P12,D13,0,0,0
564,59.0,7.0,18.0,1645112006.46875,P12,D13,0,0,0
565,59.0,7.0,19.0,1645112006.5,P12,D13,0,0,0
566,59.0,6.0,19.0,1645112006.53125,P12,D13,0,0,0
567,59.0,6.0,19.0,1645112006.5625,P12,D13,0,0,0
568,59.0,6.0,19.0,1645112006.59375,P12,D13,0,0,0
569,59.0,6.0,19.0,1645112006.625,P12,D13,0,0,0
570,59.0,6.0,19.0,1645112006.65625,P12,D13,0,0,0
571,59.0,6.0,19.0,1645112006.6875,P12,D13,0,0,0
572,59.0,6.0,19.0,1645112006.71875,P12,D13,0,0,0
573,59.0,7.0,19.0,1645112006.75,P12,D13,0,0,0
574,59.0,7.0,19.0,1645112006.78125,P12,D13,0,0,0
575,59.0,6.0,19.0,1645112006.8125,P12,D13,0,0,0
576,59.0,6.0,19.0,1645112006.84375,P12,D13,0,0,0
577,59.0,6.0,19.0,1645112006.875,P12,D13,0,0,0
578,59.0,6.0,19.0,1645112006.90625,P12,D13,0,0,0
579,59.0,6.0,19.0,1645112006.9375,P12,D13,0,0,0
580,59.0,6.0,19.0,1645112006.96875,P12,D13,0,0,0
581,59.0,6.0,19.0,1645112007.0,P12,D13,0,0,0
582,59.0,6.0,19.0,1645112007.03125,P12,D13,0,0,0
583,59.0,6.0,19.0,1645112007.0625,P12,D13,0,0,0
584,59.0,6.0,19.0,1645112007.09375,P12,D13,0,0,0
585,59.0,7.0,19.0,1645112007.125,P12,D13,0,0,0
586,59.0,6.0,19.0,1645112007.15625,P12,D13,0,0,0
587,59.0,7.0,19.0,1645112007.1875,P12,D13,0,0,0
588,59.0,7.0,19.0,1645112007.21875,P12,D13,0,0,0
589,59.0,6.0,19.0,1645112007.25,P12,D13,0,0,0
590,59.0,6.0,19.0,1645112007.28125,P12,D13,0,0,0
591,59.0,7.0,19.0,1645112007.3125,P12,D13,0,0,0
592,59.0,7.0,19.0,1645112007.34375,P12,D13,0,0,0
593,59.0,6.0,19.0,1645112007.375,P12,D13,0,0,0
594,59.0,6.0,19.0,1645112007.40625,P12,D13,0,0,0
595,59.0,7.0,19.0,1645112007.4375,P12,D13,0,0,0
596,59.0,7.0,19.0,1645112007.46875,P12,D13,0,0,0
597,59.0,7.0,19.0,1645112007.5,P12,D13,0,0,0
598,59.0,7.0,19.0,1645112007.53125,P12,D13,0,0,0
599,59.0,6.0,19.0,1645112007.5625,P12,D13,0,0,0
600,59.0,6.0,19.0,1645112007.59375,P12,D13,0,0,0
601,59.0,7.0,19.0,1645112007.625,P12,D13,0,0,0
602,59.0,7.0,19.0,1645112007.65625,P12,D13,0,0,0
603,59.0,6.0,19.0,1645112007.6875,P12,D13,0,0,0
604,59.0,7.0,19.0,1645112007.71875,P12,D13,0,0,0
605,59.0,6.0,19.0,1645112007.75,P12,D13,0,0,0
606,59.0,7.0,19.0,1645112007.78125,P12,D13,0,0,0
607,59.0,7.0,19.0,1645112007.8125,P12,D13,0,0,0
608,59.0,6.0,19.0,1645112007.84375,P12,D13,0,0,0
609,59.0,6.0,19.0,1645112007.875,P12,D13,0,0,0
610,59.0,6.0,19.0,1645112007.90625,P12,D13,0,0,0
611,59.0,7.0,19.0,1645112007.9375,P12,D13,0,0,0
612,59.0,6.0,19.0,1645112007.96875,P12,D13,0,0,0
613,59.0,7.0,19.0,1645112008.0,P12,D13,0,0,0
614,59.0,6.0,19.0,1645112008.03125,P12,D13,0,0,0
615,59.0,6.0,19.0,1645112008.0625,P12,D13,0,0,0
616,59.0,7.0,19.0,1645112008.09375,P12,D13,0,0,0
617,59.0,7.0,18.0,1645112008.125,P12,D13,0,0,0
618,59.0,6.0,19.0,1645112008.15625,P12,D13,0,0,0
619,58.0,7.0,19.0,1645112008.1875,P12,D13,0,0,0
620,59.0,7.0,19.0,1645112008.21875,P12,D13,0,0,0
621,59.0,6.0,19.0,1645112008.25,P12,D13,0,0,0
622,59.0,6.0,19.0,1645112008.28125,P12,D13,0,0,0
623,59.0,6.0,19.0,1645112008.3125,P12,D13,0,0,0
624,59.0,6.0,19.0,1645112008.34375,P12,D13,0,0,0
625,59.0,6.0,19.0,1645112008.375,P12,D13,0,0,0
626,59.0,7.0,19.0,1645112008.40625,P12,D13,0,0,0
627,59.0,7.0,19.0,1645112008.4375,P12,D13,0,0,0
628,59.0,6.0,19.0,1645112008.46875,P12,D13,0,0,0
629,59.0,7.0,19.0,1645112008.5,P12,D13,0,0,0
630,59.0,6.0,19.0,1645112008.53125,P12,D13,0,0,0
631,59.0,6.0,19.0,1645112008.5625,P12,D13,0,0,0
632,59.0,7.0,19.0,1645112008.59375,P12,D13,0,0,0
633,59.0,6.0,19.0,1645112008.625,P12,D13,0,0,0
634,59.0,6.0,19.0,1645112008.65625,P12,D13,0,0,0
635,59.0,7.0,19.0,1645112008.6875,P12,D13,0,0,0
636,59.0,6.0,19.0,1645112008.71875,P12,D13,0,0,0
637,59.0,6.0,19.0,1645112008.75,P12,D13,0,0,0
638,59.0,6.0,19.0,1645112008.78125,P12,D13,0,0,0
639,59.0,6.0,19.0,1645112008.8125,P12,D13,0,0,0
640,59.0,6.0,19.0,1645112008.84375,P12,D13,0,0,0
641,59.0,7.0,19.0,1645112008.875,P12,D13,0,0,0
642,59.0,6.0,19.0,1645112008.90625,P12,D13,0,0,0
643,59.0,7.0,19.0,1645112008.9375,P12,D13,0,0,0
644,59.0,6.0,19.0,1645112008.96875,P12,D13,0,0,0
645,59.0,7.0,19.0,1645112009.0,P12,D13,0,0,0
646,59.0,6.0,19.0,1645112009.03125,P12,D13,0,0,0
647,59.0,6.0,19.0,1645112009.0625,P12,D13,0,0,0
648,59.0,6.0,19.0,1645112009.09375,P12,D13,0,0,0
649,59.0,6.0,19.0,1645112009.125,P12,D13,0,0,0
650,59.0,6.0,19.0,1645112009.15625,P12,D13,0,0,0
651,59.0,6.0,18.0,1645112009.1875,P12,D13,0,0,0
652,59.0,6.0,18.0,1645112009.21875,P12,D13,0,0,0
653,59.0,6.0,19.0,1645112009.25,P12,D13,0,0,0
654,59.0,6.0,19.0,1645112009.28125,P12,D13,0,0,0
655,59.0,7.0,19.0,1645112009.3125,P12,D13,0,0,0
656,58.0,6.0,19.0,1645112009.34375,P12,D13,0,0,0
657,59.0,6.0,18.0,1645112009.375,P12,D13,0,0,0
658,59.0,6.0,18.0,1645112009.40625,P12,D13,0,0,0
659,59.0,6.0,19.0,1645112009.4375,P12,D13,0,0,0
660,59.0,6.0,19.0,1645112009.46875,P12,D13,0,0,0
661,59.0,6.0,18.0,1645112009.5,P12,D13,0,0,0
662,59.0,7.0,19.0,1645112009.53125,P12,D13,0,0,0
663,59.0,6.0,18.0,1645112009.5625,P12,D13,0,0,0
664,59.0,6.0,19.0,1645112009.59375,P12,D13,0,0,0
665,59.0,6.0,18.0,1645112009.625,P12,D13,0,0,0
666,59.0,6.0,19.0,1645112009.65625,P12,D13,0,0,0
667,59.0,6.0,18.0,1645112009.6875,P12,D13,0,0,0
668,59.0,6.0,19.0,1645112009.71875,P12,D13,0,0,0
669,59.0,6.0,19.0,1645112009.75,P12,D13,0,0,0
670,59.0,6.0,19.0,1645112009.78125,P12,D13,0,0,0
671,59.0,6.0,19.0,1645112009.8125,P12,D13,0,0,0
672,59.0,6.0,18.0,1645112009.84375,P12,D13,0,0,0
673,59.0,6.0,19.0,1645112009.875,P12,D13,0,0,0
674,59.0,7.0,19.0,1645112009.90625,P12,D13,0,0,0
675,59.0,6.0,18.0,1645112009.9375,P12,D13,0,0,0
676,59.0,6.0,18.0,1645112009.96875,P12,D13,0,0,0
677,59.0,6.0,19.0,1645112010.0,P12,D13,0,0,0
678,59.0,6.0,19.0,1645112010.03125,P12,D13,0,0,0
679,59.0,6.0,19.0,1645112010.0625,P12,D13,0,0,0
680,59.0,6.0,19.0,1645112010.09375,P12,D13,0,0,0
681,59.0,7.0,19.0,1645112010.125,P12,D13,0,0,0
682,59.0,6.0,19.0,1645112010.15625,P12,D13,0,0,0
683,59.0,6.0,19.0,1645112010.1875,P12,D13,0,0,0
684,59.0,6.0,19.0,1645112010.21875,P12,D13,0,0,0
685,59.0,6.0,19.0,1645112010.25,P12,D13,0,0,0
686,58.0,7.0,19.0,1645112010.28125,P12,D13,0,0,0
687,59.0,6.0,19.0,1645112010.3125,P12,D13,0,0,0
688,59.0,6.0,18.0,1645112010.34375,P12,D13,0,0,0
689,59.0,6.0,19.0,1645112010.375,P12,D13,0,0,0
690,59.0,6.0,19.0,1645112010.40625,P12,D13,0,0,0
691,59.0,6.0,19.0,1645112010.4375,P12,D13,0,0,0
692,59.0,6.0,19.0,1645112010.46875,P12,D13,0,0,0
693,59.0,7.0,19.0,1645112010.5,P12,D13,0,0,0
694,59.0,6.0,19.0,1645112010.53125,P12,D13,0,0,0
695,59.0,6.0,19.0,1645112010.5625,P12,D13,0,0,0
696,59.0,6.0,19.0,1645112010.59375,P12,D13,0,0,0
697,59.0,7.0,19.0,1645112010.625,P12,D13,0,0,0
698,59.0,7.0,19.0,1645112010.65625,P12,D13,0,0,0
699,59.0,6.0,19.0,1645112010.6875,P12,D13,0,0,0
700,59.0,6.0,18.0,1645112010.71875,P12,D13,0,0,0
701,59.0,6.0,18.0,1645112010.75,P12,D13,0,0,0
702,59.0,6.0,19.0,1645112010.78125,P12,D13,0,0,0
703,59.0,6.0,19.0,1645112010.8125,P12,D13,0,0,0
704,59.0,6.0,18.0,1645112010.84375,P12,D13,0,0,0
705,59.0,6.0,19.0,1645112010.875,P12,D13,0,0,0
706,59.0,7.0,19.0,1645112010.90625,P12,D13,0,0,0
707,59.0,6.0,19.0,1645112010.9375,P12,D13,0,0,0
708,59.0,7.0,18.0,1645112010.96875,P12,D13,0,0,0
709,59.0,6.0,19.0,1645112011.0,P12,D13,0,0,0
710,59.0,7.0,19.0,1645112011.03125,P12,D13,0,0,0
711,59.0,6.0,19.0,1645112011.0625,P12,D13,0,0,0
712,59.0,7.0,19.0,1645112011.09375,P12,D13,0,0,0
713,59.0,7.0,19.0,1645112011.125,P12,D13,0,0,0
714,59.0,6.0,19.0,1645112011.15625,P12,D13,0,0,0
715,58.0,7.0,19.0,1645112011.1875,P12,D13,0,0,0
716,59.0,7.0,19.0,1645112011.21875,P12,D13,0,0,0
717,59.0,6.0,19.0,1645112011.25,P12,D13,0,0,0
718,59.0,7.0,19.0,1645112011.28125,P12,D13,0,0,0
719,59.0,6.0,19.0,1645112011.3125,P12,D13,0,0,0
720,59.0,7.0,18.0,1645112011.34375,P12,D13,0,0,0
721,59.0,7.0,19.0,1645112011.375,P12,D13,0,0,0
722,59.0,6.0,19.0,1645112011.40625,P12,D13,0,0,0
723,59.0,7.0,19.0,1645112011.4375,P12,D13,0,0,0
724,59.0,7.0,19.0,1645112011.46875,P12,D13,0,0,0
725,59.0,6.0,19.0,1645112011.5,P12,D13,0,0,0
726,59.0,6.0,19.0,1645112011.53125,P12,D13,0,0,0
727,59.0,7.0,19.0,1645112011.5625,P12,D13,0,0,0
728,59.0,6.0,19.0,1645112011.59375,P12,D13,0,0,0
729,59.0,6.0,19.0,1645112011.625,P12,D13,0,0,0
730,59.0,7.0,19.0,1645112011.65625,P12,D13,0,0,0
731,59.0,7.0,19.0,1645112011.6875,P12,D13,0,0,0
732,59.0,6.0,19.0,1645112011.71875,P12,D13,0,0,0
733,59.0,6.0,19.0,1645112011.75,P12,D13,0,0,0
734,59.0,6.0,19.0,1645112011.78125,P12,D13,0,0,0
735,59.0,7.0,19.0,1645112011.8125,P12,D13,0,0,0
736,59.0,7.0,19.0,1645112011.84375,P12,D13,0,0,0
737,59.0,7.0,19.0,1645112011.875,P12,D13,0,0,0
738,59.0,6.0,19.0,1645112011.90625,P12,D13,0,0,0
739,59.0,6.0,19.0,1645112011.9375,P12,D13,0,0,0
740,59.0,7.0,19.0,1645112011.96875,P12,D13,0,0,0
741,59.0,7.0,19.0,1645112012.0,P12,D13,0,0,0
742,59.0,6.0,19.0,1645112012.03125,P12,D13,0,0,0
743,59.0,7.0,19.0,1645112012.0625,P12,D13,0,0,0
744,59.0,6.0,19.0,1645112012.09375,P12,D13,0,0,0
745,59.0,6.0,19.0,1645112012.125,P12,D13,0,0,0
746,59.0,6.0,19.0,1645112012.15625,P12,D13,0,0,0
747,59.0,6.0,19.0,1645112012.1875,P12,D13,0,0,0
748,59.0,6.0,19.0,1645112012.21875,P12,D13,0,0,0
749,59.0,7.0,19.0,1645112012.25,P12,D13,0,0,0
750,59.0,6.0,18.0,1645112012.28125,P12,D13,0,0,0
751,59.0,7.0,19.0,1645112012.3125,P12,D13,0,0,0
752,59.0,6.0,19.0,1645112012.34375,P12,D13,0,0,0
753,59.0,6.0,19.0,1645112012.375,P12,D13,0,0,0
754,59.0,7.0,19.0,1645112012.40625,P12,D13,0,0,0
755,59.0,6.0,19.0,1645112012.4375,P12,D13,0,0,0
756,59.0,6.0,19.0,1645112012.46875,P12,D13,0,0,0
757,59.0,6.0,19.0,1645112012.5,P12,D13,0,0,0
758,59.0,6.0,19.0,1645112012.53125,P12,D13,0,0,0
759,59.0,7.0,19.0,1645112012.5625,P12,D13,0,0,0
760,59.0,7.0,19.0,1645112012.59375,P12,D13,0,0,0
761,59.0,6.0,19.0,1645112012.625,P12,D13,0,0,0
762,59.0,7.0,19.0,1645112012.65625,P12,D13,0,0,0
763,59.0,6.0,19.0,1645112012.6875,P12,D13,0,0,0
764,59.0,7.0,19.0,1645112012.71875,P12,D13,0,0,0
765,59.0,7.0,19.0,1645112012.75,P12,D13,0,0,0
766,59.0,7.0,19.0,1645112012.78125,P12,D13,0,0,0
767,59.0,6.0,19.0,1645112012.8125,P12,D13,0,0,0
768,59.0,6.0,19.0,1645112012.84375,P12,D13,0,0,0
769,59.0,6.0,19.0,1645112012.875,P12,D13,0,0,0
770,59.0,6.0,19.0,1645112012.90625,P12,D13,0,0,0
771,59.0,7.0,19.0,1645112012.9375,P12,D13,0,0,0
772,59.0,6.0,18.0,1645112012.96875,P12,D13,0,0,0
773,59.0,7.0,19.0,1645112013.0,P12,D13,0,0,0
774,59.0,6.0,19.0,1645112013.03125,P12,D13,0,0,0
775,59.0,6.0,19.0,1645112013.0625,P12,D13,0,0,0
776,59.0,6.0,18.0,1645112013.09375,P12,D13,0,0,0
777,59.0,6.0,18.0,1645112013.125,P12,D13,0,0,0
778,59.0,7.0,18.0,1645112013.15625,P12,D13,0,0,0
779,59.0,6.0,19.0,1645112013.1875,P12,D13,0,0,0
780,59.0,6.0,19.0,1645112013.21875,P12,D13,0,0,0
781,59.0,6.0,19.0,1645112013.25,P12,D13,0,0,0
782,59.0,6.0,19.0,1645112013.28125,P12,D13,0,0,0
783,59.0,6.0,18.0,1645112013.3125,P12,D13,0,0,0
784,59.0,6.0,19.0,1645112013.34375,P12,D13,0,0,0
785,59.0,7.0,19.0,1645112013.375,P12,D13,0,0,0
786,59.0,6.0,19.0,1645112013.40625,P12,D13,0,0,0
787,59.0,6.0,19.0,1645112013.4375,P12,D13,0,0,0
788,59.0,6.0,19.0,1645112013.46875,P12,D13,0,0,0
789,59.0,7.0,19.0,1645112013.5,P12,D13,0,0,0
790,59.0,6.0,19.0,1645112013.53125,P12,D13,0,0,0
791,59.0,6.0,19.0,1645112013.5625,P12,D13,0,0,0
792,59.0,6.0,18.0,1645112013.59375,P12,D13,0,0,0
793,59.0,6.0,19.0,1645112013.625,P12,D13,0,0,0
794,59.0,6.0,19.0,1645112013.65625,P12,D13,0,0,0
795,59.0,6.0,18.0,1645112013.6875,P12,D13,0,0,0
796,59.0,6.0,18.0,1645112013.71875,P12,D13,0,0,0
797,59.0,6.0,19.0,1645112013.75,P12,D13,0,0,0
798,59.0,6.0,19.0,1645112013.78125,P12,D13,0,0,0
799,59.0,6.0,18.0,1645112013.8125,P12,D13,0,0,0
800,59.0,6.0,19.0,1645112013.84375,P12,D13,0,0,0
801,59.0,7.0,19.0,1645112013.875,P12,D13,0,0,0
802,59.0,6.0,19.0,1645112013.90625,P12,D13,0,0,0
803,59.0,6.0,19.0,1645112013.9375,P12,D13,0,0,0
804,59.0,6.0,19.0,1645112013.96875,P12,D13,0,0,0
805,59.0,6.0,19.0,1645112014.0,P12,D13,0,0,0
806,59.0,6.0,19.0,1645112014.03125,P12,D13,0,0,0
807,59.0,6.0,18.0,1645112014.0625,P12,D13,0,0,0
808,59.0,6.0,19.0,1645112014.09375,P12,D13,0,0,0
809,59.0,6.0,19.0,1645112014.125,P12,D13,0,0,0
810,59.0,6.0,18.0,1645112014.15625,P12,D13,0,0,0
811,59.0,6.0,19.0,1645112014.1875,P12,D13,0,0,0
812,59.0,6.0,19.0,1645112014.21875,P12,D13,0,0,0
813,59.0,6.0,19.0,1645112014.25,P12,D13,0,0,0
814,59.0,7.0,19.0,1645112014.28125,P12,D13,0,0,0
815,58.0,6.0,18.0,1645112014.3125,P12,D13,0,0,0
816,59.0,6.0,19.0,1645112014.34375,P12,D13,0,0,0
817,59.0,6.0,19.0,1645112014.375,P12,D13,0,0,0
818,59.0,6.0,18.0,1645112014.40625,P12,D13,0,0,0
819,59.0,7.0,19.0,1645112014.4375,P12,D13,0,0,0
820,59.0,6.0,19.0,1645112014.46875,P12,D13,0,0,0
821,59.0,7.0,19.0,1645112014.5,P12,D13,0,0,0
822,59.0,6.0,19.0,1645112014.53125,P12,D13,0,0,0
823,59.0,6.0,19.0,1645112014.5625,P12,D13,0,0,0
824,58.0,6.0,18.0,1645112014.59375,P12,D13,0,0,0
825,59.0,7.0,19.0,1645112014.625,P12,D13,0,0,0
826,59.0,6.0,19.0,1645112014.65625,P12,D13,0,0,0
827,59.0,7.0,19.0,1645112014.6875,P12,D13,0,0,0
828,59.0,6.0,18.0,1645112014.71875,P12,D13,0,0,0
829,59.0,6.0,19.0,1645112014.75,P12,D13,0,0,0
830,59.0,6.0,19.0,1645112014.78125,P12,D13,0,0,0
831,59.0,6.0,19.0,1645112014.8125,P12,D13,0,0,0
832,59.0,6.0,19.0,1645112014.84375,P12,D13,0,0,0
833,59.0,7.0,19.0,1645112014.875,P12,D13,0,0,0
834,59.0,6.0,19.0,1645112014.90625,P12,D13,0,0,0
835,59.0,6.0,19.0,1645112014.9375,P12,D13,0,0,0
836,59.0,6.0,19.0,1645112014.96875,P12,D13,0,0,0
837,59.0,6.0,19.0,1645112015.0,P12,D13,0,0,0
838,59.0,6.0,19.0,1645112015.03125,P12,D13,0,0,0
839,59.0,6.0,19.0,1645112015.0625,P12,D13,0,0,0
840,59.0,7.0,19.0,1645112015.09375,P12,D13,0,0,0
841,59.0,7.0,19.0,1645112015.125,P12,D13,0,0,0
842,59.0,6.0,19.0,1645112015.15625,P12,D13,0,0,0
843,59.0,7.0,19.0,1645112015.1875,P12,D13,0,0,0
844,59.0,7.0,19.0,1645112015.21875,P12,D13,0,0,0
845,59.0,7.0,19.0,1645112015.25,P12,D13,0,0,0
846,59.0,6.0,19.0,1645112015.28125,P12,D13,0,0,0
847,59.0,6.0,19.0,1645112015.3125,P12,D13,0,0,0
848,58.0,6.0,19.0,1645112015.34375,P12,D13,0,0,0
849,59.0,7.0,19.0,1645112015.375,P12,D13,0,0,0
850,59.0,6.0,19.0,1645112015.40625,P12,D13,0,0,0
851,59.0,7.0,19.0,1645112015.4375,P12,D13,0,0,0
852,59.0,6.0,19.0,1645112015.46875,P12,D13,0,0,0
853,59.0,7.0,19.0,1645112015.5,P12,D13,0,0,0
854,59.0,6.0,19.0,1645112015.53125,P12,D13,0,0,0
855,59.0,6.0,19.0,1645112015.5625,P12,D13,0,0,0
856,59.0,6.0,19.0,1645112015.59375,P12,D13,0,0,0
857,59.0,6.0,19.0,1645112015.625,P12,D13,0,0,0
858,59.0,7.0,19.0,1645112015.65625,P12,D13,0,0,0
859,59.0,6.0,19.0,1645112015.6875,P12,D13,0,0,0
860,59.0,6.0,19.0,1645112015.71875,P12,D13,0,0,0
861,59.0,7.0,19.0,1645112015.75,P12,D13,0,0,0
862,59.0,6.0,19.0,1645112015.78125,P12,D13,0,0,0
863,59.0,6.0,19.0,1645112015.8125,P12,D13,0,0,0
864,59.0,6.0,19.0,1645112015.84375,P12,D13,0,0,0
865,59.0,6.0,19.0,1645112015.875,P12,D13,0,0,0
866,59.0,6.0,19.0,1645112015.90625,P12,D13,0,0,0
867,59.0,6.0,19.0,1645112015.9375,P12,D13,0,0,0
868,59.0,6.0,19.0,1645112015.96875,P12,D13,0,0,0
869,59.0,6.0,19.0,1645112016.0,P12,D13,0,0,0
870,59.0,6.0,19.0,1645112016.03125,P12,D13,0,0,0
871,59.0,6.0,19.0,1645112016.0625,P12,D13,0,0,0
872,59.0,6.0,19.0,1645112016.09375,P12,D13,0,0,0
873,59.0,6.0,19.0,1645112016.125,P12,D13,0,0,0
874,59.0,6.0,19.0,1645112016.15625,P12,D13,0,0,0
875,59.0,6.0,19.0,1645112016.1875,P12,D13,0,0,0
876,59.0,6.0,19.0,1645112016.21875,P12,D13,0,0,0
877,59.0,6.0,19.0,1645112016.25,P12,D13,0,0,0
878,59.0,7.0,19.0,1645112016.28125,P12,D13,0,0,0
879,59.0,6.0,19.0,1645112016.3125,P12,D13,0,0,0
880,59.0,6.0,19.0,1645112016.34375,P12,D13,0,0,0
881,59.0,6.0,19.0,1645112016.375,P12,D13,0,0,0
882,58.0,7.0,19.0,1645112016.40625,P12,D13,0,0,0
883,59.0,6.0,19.0,1645112016.4375,P12,D13,0,0,0
884,59.0,7.0,19.0,1645112016.46875,P12,D13,0,0,0
885,59.0,7.0,19.0,1645112016.5,P12,D13,0,0,0
886,59.0,6.0,19.0,1645112016.53125,P12,D13,0,0,0
887,59.0,6.0,19.0,1645112016.5625,P12,D13,0,0,0
888,59.0,6.0,19.0,1645112016.59375,P12,D13,0,0,0
889,59.0,7.0,19.0,1645112016.625,P12,D13,0,0,0
890,59.0,6.0,19.0,1645112016.65625,P12,D13,0,0,0
891,59.0,6.0,19.0,1645112016.6875,P12,D13,0,0,0
892,59.0,6.0,19.0,1645112016.71875,P12,D13,0,0,0
893,59.0,6.0,19.0,1645112016.75,P12,D13,0,0,0
894,59.0,6.0,19.0,1645112016.78125,P12,D13,0,0,0
895,59.0,7.0,19.0,1645112016.8125,P12,D13,0,0,0
896,59.0,6.0,19.0,1645112016.84375,P12,D13,0,0,0
897,59.0,6.0,19.0,1645112016.875,P12,D13,0,0,0
898,59.0,6.0,18.0,1645112016.90625,P12,D13,0,0,0
899,59.0,6.0,19.0,1645112016.9375,P12,D13,0,0,0
900,59.0,6.0,19.0,1645112016.96875,P12,D13,0,0,0
901,59.0,6.0,19.0,1645112017.0,P12,D13,0,0,0
902,59.0,6.0,19.0,1645112017.03125,P12,D13,0,0,0
903,59.0,6.0,19.0,1645112017.0625,P12,D13,0,0,0
904,59.0,6.0,19.0,1645112017.09375,P12,D13,0,0,0
905,59.0,6.0,19.0,1645112017.125,P12,D13,0,0,0
906,59.0,6.0,19.0,1645112017.15625,P12,D13,0,0,0
907,59.0,6.0,19.0,1645112017.1875,P12,D13,0,0,0
908,59.0,6.0,19.0,1645112017.21875,P12,D13,0,0,0
909,59.0,6.0,19.0,1645112017.25,P12,D13,0,0,0
910,59.0,6.0,19.0,1645112017.28125,P12,D13,0,0,0
911,59.0,7.0,18.0,1645112017.3125,P12,D13,0,0,0
912,59.0,7.0,19.0,1645112017.34375,P12,D13,0,0,0
913,59.0,6.0,19.0,1645112017.375,P12,D13,0,0,0
914,59.0,6.0,18.0,1645112017.40625,P12,D13,0,0,0
915,59.0,6.0,19.0,1645112017.4375,P12,D13,0,0,0
916,59.0,6.0,18.0,1645112017.46875,P12,D13,0,0,0
917,59.0,6.0,19.0,1645112017.5,P12,D13,0,0,0
918,59.0,6.0,19.0,1645112017.53125,P12,D13,0,0,0
919,59.0,6.0,19.0,1645112017.5625,P12,D13,0,0,0
920,59.0,6.0,19.0,1645112017.59375,P12,D13,0,0,0
921,59.0,6.0,18.0,1645112017.625,P12,D13,0,0,0
922,59.0,6.0,19.0,1645112017.65625,P12,D13,0,0,0
923,59.0,6.0,19.0,1645112017.6875,P12,D13,0,0,0
924,59.0,6.0,18.0,1645112017.71875,P12,D13,0,0,0
925,59.0,6.0,19.0,1645112017.75,P12,D13,0,0,0
926,59.0,6.0,19.0,1645112017.78125,P12,D13,0,0,0
927,59.0,6.0,19.0,1645112017.8125,P12,D13,0,0,0
928,59.0,6.0,19.0,1645112017.84375,P12,D13,0,0,0
929,59.0,7.0,19.0,1645112017.875,P12,D13,0,0,0
930,59.0,6.0,18.0,1645112017.90625,P12,D13,0,0,0
931,59.0,6.0,19.0,1645112017.9375,P12,D13,0,0,0
932,59.0,6.0,19.0,1645112017.96875,P12,D13,0,0,0
933,59.0,7.0,19.0,1645112018.0,P12,D13,0,0,0
934,59.0,6.0,19.0,1645112018.03125,P12,D13,0,0,0
935,59.0,6.0,19.0,1645112018.0625,P12,D13,0,0,0
936,59.0,7.0,19.0,1645112018.09375,P12,D13,0,0,0
937,59.0,7.0,19.0,1645112018.125,P12,D13,0,0,0
938,59.0,7.0,19.0,1645112018.15625,P12,D13,0,0,0
939,59.0,6.0,18.0,1645112018.1875,P12,D13,0,0,0
940,59.0,6.0,19.0,1645112018.21875,P12,D13,0,0,0
941,59.0,6.0,18.0,1645112018.25,P12,D13,0,0,0
942,59.0,6.0,19.0,1645112018.28125,P12,D13,0,0,0
943,59.0,6.0,19.0,1645112018.3125,P12,D13,0,0,0
944,59.0,6.0,19.0,1645112018.34375,P12,D13,0,0,0
945,59.0,6.0,19.0,1645112018.375,P12,D13,0,0,0
946,59.0,6.0,18.0,1645112018.40625,P12,D13,0,0,0
947,59.0,6.0,19.0,1645112018.4375,P12,D13,0,0,0
948,59.0,6.0,19.0,1645112018.46875,P12,D13,0,0,0
949,59.0,7.0,18.0,1645112018.5,P12,D13,0,0,0
950,59.0,6.0,18.0,1645112018.53125,P12,D13,0,0,0
951,59.0,6.0,19.0,1645112018.5625,P12,D13,0,0,0
952,59.0,6.0,19.0,1645112018.59375,P12,D13,0,0,0
953,59.0,6.0,19.0,1645112018.625,P12,D13,0,0,0
954,59.0,7.0,19.0,1645112018.65625,P12,D13,0,0,0
955,59.0,6.0,19.0,1645112018.6875,P12,D13,0,0,0
956,59.0,6.0,19.0,1645112018.71875,P12,D13,0,0,0
957,59.0,7.0,19.0,1645112018.75,P12,D13,0,0,0
958,59.0,6.0,19.0,1645112018.78125,P12,D13,0,0,0
959,59.0,7.0,18.0,1645112018.8125,P12,D13,0,0,0
960,59.0,7.0,19.0,1645112018.84375,P12,D13,0,0,0
961,59.0,6.0,19.0,1645112018.875,P12,D13,0,0,0
962,59.0,7.0,19.0,1645112018.90625,P12,D13,0,0,0
963,59.0,6.0,19.0,1645112018.9375,P12,D13,0,0,0
964,59.0,6.0,19.0,1645112018.96875,P12,D13,0,0,0
965,59.0,7.0,19.0,1645112019.0,P12,D13,0,0,0
966,59.0,6.0,19.0,1645112019.03125,P12,D13,0,0,0
967,59.0,6.0,19.0,1645112019.0625,P12,D13,0,0,0
968,59.0,7.0,19.0,1645112019.09375,P12,D13,0,0,0
969,59.0,7.0,19.0,1645112019.125,P12,D13,0,0,0
970,59.0,6.0,19.0,1645112019.15625,P12,D13,0,0,0
971,59.0,7.0,19.0,1645112019.1875,P12,D13,0,0,0
972,59.0,6.0,19.0,1645112019.21875,P12,D13,0,0,0
973,59.0,6.0,19.0,1645112019.25,P12,D13,0,0,0
974,59.0,6.0,19.0,1645112019.28125,P12,D13,0,0,0
975,59.0,7.0,19.0,1645112019.3125,P12,D13,0,0,0
976,59.0,6.0,19.0,1645112019.34375,P12,D13,0,0,0
977,59.0,7.0,19.0,1645112019.375,P12,D13,0,0,0
978,59.0,7.0,19.0,1645112019.40625,P12,D13,0,0,0
979,59.0,6.0,18.0,1645112019.4375,P12,D13,0,0,0
980,59.0,6.0,19.0,1645112019.46875,P12,D13,0,0,0
981,59.0,6.0,19.0,1645112019.5,P12,D13,0,0,0
982,59.0,7.0,19.0,1645112019.53125,P12,D13,0,0,0
983,59.0,6.0,19.0,1645112019.5625,P12,D13,0,0,0
984,59.0,6.0,19.0,1645112019.59375,P12,D13,0,0,0
985,59.0,6.0,19.0,1645112019.625,P12,D13,0,0,0
986,59.0,6.0,19.0,1645112019.65625,P12,D13,0,0,0
987,59.0,6.0,19.0,1645112019.6875,P12,D13,0,0,0
988,59.0,6.0,19.0,1645112019.71875,P12,D13,0,0,0
989,59.0,6.0,19.0,1645112019.75,P12,D13,0,0,0
990,59.0,6.0,19.0,1645112019.78125,P12,D13,0,0,0
991,59.0,6.0,19.0,1645112019.8125,P12,D13,0,0,0
992,59.0,6.0,19.0,1645112019.84375,P12,D13,0,0,0
993,59.0,6.0,18.0,1645112019.875,P12,D13,0,0,0
994,59.0,6.0,19.0,1645112019.90625,P12,D13,0,0,0
995,59.0,6.0,19.0,1645112019.9375,P12,D13,0,0,0
996,59.0,7.0,19.0,1645112019.96875,P12,D13,0,0,0
997,59.0,6.0,19.0,1645112020.0,P12,D13,0,0,0
998,59.0,6.0,18.0,1645112020.03125,P12,D13,0,0,0
999,59.0,6.0,19.0,1645112020.0625,P12,D13,0,0,0
1000,59.0,7.0,19.0,1645112020.09375,P12,D13,0,0,0
1001,59.0,7.0,19.0,1645112020.125,P12,D13,0,0,0
1002,59.0,7.0,19.0,1645112020.15625,P12,D13,0,0,0
1003,59.0,6.0,19.0,1645112020.1875,P12,D13,0,0,0
1004,59.0,6.0,19.0,1645112020.21875,P12,D13,0,0,0
1005,59.0,7.0,19.0,1645112020.25,P12,D13,0,0,0
1006,59.0,7.0,19.0,1645112020.28125,P12,D13,0,0,0
1007,59.0,6.0,19.0,1645112020.3125,P12,D13,0,0,0
1008,59.0,7.0,19.0,1645112020.34375,P12,D13,0,0,0
1009,58.0,6.0,19.0,1645112020.375,P12,D13,0,0,0
1010,59.0,7.0,19.0,1645112020.40625,P12,D13,0,0,0
1011,59.0,6.0,19.0,1645112020.4375,P12,D13,0,0,0
1012,59.0,6.0,19.0,1645112020.46875,P12,D13,0,0,0
1013,59.0,6.0,18.0,1645112020.5,P12,D13,0,0,0
1014,59.0,6.0,19.0,1645112020.53125,P12,D13,0,0,0
1015,59.0,7.0,19.0,1645112020.5625,P12,D13,0,0,0
1016,59.0,7.0,19.0,1645112020.59375,P12,D13,0,0,0
1017,59.0,7.0,19.0,1645112020.625,P12,D13,0,0,0
1018,59.0,6.0,19.0,1645112020.65625,P12,D13,0,0,0
1019,59.0,6.0,19.0,1645112020.6875,P12,D13,0,0,0
1020,59.0,7.0,19.0,1645112020.71875,P12,D13,0,0,0
1021,59.0,7.0,19.0,1645112020.75,P12,D13,0,0,0
1022,59.0,6.0,19.0,1645112020.78125,P12,D13,0,0,0
1023,59.0,6.0,19.0,1645112020.8125,P12,D13,0,0,0
1024,59.0,6.0,19.0,1645112020.84375,P12,D13,0,0,0
1025,59.0,6.0,19.0,1645112020.875,P12,D13,0,0,0
1026,59.0,6.0,19.0,1645112020.90625,P12,D13,0,0,0
1027,59.0,6.0,19.0,1645112020.9375,P12,D13,0,0,0
1028,59.0,7.0,19.0,1645112020.96875,P12,D13,0,0,0
1029,59.0,6.0,19.0,1645112021.0,P12,D13,0,0,0
1030,59.0,6.0,19.0,1645112021.03125,P12,D13,0,0,0
1031,59.0,7.0,19.0,1645112021.0625,P12,D13,0,0,0
1032,59.0,7.0,19.0,1645112021.09375,P12,D13,0,0,0
1033,59.0,6.0,19.0,1645112021.125,P12,D13,0,0,0
1034,59.0,6.0,19.0,1645112021.15625,P12,D13,0,0,0
1035,59.0,6.0,19.0,1645112021.1875,P12,D13,0,0,0
1036,59.0,6.0,19.0,1645112021.21875,P12,D13,0,0,0
1037,59.0,7.0,19.0,1645112021.25,P12,D13,0,0,0
1038,59.0,6.0,18.0,1645112021.28125,P12,D13,0,0,0
1039,59.0,7.0,19.0,1645112021.3125,P12,D13,0,0,0
1040,59.0,6.0,19.0,1645112021.34375,P12,D13,0,0,0
1041,59.0,6.0,19.0,1645112021.375,P12,D13,0,0,0
1042,59.0,6.0,19.0,1645112021.40625,P12,D13,0,0,0
1043,58.0,6.0,19.0,1645112021.4375,P12,D13,0,0,0
1044,59.0,7.0,19.0,1645112021.46875,P12,D13,0,0,0
1045,59.0,6.0,19.0,1645112021.5,P12,D13,0,0,0
1046,59.0,7.0,19.0,1645112021.53125,P12,D13,0,0,0
1047,59.0,6.0,19.0,1645112021.5625,P12,D13,0,0,0
1048,59.0,7.0,19.0,1645112021.59375,P12,D13,0,0,0
1049,59.0,6.0,19.0,1645112021.625,P12,D13,0,0,0
1050,59.0,6.0,18.0,1645112021.65625,P12,D13,0,0,0
1051,59.0,6.0,19.0,1645112021.6875,P12,D13,0,0,0
1052,59.0,6.0,19.0,1645112021.71875,P12,D13,0,0,0
1053,59.0,6.0,19.0,1645112021.75,P12,D13,0,0,0
1054,59.0,6.0,19.0,1645112021.78125,P12,D13,0,0,0
1055,59.0,6.0,19.0,1645112021.8125,P12,D13,0,0,0
1056,59.0,6.0,19.0,1645112021.84375,P12,D13,0,0,0
1057,59.0,6.0,19.0,1645112021.875,P12,D13,0,0,0
1058,59.0,6.0,19.0,1645112021.90625,P12,D13,0,0,0
1059,59.0,6.0,19.0,1645112021.9375,P12,D13,0,0,0
1060,59.0,6.0,19.0,1645112021.96875,P12,D13,0,0,0
1061,59.0,6.0,18.0,1645112022.0,P12,D13,0,0,0
1062,59.0,6.0,19.0,1645112022.03125,P12,D13,0,0,0
1063,59.0,6.0,19.0,1645112022.0625,P12,D13,0,0,0
1064,59.0,6.0,19.0,1645112022.09375,P12,D13,0,0,0
1065,59.0,6.0,19.0,1645112022.125,P12,D13,0,0,0
1066,59.0,6.0,19.0,1645112022.15625,P12,D13,0,0,0
1067,59.0,6.0,19.0,1645112022.1875,P12,D13,0,0,0
1068,59.0,6.0,19.0,1645112022.21875,P12,D13,0,0,0
1069,59.0,6.0,18.0,1645112022.25,P12,D13,0,0,0
1070,59.0,7.0,19.0,1645112022.28125,P12,D13,0,0,0
1071,59.0,6.0,19.0,1645112022.3125,P12,D13,0,0,0
1072,59.0,6.0,19.0,1645112022.34375,P12,D13,0,0,0
1073,59.0,6.0,18.0,1645112022.375,P12,D13,0,0,0
1074,58.0,6.0,19.0,1645112022.40625,P12,D13,0,0,0
1075,59.0,6.0,18.0,1645112022.4375,P12,D13,0,0,0
1076,59.0,6.0,19.0,1645112022.46875,P12,D13,0,0,0
1077,59.0,6.0,19.0,1645112022.5,P12,D13,0,0,0
1078,59.0,6.0,19.0,1645112022.53125,P12,D13,0,0,0
1079,59.0,6.0,19.0,1645112022.5625,P12,D13,0,0,0
1080,59.0,7.0,19.0,1645112022.59375,P12,D13,0,0,0
1081,59.0,6.0,19.0,1645112022.625,P12,D13,0,0,0
1082,59.0,6.0,19.0,1645112022.65625,P12,D13,0,0,0
1083,59.0,6.0,19.0,1645112022.6875,P12,D13,0,0,0
1084,59.0,6.0,19.0,1645112022.71875,P12,D13,0,0,0
1085,59.0,6.0,19.0,1645112022.75,P12,D13,0,0,0
1086,59.0,6.0,18.0,1645112022.78125,P12,D13,0,0,0
1087,59.0,6.0,19.0,1645112022.8125,P12,D13,0,0,0
1088,59.0,6.0,19.0,1645112022.84375,P12,D13,0,0,0
1089,59.0,6.0,19.0,1645112022.875,P12,D13,0,0,0
1090,59.0,6.0,19.0,1645112022.90625,P12,D13,0,0,0
1091,59.0,6.0,19.0,1645112022.9375,P12,D13,0,0,0
1092,59.0,6.0,19.0,1645112022.96875,P12,D13,0,0,0
1093,59.0,6.0,19.0,1645112023.0,P12,D13,0,0,0
1094,59.0,6.0,19.0,1645112023.03125,P12,D13,0,0,0
1095,59.0,6.0,19.0,1645112023.0625,P12,D13,0,0,0
1096,59.0,6.0,19.0,1645112023.09375,P12,D13,0,0,0
1097,59.0,6.0,19.0,1645112023.125,P12,D13,0,0,0
1098,59.0,6.0,19.0,1645112023.15625,P12,D13,0,0,0
1099,59.0,6.0,19.0,1645112023.1875,P12,D13,0,0,0
1100,59.0,6.0,19.0,1645112023.21875,P12,D13,0,0,0
1101,59.0,6.0,19.0,1645112023.25,P12,D13,0,0,0
1102,59.0,7.0,19.0,1645112023.28125,P12,D13,0,0,0
1103,58.0,6.0,19.0,1645112023.3125,P12,D13,0,0,0
1104,59.0,6.0,19.0,1645112023.34375,P12,D13,0,0,0
1105,59.0,6.0,19.0,1645112023.375,P12,D13,0,0,0
1106,59.0,6.0,19.0,1645112023.40625,P12,D13,0,0,0
1107,59.0,6.0,19.0,1645112023.4375,P12,D13,0,0,0
1108,59.0,6.0,19.0,1645112023.46875,P12,D13,0,0,0
1109,59.0,7.0,19.0,1645112023.5,P12,D13,0,0,0
1110,59.0,6.0,19.0,1645112023.53125,P12,D13,0,0,0
1111,59.0,6.0,19.0,1645112023.5625,P12,D13,0,0,0
1112,59.0,6.0,19.0,1645112023.59375,P12,D13,0,0,0
1113,59.0,6.0,19.0,1645112023.625,P12,D13,0,0,0
1114,59.0,6.0,19.0,1645112023.65625,P12,D13,0,0,0
1115,59.0,7.0,19.0,1645112023.6875,P12,D13,0,0,0
1116,59.0,7.0,19.0,1645112023.71875,P12,D13,0,0,0
1117,59.0,6.0,19.0,1645112023.75,P12,D13,0,0,0
1118,59.0,7.0,19.0,1645112023.78125,P12,D13,0,0,0
1119,59.0,7.0,19.0,1645112023.8125,P12,D13,0,0,0
1120,59.0,6.0,19.0,1645112023.84375,P12,D13,0,0,0
1121,59.0,6.0,19.0,1645112023.875,P12,D13,0,0,0
1122,59.0,6.0,19.0,1645112023.90625,P12,D13,0,0,0
1123,59.0,6.0,19.0,1645112023.9375,P12,D13,0,0,0
1124,59.0,7.0,19.0,1645112023.96875,P12,D13,0,0,0
1125,59.0,6.0,19.0,1645112024.0,P12,D13,0,0,0
1126,59.0,6.0,19.0,1645112024.03125,P12,D13,0,0,0
1127,59.0,7.0,19.0,1645112024.0625,P12,D13,0,0,0
1128,59.0,6.0,19.0,1645112024.09375,P12,D13,0,0,0
1129,59.0,6.0,19.0,1645112024.125,P12,D13,0,0,0
1130,59.0,7.0,19.0,1645112024.15625,P12,D13,0,0,0
1131,59.0,7.0,19.0,1645112024.1875,P12,D13,0,0,0
1132,59.0,6.0,19.0,1645112024.21875,P12,D13,0,0,0
1133,59.0,6.0,19.0,1645112024.25,P12,D13,0,0,0
1134,59.0,6.0,19.0,1645112024.28125,P12,D13,0,0,0
1135,58.0,6.0,19.0,1645112024.3125,P12,D13,0,0,0
1136,59.0,6.0,19.0,1645112024.34375,P12,D13,0,0,0
1137,59.0,6.0,19.0,1645112024.375,P12,D13,0,0,0
1138,59.0,7.0,19.0,1645112024.40625,P12,D13,0,0,0
1139,59.0,6.0,19.0,1645112024.4375,P12,D13,0,0,0
1140,59.0,6.0,19.0,1645112024.46875,P12,D13,0,0,0
1141,59.0,6.0,19.0,1645112024.5,P12,D13,0,0,0
1142,59.0,6.0,19.0,1645112024.53125,P12,D13,0,0,0
1143,59.0,6.0,19.0,1645112024.5625,P12,D13,0,0,0
1144,59.0,6.0,19.0,1645112024.59375,P12,D13,0,0,0
1145,59.0,6.0,19.0,1645112024.625,P12,D13,0,0,0
1146,59.0,7.0,19.0,1645112024.65625,P12,D13,0,0,0
1147,59.0,6.0,19.0,1645112024.6875,P12,D13,0,0,0
1148,59.0,7.0,19.0,1645112024.71875,P12,D13,0,0,0
1149,59.0,6.0,19.0,1645112024.75,P12,D13,0,0,0
1150,59.0,6.0,19.0,1645112024.78125,P12,D13,0,0,0
1151,59.0,6.0,19.0,1645112024.8125,P12,D13,0,0,0
1152,59.0,6.0,19.0,1645112024.84375,P12,D13,0,0,0
1153,59.0,7.0,19.0,1645112024.875,P12,D13,0,0,0
1154,59.0,7.0,19.0,1645112024.90625,P12,D13,0,0,0
1155,59.0,7.0,19.0,1645112024.9375,P12,D13,0,0,0
1156,59.0,6.0,19.0,1645112024.96875,P12,D13,0,0,0
1157,59.0,7.0,19.0,1645112025.0,P12,D13,0,0,0
1158,59.0,6.0,19.0,1645112025.03125,P12,D13,0,0,0
1159,59.0,7.0,19.0,1645112025.0625,P12,D13,0,0,0
1160,59.0,6.0,19.0,1645112025.09375,P12,D13,0,0,0
1161,59.0,6.0,19.0,1645112025.125,P12,D13,0,0,0
1162,59.0,6.0,19.0,1645112025.15625,P12,D13,0,0,0
1163,59.0,6.0,18.0,1645112025.1875,P12,D13,0,0,0
1164,59.0,7.0,19.0,1645112025.21875,P12,D13,0,0,0
1165,59.0,6.0,19.0,1645112025.25,P12,D13,0,0,0
1166,59.0,6.0,19.0,1645112025.28125,P12,D13,0,0,0
1167,59.0,6.0,19.0,1645112025.3125,P12,D13,0,0,0
1168,58.0,6.0,19.0,1645112025.34375,P12,D13,0,0,0
1169,59.0,6.0,19.0,1645112025.375,P12,D13,0,0,0
1170,59.0,6.0,19.0,1645112025.40625,P12,D13,0,0,0
1171,59.0,6.0,19.0,1645112025.4375,P12,D13,0,0,0
1172,59.0,6.0,19.0,1645112025.46875,P12,D13,0,0,0
1173,59.0,6.0,19.0,1645112025.5,P12,D13,0,0,0
1174,59.0,6.0,19.0,1645112025.53125,P12,D13,0,0,0
1175,59.0,6.0,19.0,1645112025.5625,P12,D13,0,0,0
1176,59.0,6.0,19.0,1645112025.59375,P12,D13,0,0,0
1177,59.0,6.0,19.0,1645112025.625,P12,D13,0,0,0
1178,59.0,6.0,18.0,1645112025.65625,P12,D13,0,0,0
1179,59.0,6.0,18.0,1645112025.6875,P12,D13,0,0,0
1180,59.0,6.0,19.0,1645112025.71875,P12,D13,0,0,0
1181,59.0,6.0,19.0,1645112025.75,P12,D13,0,0,0
1182,59.0,6.0,18.0,1645112025.78125,P12,D13,0,0,0
1183,59.0,6.0,18.0,1645112025.8125,P12,D13,0,0,0
1184,59.0,6.0,19.0,1645112025.84375,P12,D13,0,0,0
1185,59.0,6.0,19.0,1645112025.875,P12,D13,0,0,0
1186,59.0,6.0,19.0,1645112025.90625,P12,D13,0,0,0
1187,59.0,6.0,19.0,1645112025.9375,P12,D13,0,0,0
1188,59.0,7.0,19.0,1645112025.96875,P12,D13,0,0,0
1189,59.0,6.0,19.0,1645112026.0,P12,D13,0,0,0
1190,59.0,6.0,19.0,1645112026.03125,P12,D13,0,0,0
1191,59.0,6.0,19.0,1645112026.0625,P12,D13,0,0,0
1192,59.0,6.0,19.0,1645112026.09375,P12,D13,0,0,0
1193,59.0,6.0,18.0,1645112026.125,P12,D13,0,0,0
1194,59.0,6.0,19.0,1645112026.15625,P12,D13,0,0,0
1195,59.0,6.0,18.0,1645112026.1875,P12,D13,0,0,0
1196,59.0,6.0,19.0,1645112026.21875,P12,D13,0,0,0
1197,59.0,6.0,19.0,1645112026.25,P12,D13,0,0,0
1198,59.0,6.0,19.0,1645112026.28125,P12,D13,0,0,0
1199,59.0,6.0,19.0,1645112026.3125,P12,D13,0,0,0
1200,59.0,6.0,19.0,1645112026.34375,P12,D13,0,0,0
1201,59.0,6.0,18.0,1645112026.375,P12,D13,0,0,0
1202,59.0,6.0,19.0,1645112026.40625,P12,D13,0,0,0
1203,59.0,6.0,19.0,1645112026.4375,P12,D13,0,0,0
1204,59.0,6.0,19.0,1645112026.46875,P12,D13,0,0,0
1205,59.0,7.0,19.0,1645112026.5,P12,D13,0,0,0
1206,59.0,6.0,19.0,1645112026.53125,P12,D13,0,0,0
1207,59.0,6.0,19.0,1645112026.5625,P12,D13,0,0,0
1208,59.0,6.0,19.0,1645112026.59375,P12,D13,0,0,0
1209,59.0,6.0,19.0,1645112026.625,P12,D13,0,0,0
1210,59.0,6.0,19.0,1645112026.65625,P12,D13,0,0,0
1211,59.0,6.0,19.0,1645112026.6875,P12,D13,0,0,0
1212,59.0,6.0,19.0,1645112026.71875,P12,D13,0,0,0
1213,59.0,6.0,19.0,1645112026.75,P12,D13,0,0,0
1214,59.0,6.0,19.0,1645112026.78125,P12,D13,0,0,0
1215,59.0,6.0,19.0,1645112026.8125,P12,D13,0,0,0
1216,59.0,6.0,19.0,1645112026.84375,P12,D13,0,0,0
1217,59.0,6.0,19.0,1645112026.875,P12,D13,0,0,0
1218,59.0,6.0,19.0,1645112026.90625,P12,D13,0,0,0
1219,59.0,6.0,19.0,1645112026.9375,P12,D13,0,0,0
1220,59.0,6.0,19.0,1645112026.96875,P12,D13,0,0,0
1221,59.0,6.0,19.0,1645112027.0,P12,D13,0,0,0
1222,59.0,6.0,19.0,1645112027.03125,P12,D13,0,0,0
1223,59.0,6.0,19.0,1645112027.0625,P12,D13,0,0,0
1224,59.0,6.0,19.0,1645112027.09375,P12,D13,0,0,0
1225,59.0,6.0,19.0,1645112027.125,P12,D13,0,0,0
1226,59.0,7.0,19.0,1645112027.15625,P12,D13,0,0,0
1227,59.0,7.0,19.0,1645112027.1875,P12,D13,0,0,0
1228,59.0,6.0,19.0,1645112027.21875,P12,D13,0,0,0
1229,59.0,6.0,19.0,1645112027.25,P12,D13,0,0,0
1230,59.0,6.0,19.0,1645112027.28125,P12,D13,0,0,0
1231,58.0,6.0,19.0,1645112027.3125,P12,D13,0,0,0
1232,59.0,6.0,18.0,1645112027.34375,P12,D13,0,0,0
1233,59.0,7.0,19.0,1645112027.375,P12,D13,0,0,0
1234,59.0,6.0,19.0,1645112027.40625,P12,D13,0,0,0
1235,59.0,6.0,19.0,1645112027.4375,P12,D13,0,0,0
1236,59.0,6.0,19.0,1645112027.46875,P12,D13,0,0,0
1237,59.0,6.0,19.0,1645112027.5,P12,D13,0,0,0
1238,59.0,6.0,19.0,1645112027.53125,P12,D13,0,0,0
1239,59.0,7.0,19.0,1645112027.5625,P12,D13,0,0,0
1240,59.0,6.0,19.0,1645112027.59375,P12,D13,0,0,0
1241,59.0,6.0,18.0,1645112027.625,P12,D13,0,0,0
1242,59.0,6.0,19.0,1645112027.65625,P12,D13,0,0,0
1243,59.0,6.0,19.0,1645112027.6875,P12,D13,0,0,0
1244,59.0,6.0,19.0,1645112027.71875,P12,D13,0,0,0
1245,59.0,6.0,19.0,1645112027.75,P12,D13,0,0,0
1246,59.0,6.0,19.0,1645112027.78125,P12,D13,0,0,0
1247,59.0,6.0,19.0,1645112027.8125,P12,D13,0,0,0
1248,59.0,6.0,19.0,1645112027.84375,P12,D13,0,0,0
1249,59.0,6.0,19.0,1645112027.875,P12,D13,0,0,0
1250,59.0,6.0,19.0,1645112027.90625,P12,D13,0,0,0
1251,59.0,6.0,19.0,1645112027.9375,P12,D13,0,0,0
1252,59.0,6.0,19.0,1645112027.96875,P12,D13,0,0,0
1253,59.0,6.0,19.0,1645112028.0,P12,D13,0,0,0
1254,59.0,6.0,19.0,1645112028.03125,P12,D13,0,0,0
1255,59.0,6.0,19.0,1645112028.0625,P12,D13,0,0,0
1256,59.0,6.0,19.0,1645112028.09375,P12,D13,0,0,0
1257,59.0,6.0,19.0,1645112028.125,P12,D13,0,0,0
1258,59.0,7.0,19.0,1645112028.15625,P12,D13,0,0,0
1259,59.0,6.0,19.0,1645112028.1875,P12,D13,0,0,0
1260,59.0,6.0,18.0,1645112028.21875,P12,D13,0,0,0
1261,59.0,6.0,19.0,1645112028.25,P12,D13,0,0,0
1262,59.0,6.0,19.0,1645112028.28125,P12,D13,0,0,0
1263,59.0,6.0,19.0,1645112028.3125,P12,D13,0,0,0
1264,59.0,6.0,19.0,1645112028.34375,P12,D13,0,0,0
1265,58.0,6.0,19.0,1645112028.375,P12,D13,0,0,0
1266,59.0,6.0,19.0,1645112028.40625,P12,D13,0,0,0
1267,59.0,7.0,19.0,1645112028.4375,P12,D13,0,0,0
1268,59.0,7.0,19.0,1645112028.46875,P12,D13,0,0,0
1269,59.0,6.0,19.0,1645112028.5,P12,D13,0,0,0
1270,59.0,6.0,19.0,1645112028.53125,P12,D13,0,0,0
1271,58.0,6.0,19.0,1645112028.5625,P12,D13,0,0,0
1272,59.0,6.0,19.0,1645112028.59375,P12,D13,0,0,0
1273,59.0,6.0,19.0,1645112028.625,P12,D13,0,0,0
1274,59.0,6.0,19.0,1645112028.65625,P12,D13,0,0,0
1275,59.0,6.0,19.0,1645112028.6875,P12,D13,0,0,0
1276,59.0,6.0,19.0,1645112028.71875,P12,D13,0,0,0
1277,59.0,6.0,19.0,1645112028.75,P12,D13,0,0,0
1278,59.0,6.0,19.0,1645112028.78125,P12,D13,0,0,0
1279,59.0,6.0,19.0,1645112028.8125,P12,D13,0,0,0
1280,59.0,6.0,19.0,1645112028.84375,P12,D13,0,0,0
1281,59.0,6.0,19.0,1645112028.875,P12,D13,0,0,0
1282,59.0,6.0,19.0,1645112028.90625,P12,D13,0,0,0
1283,59.0,6.0,19.0,1645112028.9375,P12,D13,0,0,0
1284,59.0,6.0,19.0,1645112028.96875,P12,D13,0,0,0
1285,59.0,6.0,19.0,1645112029.0,P12,D13,0,0,0
1286,59.0,6.0,19.0,1645112029.03125,P12,D13,0,0,0
1287,59.0,6.0,19.0,1645112029.0625,P12,D13,0,0,0
1288,59.0,6.0,19.0,1645112029.09375,P12,D13,0,0,0
1289,59.0,6.0,19.0,1645112029.125,P12,D13,0,0,0
1290,59.0,6.0,19.0,1645112029.15625,P12,D13,0,0,0
1291,59.0,6.0,19.0,1645112029.1875,P12,D13,0,0,0
1292,59.0,6.0,19.0,1645112029.21875,P12,D13,0,0,0
1293,59.0,6.0,19.0,1645112029.25,P12,D13,0,0,0
1294,59.0,6.0,19.0,1645112029.28125,P12,D13,0,0,0
1295,59.0,6.0,18.0,1645112029.3125,P12,D13,0,0,0
1296,59.0,6.0,19.0,1645112029.34375,P12,D13,0,0,0
1297,59.0,6.0,19.0,1645112029.375,P12,D13,0,0,0
1298,59.0,6.0,19.0,1645112029.40625,P12,D13,0,0,0
1299,59.0,6.0,19.0,1645112029.4375,P12,D13,0,0,0
1300,59.0,6.0,19.0,1645112029.46875,P12,D13,0,0,0
1301,59.0,6.0,19.0,1645112029.5,P12,D13,0,0,0
1302,59.0,6.0,19.0,1645112029.53125,P12,D13,0,0,0
1303,59.0,6.0,19.0,1645112029.5625,P12,D13,0,0,0
1304,59.0,6.0,18.0,1645112029.59375,P12,D13,0,0,0
1305,59.0,6.0,19.0,1645112029.625,P12,D13,0,0,0
1306,59.0,6.0,19.0,1645112029.65625,P12,D13,0,0,0
1307,59.0,6.0,19.0,1645112029.6875,P12,D13,0,0,0
1308,59.0,6.0,19.0,1645112029.71875,P12,D13,0,0,0
1309,59.0,6.0,19.0,1645112029.75,P12,D13,0,0,0
1310,59.0,6.0,19.0,1645112029.78125,P12,D13,0,0,0
1311,59.0,6.0,19.0,1645112029.8125,P12,D13,0,0,0
1312,59.0,6.0,19.0,1645112029.84375,P12,D13,0,0,0
1313,59.0,6.0,19.0,1645112029.875,P12,D13,0,0,0
1314,59.0,6.0,19.0,1645112029.90625,P12,D13,0,0,0
1315,59.0,6.0,19.0,1645112029.9375,P12,D13,0,0,0
1316,59.0,6.0,19.0,1645112029.96875,P12,D13,0,0,0
1317,59.0,6.0,19.0,1645112030.0,P12,D13,0,0,0
1318,59.0,6.0,19.0,1645112030.03125,P12,D13,0,0,0
1319,59.0,6.0,19.0,1645112030.0625,P12,D13,0,0,0
1320,59.0,6.0,18.0,1645112030.09375,P12,D13,0,0,0
1321,59.0,6.0,19.0,1645112030.125,P12,D13,0,0,0
1322,59.0,6.0,19.0,1645112030.15625,P12,D13,0,0,0
1323,59.0,6.0,19.0,1645112030.1875,P12,D13,0,0,0
1324,59.0,6.0,19.0,1645112030.21875,P12,D13,0,0,0
1325,59.0,6.0,19.0,1645112030.25,P12,D13,0,0,0
1326,59.0,6.0,19.0,1645112030.28125,P12,D13,0,0,0
1327,59.0,7.0,19.0,1645112030.3125,P12,D13,0,0,0
1328,59.0,6.0,19.0,1645112030.34375,P12,D13,0,0,0
1329,59.0,6.0,19.0,1645112030.375,P12,D13,0,0,0
1330,59.0,6.0,19.0,1645112030.40625,P12,D13,0,0,0
1331,58.0,6.0,19.0,1645112030.4375,P12,D13,0,0,0
1332,59.0,6.0,19.0,1645112030.46875,P12,D13,0,0,0
1333,59.0,6.0,19.0,1645112030.5,P12,D13,0,0,0
1334,59.0,6.0,19.0,1645112030.53125,P12,D13,0,0,0
1335,59.0,6.0,19.0,1645112030.5625,P12,D13,0,0,0
1336,59.0,6.0,19.0,1645112030.59375,P12,D13,0,0,0
1337,59.0,6.0,19.0,1645112030.625,P12,D13,0,0,0
1338,59.0,6.0,19.0,1645112030.65625,P12,D13,0,0,0
1339,59.0,7.0,19.0,1645112030.6875,P12,D13,0,0,0
1340,59.0,6.0,19.0,1645112030.71875,P12,D13,0,0,0
1341,59.0,7.0,19.0,1645112030.75,P12,D13,0,0,0
1342,59.0,6.0,19.0,1645112030.78125,P12,D13,0,0,0
1343,59.0,7.0,19.0,1645112030.8125,P12,D13,0,0,0
1344,59.0,6.0,19.0,1645112030.84375,P12,D13,0,0,0
1345,59.0,6.0,19.0,1645112030.875,P12,D13,0,0,0
1346,59.0,6.0,19.0,1645112030.90625,P12,D13,0,0,0
1347,59.0,6.0,19.0,1645112030.9375,P12,D13,0,0,0
1348,59.0,6.0,19.0,1645112030.96875,P12,D13,0,0,0
1349,59.0,7.0,19.0,1645112031.0,P12,D13,0,0,0
1350,59.0,6.0,19.0,1645112031.03125,P12,D13,0,0,0
1351,59.0,6.0,19.0,1645112031.0625,P12,D13,0,0,0
1352,59.0,7.0,19.0,1645112031.09375,P12,D13,0,0,0
1353,59.0,6.0,19.0,1645112031.125,P12,D13,0,0,0
1354,59.0,6.0,19.0,1645112031.15625,P12,D13,0,0,0
1355,59.0,6.0,19.0,1645112031.1875,P12,D13,0,0,0
1356,59.0,6.0,19.0,1645112031.21875,P12,D13,0,0,0
1357,59.0,6.0,19.0,1645112031.25,P12,D13,0,0,0
1358,59.0,6.0,19.0,1645112031.28125,P12,D13,0,0,0
1359,59.0,6.0,18.0,1645112031.3125,P12,D13,0,0,0
1360,59.0,6.0,19.0,1645112031.34375,P12,D13,0,0,0
1361,59.0,6.0,19.0,1645112031.375,P12,D13,0,0,0
1362,59.0,6.0,19.0,1645112031.40625,P12,D13,0,0,0
1363,59.0,6.0,19.0,1645112031.4375,P12,D13,0,0,0
1364,59.0,6.0,19.0,1645112031.46875,P12,D13,0,0,0
1365,59.0,6.0,19.0,1645112031.5,P12,D13,0,0,0
1366,59.0,6.0,19.0,1645112031.53125,P12,D13,0,0,0
1367,59.0,6.0,19.0,1645112031.5625,P12,D13,0,0,0
1368,59.0,6.0,19.0,1645112031.59375,P12,D13,0,0,0
1369,59.0,7.0,19.0,1645112031.625,P12,D13,0,0,0
1370,59.0,7.0,19.0,1645112031.65625,P12,D13,0,0,0
1371,59.0,6.0,19.0,1645112031.6875,P12,D13,0,0,0
1372,59.0,6.0,19.0,1645112031.71875,P12,D13,0,0,0
1373,59.0,6.0,19.0,1645112031.75,P12,D13,0,0,0
1374,59.0,6.0,19.0,1645112031.78125,P12,D13,0,0,0
1375,59.0,6.0,19.0,1645112031.8125,P12,D13,0,0,0
1376,59.0,6.0,19.0,1645112031.84375,P12,D13,0,0,0
1377,59.0,6.0,19.0,1645112031.875,P12,D13,0,0,0
1378,59.0,7.0,19.0,1645112031.90625,P12,D13,0,0,0
1379,59.0,6.0,19.0,1645112031.9375,P12,D13,0,0,0
1380,59.0,6.0,19.0,1645112031.96875,P12,D13,0,0,0
1381,59.0,6.0,19.0,1645112032.0,P12,D13,0,0,0
1382,59.0,6.0,19.0,1645112032.03125,P12,D13,0,0,0
1383,59.0,6.0,19.0,1645112032.0625,P12,D13,0,0,0
1384,59.0,7.0,19.0,1645112032.09375,P12,D13,0,0,0
1385,59.0,7.0,19.0,1645112032.125,P12,D13,0,0,0
1386,59.0,6.0,19.0,1645112032.15625,P12,D13,0,0,0
1387,59.0,6.0,19.0,1645112032.1875,P12,D13,0,0,0
1388,59.0,6.0,19.0,1645112032.21875,P12,D13,0,0,0
1389,59.0,7.0,19.0,1645112032.25,P12,D13,0,0,0
1390,59.0,7.0,19.0,1645112032.28125,P12,D13,0,0,0
1391,59.0,6.0,19.0,1645112032.3125,P12,D13,0,0,0
1392,59.0,6.0,19.0,1645112032.34375,P12,D13,0,0,0
1393,59.0,7.0,19.0,1645112032.375,P12,D13,0,0,0
1394,59.0,6.0,19.0,1645112032.40625,P12,D13,0,0,0
1395,59.0,6.0,19.0,1645112032.4375,P12,D13,0,0,0
1396,60.0,7.0,19.0,1645112032.46875,P12,D13,0,0,0
1397,58.0,6.0,19.0,1645112032.5,P12,D13,0,0,0
1398,59.0,6.0,19.0,1645112032.53125,P12,D13,0,0,0
1399,59.0,6.0,19.0,1645112032.5625,P12,D13,0,0,0
1400,59.0,6.0,19.0,1645112032.59375,P12,D13,0,0,0
1401,59.0,6.0,19.0,1645112032.625,P12,D13,0,0,0
1402,59.0,6.0,19.0,1645112032.65625,P12,D13,0,0,0
1403,59.0,6.0,19.0,1645112032.6875,P12,D13,0,0,0
1404,59.0,6.0,19.0,1645112032.71875,P12,D13,0,0,0
1405,59.0,6.0,19.0,1645112032.75,P12,D13,0,0,0
1406,59.0,6.0,19.0,1645112032.78125,P12,D13,0,0,0
1407,59.0,6.0,19.0,1645112032.8125,P12,D13,0,0,0
1408,59.0,6.0,19.0,1645112032.84375,P12,D13,0,0,0
1409,59.0,6.0,19.0,1645112032.875,P12,D13,0,0,0
1410,59.0,6.0,19.0,1645112032.90625,P12,D13,0,0,0
1411,59.0,6.0,19.0,1645112032.9375,P12,D13,0,0,0
1412,59.0,6.0,19.0,1645112032.96875,P12,D13,0,0,0
1413,59.0,6.0,19.0,1645112033.0,P12,D13,0,0,0
1414,59.0,6.0,19.0,1645112033.03125,P12,D13,0,0,0
1415,59.0,6.0,19.0,1645112033.0625,P12,D13,0,0,0
1416,59.0,6.0,19.0,1645112033.09375,P12,D13,0,0,0
1417,59.0,6.0,19.0,1645112033.125,P12,D13,0,0,0
1418,59.0,6.0,19.0,1645112033.15625,P12,D13,0,0,0
1419,59.0,6.0,18.0,1645112033.1875,P12,D13,0,0,0
1420,59.0,6.0,19.0,1645112033.21875,P12,D13,0,0,0
1421,59.0,6.0,19.0,1645112033.25,P12,D13,0,0,0
1422,59.0,6.0,19.0,1645112033.28125,P12,D13,0,0,0
1423,59.0,6.0,19.0,1645112033.3125,P12,D13,0,0,0
1424,59.0,6.0,19.0,1645112033.34375,P12,D13,0,0,0
1425,59.0,7.0,19.0,1645112033.375,P12,D13,0,0,0
1426,59.0,6.0,19.0,1645112033.40625,P12,D13,0,0,0
1427,59.0,6.0,19.0,1645112033.4375,P12,D13,0,0,0
1428,59.0,6.0,19.0,1645112033.46875,P12,D13,0,0,0
1429,59.0,6.0,18.0,1645112033.5,P12,D13,0,0,0
1430,59.0,6.0,19.0,1645112033.53125,P12,D13,0,0,0
1431,59.0,6.0,18.0,1645112033.5625,P12,D13,0,0,0
1432,59.0,6.0,19.0,1645112033.59375,P12,D13,0,0,0
1433,59.0,6.0,19.0,1645112033.625,P12,D13,0,0,0
1434,59.0,6.0,19.0,1645112033.65625,P12,D13,0,0,0
1435,59.0,6.0,19.0,1645112033.6875,P12,D13,0,0,0
1436,59.0,6.0,19.0,1645112033.71875,P12,D13,0,0,0
1437,59.0,6.0,19.0,1645112033.75,P12,D13,0,0,0
1438,59.0,6.0,19.0,1645112033.78125,P12,D13,0,0,0
1439,59.0,6.0,19.0,1645112033.8125,P12,D13,0,0,0
1440,59.0,6.0,19.0,1645112033.84375,P12,D13,0,0,0
1441,59.0,6.0,18.0,1645112033.875,P12,D13,0,0,0
1442,59.0,6.0,19.0,1645112033.90625,P12,D13,0,0,0
1443,59.0,6.0,18.0,1645112033.9375,P12,D13,0,0,0
1444,59.0,6.0,19.0,1645112033.96875,P12,D13,0,0,0
1445,59.0,6.0,19.0,1645112034.0,P12,D13,0,0,0
1446,59.0,6.0,19.0,1645112034.03125,P12,D13,0,0,0
1447,59.0,6.0,19.0,1645112034.0625,P12,D13,0,0,0
1448,59.0,6.0,19.0,1645112034.09375,P12,D13,0,0,0
1449,59.0,6.0,19.0,1645112034.125,P12,D13,0,0,0
1450,59.0,6.0,19.0,1645112034.15625,P12,D13,0,0,0
1451,59.0,6.0,19.0,1645112034.1875,P12,D13,0,0,0
1452,59.0,6.0,19.0,1645112034.21875,P12,D13,0,0,0
1453,59.0,6.0,19.0,1645112034.25,P12,D13,0,0,0
1454,59.0,7.0,19.0,1645112034.28125,P12,D13,0,0,0
1455,59.0,7.0,19.0,1645112034.3125,P12,D13,0,0,0
1456,59.0,6.0,19.0,1645112034.34375,P12,D13,0,0,0
1457,59.0,6.0,19.0,1645112034.375,P12,D13,0,0,0
1458,59.0,7.0,19.0,1645112034.40625,P12,D13,0,0,0
1459,59.0,6.0,19.0,1645112034.4375,P12,D13,0,0,0
1460,59.0,6.0,19.0,1645112034.46875,P12,D13,0,0,0
1461,59.0,6.0,19.0,1645112034.5,P12,D13,0,0,0
1462,59.0,7.0,19.0,1645112034.53125,P12,D13,0,0,0
1463,59.0,6.0,19.0,1645112034.5625,P12,D13,0,0,0
1464,59.0,6.0,19.0,1645112034.59375,P12,D13,0,0,0
1465,59.0,6.0,19.0,1645112034.625,P12,D13,0,0,0
1466,59.0,6.0,19.0,1645112034.65625,P12,D13,0,0,0
1467,59.0,6.0,19.0,1645112034.6875,P12,D13,0,0,0
1468,59.0,6.0,19.0,1645112034.71875,P12,D13,0,0,0
1469,59.0,6.0,19.0,1645112034.75,P12,D13,0,0,0
1470,59.0,6.0,19.0,1645112034.78125,P12,D13,0,0,0
1471,59.0,6.0,19.0,1645112034.8125,P12,D13,0,0,0
1472,59.0,6.0,19.0,1645112034.84375,P12,D13,0,0,0
1473,59.0,6.0,19.0,1645112034.875,P12,D13,0,0,0
1474,59.0,6.0,19.0,1645112034.90625,P12,D13,0,0,0
1475,59.0,6.0,19.0,1645112034.9375,P12,D13,0,0,0
1476,59.0,7.0,19.0,1645112034.96875,P12,D13,0,0,0
1477,59.0,7.0,19.0,1645112035.0,P12,D13,0,0,0
1478,59.0,6.0,19.0,1645112035.03125,P12,D13,0,0,0
1479,59.0,6.0,19.0,1645112035.0625,P12,D13,0,0,0
1480,59.0,6.0,19.0,1645112035.09375,P12,D13,0,0,0
1481,59.0,6.0,19.0,1645112035.125,P12,D13,0,0,0
1482,59.0,6.0,19.0,1645112035.15625,P12,D13,0,0,0
1483,59.0,6.0,19.0,1645112035.1875,P12,D13,0,0,0
1484,59.0,6.0,19.0,1645112035.21875,P12,D13,0,0,0
1485,59.0,6.0,19.0,1645112035.25,P12,D13,0,0,0
1486,59.0,6.0,19.0,1645112035.28125,P12,D13,0,0,0
1487,59.0,6.0,19.0,1645112035.3125,P12,D13,0,0,0
1488,59.0,7.0,19.0,1645112035.34375,P12,D13,0,0,0
1489,59.0,6.0,19.0,1645112035.375,P12,D13,0,0,0
1490,59.0,6.0,19.0,1645112035.40625,P12,D13,0,0,0
1491,59.0,6.0,19.0,1645112035.4375,P12,D13,0,0,0
1492,59.0,7.0,19.0,1645112035.46875,P12,D13,0,0,0
1493,59.0,6.0,19.0,1645112035.5,P12,D13,0,0,0
1494,59.0,6.0,19.0,1645112035.53125,P12,D13,0,0,0
1495,59.0,7.0,19.0,1645112035.5625,P12,D13,0,0,0
1496,59.0,6.0,19.0,1645112035.59375,P12,D13,0,0,0
1497,59.0,6.0,19.0,1645112035.625,P12,D13,0,0,0
1498,59.0,6.0,19.0,1645112035.65625,P12,D13,0,0,0
1499,59.0,6.0,19.0,1645112035.6875,P12,D13,0,0,0
1500,59.0,6.0,19.0,1645112035.71875,P12,D13,0,0,0
1501,59.0,7.0,19.0,1645112035.75,P12,D13,0,0,0
1502,59.0,6.0,19.0,1645112035.78125,P12,D13,0,0,0
1503,59.0,6.0,19.0,1645112035.8125,P12,D13,0,0,0
1504,59.0,7.0,19.0,1645112035.84375,P12,D13,0,0,0
1505,59.0,7.0,19.0,1645112035.875,P12,D13,0,0,0
1506,59.0,6.0,19.0,1645112035.90625,P12,D13,0,0,0
1507,59.0,7.0,19.0,1645112035.9375,P12,D13,0,0,0
1508,59.0,6.0,19.0,1645112035.96875,P12,D13,0,0,0
1509,59.0,6.0,19.0,1645112036.0,P12,D13,0,0,0
1510,59.0,6.0,19.0,1645112036.03125,P12,D13,0,0,0
1511,59.0,6.0,19.0,1645112036.0625,P12,D13,0,0,0
1512,59.0,7.0,19.0,1645112036.09375,P12,D13,0,0,0
1513,59.0,7.0,19.0,1645112036.125,P12,D13,0,0,0
1514,59.0,6.0,19.0,1645112036.15625,P12,D13,0,0,0
1515,59.0,6.0,19.0,1645112036.1875,P12,D13,0,0,0
1516,59.0,6.0,19.0,1645112036.21875,P12,D13,0,0,0
1517,59.0,7.0,19.0,1645112036.25,P12,D13,0,0,0
1518,59.0,6.0,19.0,1645112036.28125,P12,D13,0,0,0
1519,59.0,6.0,19.0,1645112036.3125,P12,D13,0,0,0
1520,59.0,6.0,19.0,1645112036.34375,P12,D13,0,0,0
1521,58.0,6.0,19.0,1645112036.375,P12,D13,0,0,0
1522,59.0,6.0,19.0,1645112036.40625,P12,D13,0,0,0
1523,59.0,6.0,19.0,1645112036.4375,P12,D13,0,0,0
1524,59.0,6.0,19.0,1645112036.46875,P12,D13,0,0,0
1525,59.0,6.0,19.0,1645112036.5,P12,D13,0,0,0
1526,59.0,6.0,19.0,1645112036.53125,P12,D13,0,0,0
1527,59.0,7.0,19.0,1645112036.5625,P12,D13,0,0,0
1528,59.0,6.0,19.0,1645112036.59375,P12,D13,0,0,0
1529,59.0,6.0,19.0,1645112036.625,P12,D13,0,0,0
1530,59.0,6.0,19.0,1645112036.65625,P12,D13,0,0,0
1531,59.0,6.0,19.0,1645112036.6875,P12,D13,0,0,0
1532,59.0,6.0,19.0,1645112036.71875,P12,D13,0,0,0
1533,59.0,6.0,19.0,1645112036.75,P12,D13,0,0,0
1534,59.0,6.0,19.0,1645112036.78125,P12,D13,0,0,0
1535,59.0,6.0,19.0,1645112036.8125,P12,D13,0,0,0
1536,59.0,6.0,19.0,1645112036.84375,P12,D13,0,0,0
1537,59.0,6.0,19.0,1645112036.875,P12,D13,0,0,0
1538,59.0,6.0,19.0,1645112036.90625,P12,D13,0,0,0
1539,59.0,6.0,19.0,1645112036.9375,P12,D13,0,0,0
1540,59.0,6.0,19.0,1645112036.96875,P12,D13,0,0,0
1541,59.0,6.0,18.0,1645112037.0,P12,D13,0,0,0
1542,59.0,6.0,18.0,1645112037.03125,P12,D13,0,0,0
1543,59.0,6.0,19.0,1645112037.0625,P12,D13,0,0,0
1544,59.0,6.0,19.0,1645112037.09375,P12,D13,0,0,0
1545,59.0,6.0,19.0,1645112037.125,P12,D13,0,0,0
1546,59.0,6.0,19.0,1645112037.15625,P12,D13,0,0,0
1547,59.0,6.0,19.0,1645112037.1875,P12,D13,0,0,0
1548,59.0,6.0,19.0,1645112037.21875,P12,D13,0,0,0
1549,59.0,6.0,18.0,1645112037.25,P12,D13,0,0,0
1550,59.0,6.0,19.0,1645112037.28125,P12,D13,0,0,0
1551,59.0,6.0,19.0,1645112037.3125,P12,D13,0,0,0
1552,59.0,6.0,19.0,1645112037.34375,P12,D13,0,0,0
1553,58.0,6.0,19.0,1645112037.375,P12,D13,0,0,0
1554,59.0,6.0,19.0,1645112037.40625,P12,D13,0,0,0
1555,59.0,6.0,19.0,1645112037.4375,P12,D13,0,0,0
1556,59.0,6.0,19.0,1645112037.46875,P12,D13,0,0,0
1557,59.0,6.0,19.0,1645112037.5,P12,D13,0,0,0
1558,59.0,6.0,18.0,1645112037.53125,P12,D13,0,0,0
1559,59.0,6.0,19.0,1645112037.5625,P12,D13,0,0,0
1560,59.0,6.0,19.0,1645112037.59375,P12,D13,0,0,0
1561,59.0,6.0,19.0,1645112037.625,P12,D13,0,0,0
1562,59.0,6.0,19.0,1645112037.65625,P12,D13,0,0,0
1563,59.0,6.0,19.0,1645112037.6875,P12,D13,0,0,0
1564,59.0,6.0,19.0,1645112037.71875,P12,D13,0,0,0
1565,59.0,6.0,18.0,1645112037.75,P12,D13,0,0,0
1566,59.0,6.0,19.0,1645112037.78125,P12,D13,0,0,0
1567,59.0,6.0,19.0,1645112037.8125,P12,D13,0,0,0
1568,59.0,6.0,19.0,1645112037.84375,P12,D13,0,0,0
1569,59.0,6.0,18.0,1645112037.875,P12,D13,0,0,0
1570,59.0,6.0,19.0,1645112037.90625,P12,D13,0,0,0
1571,59.0,6.0,19.0,1645112037.9375,P12,D13,0,0,0
1572,59.0,6.0,19.0,1645112037.96875,P12,D13,0,0,0
1573,59.0,6.0,19.0,1645112038.0,P12,D13,0,0,0
1574,59.0,6.0,19.0,1645112038.03125,P12,D13,0,0,0
1575,59.0,6.0,19.0,1645112038.0625,P12,D13,0,0,0
1576,59.0,6.0,19.0,1645112038.09375,P12,D13,0,0,0
1577,59.0,6.0,19.0,1645112038.125,P12,D13,0,0,0
1578,59.0,6.0,19.0,1645112038.15625,P12,D13,0,0,0
1579,59.0,7.0,18.0,1645112038.1875,P12,D13,0,0,0
1580,59.0,6.0,19.0,1645112038.21875,P12,D13,0,0,0
1581,59.0,6.0,19.0,1645112038.25,P12,D13,0,0,0
1582,59.0,6.0,19.0,1645112038.28125,P12,D13,0,0,0
1583,58.0,6.0,19.0,1645112038.3125,P12,D13,0,0,0
1584,59.0,6.0,19.0,1645112038.34375,P12,D13,0,0,0
1585,59.0,6.0,19.0,1645112038.375,P12,D13,0,0,0
1586,59.0,6.0,19.0,1645112038.40625,P12,D13,0,0,0
1587,59.0,7.0,19.0,1645112038.4375,P12,D13,0,0,0
1588,59.0,6.0,19.0,1645112038.46875,P12,D13,0,0,0
1589,59.0,6.0,19.0,1645112038.5,P12,D13,0,0,0
1590,59.0,6.0,19.0,1645112038.53125,P12,D13,0,0,0
1591,59.0,6.0,19.0,1645112038.5625,P12,D13,0,0,0
1592,59.0,6.0,19.0,1645112038.59375,P12,D13,0,0,0
1593,59.0,6.0,18.0,1645112038.625,P12,D13,0,0,0
1594,59.0,6.0,19.0,1645112038.65625,P12,D13,0,0,0
1595,59.0,7.0,19.0,1645112038.6875,P12,D13,0,0,0
1596,59.0,7.0,19.0,1645112038.71875,P12,D13,0,0,0
1597,59.0,7.0,19.0,1645112038.75,P12,D13,0,0,0
1598,59.0,6.0,19.0,1645112038.78125,P12,D13,0,0,0
1599,59.0,7.0,19.0,1645112038.8125,P12,D13,0,0,0
1600,59.0,6.0,19.0,1645112038.84375,P12,D13,0,0,0
1601,59.0,6.0,19.0,1645112038.875,P12,D13,0,0,0
1602,59.0,7.0,19.0,1645112038.90625,P12,D13,0,0,0
1603,59.0,6.0,19.0,1645112038.9375,P12,D13,0,0,0
1604,59.0,6.0,19.0,1645112038.96875,P12,D13,0,0,0
1605,59.0,6.0,19.0,1645112039.0,P12,D13,0,0,0
1606,59.0,6.0,19.0,1645112039.03125,P12,D13,0,0,0
1607,59.0,7.0,19.0,1645112039.0625,P12,D13,0,0,0
1608,59.0,6.0,19.0,1645112039.09375,P12,D13,0,0,0
1609,59.0,7.0,19.0,1645112039.125,P12,D13,0,0,0
1610,59.0,6.0,19.0,1645112039.15625,P12,D13,0,0,0
1611,59.0,6.0,19.0,1645112039.1875,P12,D13,0,0,0
1612,59.0,7.0,19.0,1645112039.21875,P12,D13,0,0,0
1613,59.0,6.0,19.0,1645112039.25,P12,D13,0,0,0
1614,59.0,6.0,19.0,1645112039.28125,P12,D13,0,0,0
1615,59.0,6.0,18.0,1645112039.3125,P12,D13,0,0,0
1616,58.0,6.0,19.0,1645112039.34375,P12,D13,0,0,0
1617,59.0,6.0,19.0,1645112039.375,P12,D13,0,0,0
1618,59.0,6.0,19.0,1645112039.40625,P12,D13,0,0,0
1619,59.0,7.0,19.0,1645112039.4375,P12,D13,0,0,0
1620,59.0,7.0,19.0,1645112039.46875,P12,D13,0,0,0
1621,59.0,6.0,19.0,1645112039.5,P12,D13,0,0,0
1622,59.0,7.0,19.0,1645112039.53125,P12,D13,0,0,0
1623,59.0,6.0,19.0,1645112039.5625,P12,D13,0,0,0
1624,59.0,6.0,19.0,1645112039.59375,P12,D13,0,0,0
1625,59.0,6.0,19.0,1645112039.625,P12,D13,0,0,0
1626,59.0,7.0,19.0,1645112039.65625,P12,D13,0,0,0
1627,59.0,6.0,19.0,1645112039.6875,P12,D13,0,0,0
1628,59.0,6.0,19.0,1645112039.71875,P12,D13,0,0,0
1629,59.0,7.0,19.0,1645112039.75,P12,D13,0,0,0
1630,59.0,6.0,19.0,1645112039.78125,P12,D13,0,0,0
1631,59.0,6.0,19.0,1645112039.8125,P12,D13,0,0,0
1632,59.0,6.0,19.0,1645112039.84375,P12,D13,0,0,0
1633,59.0,6.0,19.0,1645112039.875,P12,D13,0,0,0
1634,59.0,6.0,19.0,1645112039.90625,P12,D13,0,0,0
1635,59.0,6.0,19.0,1645112039.9375,P12,D13,0,0,0
1636,59.0,6.0,19.0,1645112039.96875,P12,D13,0,0,0
1637,59.0,6.0,19.0,1645112040.0,P12,D13,0,0,0
1638,59.0,7.0,19.0,1645112040.03125,P12,D13,0,0,0
1639,59.0,6.0,19.0,1645112040.0625,P12,D13,0,0,0
1640,59.0,6.0,19.0,1645112040.09375,P12,D13,0,0,0
1641,59.0,6.0,19.0,1645112040.125,P12,D13,0,0,0
1642,59.0,6.0,19.0,1645112040.15625,P12,D13,0,0,0
1643,59.0,6.0,19.0,1645112040.1875,P12,D13,0,0,0
1644,59.0,7.0,19.0,1645112040.21875,P12,D13,0,0,0
1645,59.0,6.0,19.0,1645112040.25,P12,D13,0,0,0
1646,59.0,6.0,19.0,1645112040.28125,P12,D13,0,0,0
1647,59.0,6.0,19.0,1645112040.3125,P12,D13,0,0,0
1648,59.0,6.0,19.0,1645112040.34375,P12,D13,0,0,0
1649,59.0,6.0,19.0,1645112040.375,P12,D13,0,0,0
1650,59.0,6.0,19.0,1645112040.40625,P12,D13,0,0,0
1651,59.0,6.0,19.0,1645112040.4375,P12,D13,0,0,0
1652,59.0,6.0,19.0,1645112040.46875,P12,D13,0,0,0
1653,59.0,6.0,19.0,1645112040.5,P12,D13,0,0,0
1654,59.0,6.0,19.0,1645112040.53125,P12,D13,0,0,0
1655,59.0,6.0,19.0,1645112040.5625,P12,D13,0,0,0
1656,59.0,6.0,19.0,1645112040.59375,P12,D13,0,0,0
1657,59.0,6.0,19.0,1645112040.625,P12,D13,0,0,0
1658,59.0,6.0,19.0,1645112040.65625,P12,D13,0,0,0
1659,59.0,6.0,19.0,1645112040.6875,P12,D13,0,0,0
1660,59.0,6.0,19.0,1645112040.71875,P12,D13,0,0,0
1661,59.0,6.0,19.0,1645112040.75,P12,D13,0,0,0
1662,59.0,6.0,18.0,1645112040.78125,P12,D13,0,0,0
1663,59.0,6.0,19.0,1645112040.8125,P12,D13,0,0,0
1664,59.0,6.0,18.0,1645112040.84375,P12,D13,0,0,0
1665,59.0,6.0,19.0,1645112040.875,P12,D13,0,0,0
1666,59.0,6.0,18.0,1645112040.90625,P12,D13,0,0,0
1667,59.0,6.0,19.0,1645112040.9375,P12,D13,0,0,0
1668,59.0,6.0,19.0,1645112040.96875,P12,D13,0,0,0
1669,59.0,6.0,19.0,1645112041.0,P12,D13,0,0,0
1670,59.0,6.0,19.0,1645112041.03125,P12,D13,0,0,0
1671,59.0,7.0,19.0,1645112041.0625,P12,D13,0,0,0
1672,59.0,6.0,19.0,1645112041.09375,P12,D13,0,0,0
1673,59.0,6.0,19.0,1645112041.125,P12,D13,0,0,0
1674,59.0,6.0,18.0,1645112041.15625,P12,D13,0,0,0
1675,59.0,6.0,19.0,1645112041.1875,P12,D13,0,0,0
1676,59.0,6.0,19.0,1645112041.21875,P12,D13,0,0,0
1677,59.0,6.0,19.0,1645112041.25,P12,D13,0,0,0
1678,59.0,6.0,19.0,1645112041.28125,P12,D13,0,0,0
1679,59.0,7.0,18.0,1645112041.3125,P12,D13,0,0,0
1680,59.0,6.0,19.0,1645112041.34375,P12,D13,0,0,0
1681,59.0,6.0,19.0,1645112041.375,P12,D13,0,0,0
1682,59.0,6.0,19.0,1645112041.40625,P12,D13,0,0,0
1683,59.0,6.0,19.0,1645112041.4375,P12,D13,0,0,0
1684,59.0,6.0,18.0,1645112041.46875,P12,D13,0,0,0
1685,59.0,6.0,19.0,1645112041.5,P12,D13,0,0,0
1686,59.0,6.0,18.0,1645112041.53125,P12,D13,0,0,0
1687,59.0,6.0,19.0,1645112041.5625,P12,D13,0,0,0
1688,59.0,6.0,18.0,1645112041.59375,P12,D13,0,0,0
1689,59.0,6.0,19.0,1645112041.625,P12,D13,0,0,0
1690,59.0,6.0,19.0,1645112041.65625,P12,D13,0,0,0
1691,59.0,6.0,19.0,1645112041.6875,P12,D13,0,0,0
1692,59.0,6.0,19.0,1645112041.71875,P12,D13,0,0,0
1693,59.0,6.0,19.0,1645112041.75,P12,D13,0,0,0
1694,59.0,6.0,19.0,1645112041.78125,P12,D13,0,0,0
1695,59.0,6.0,19.0,1645112041.8125,P12,D13,0,0,0
1696,59.0,6.0,19.0,1645112041.84375,P12,D13,0,0,0
1697,59.0,6.0,18.0,1645112041.875,P12,D13,0,0,0
1698,59.0,6.0,19.0,1645112041.90625,P12,D13,0,0,0
1699,59.0,6.0,19.0,1645112041.9375,P12,D13,0,0,0
1700,59.0,6.0,19.0,1645112041.96875,P12,D13,0,0,0
1701,59.0,6.0,19.0,1645112042.0,P12,D13,0,0,0
1702,59.0,6.0,19.0,1645112042.03125,P12,D13,0,0,0
1703,59.0,6.0,19.0,1645112042.0625,P12,D13,0,0,0
1704,59.0,6.0,19.0,1645112042.09375,P12,D13,0,0,0
1705,59.0,6.0,19.0,1645112042.125,P12,D13,0,0,0
1706,59.0,6.0,19.0,1645112042.15625,P12,D13,0,0,0
1707,59.0,6.0,19.0,1645112042.1875,P12,D13,0,0,0
1708,59.0,6.0,19.0,1645112042.21875,P12,D13,0,0,0
1709,59.0,6.0,19.0,1645112042.25,P12,D13,0,0,0
1710,59.0,6.0,19.0,1645112042.28125,P12,D13,0,0,0
1711,59.0,6.0,19.0,1645112042.3125,P12,D13,0,0,0
1712,59.0,6.0,19.0,1645112042.34375,P12,D13,0,0,0
1713,59.0,6.0,19.0,1645112042.375,P12,D13,0,0,0
1714,58.0,6.0,19.0,1645112042.40625,P12,D13,0,0,0
1715,59.0,6.0,19.0,1645112042.4375,P12,D13,0,0,0
1716,59.0,6.0,19.0,1645112042.46875,P12,D13,0,0,0
1717,59.0,6.0,19.0,1645112042.5,P12,D13,0,0,0
1718,59.0,6.0,19.0,1645112042.53125,P12,D13,0,0,0
1719,59.0,6.0,19.0,1645112042.5625,P12,D13,0,0,0
1720,59.0,6.0,19.0,1645112042.59375,P12,D13,0,0,0
1721,59.0,6.0,19.0,1645112042.625,P12,D13,0,0,0
1722,59.0,6.0,19.0,1645112042.65625,P12,D13,0,0,0
1723,59.0,6.0,19.0,1645112042.6875,P12,D13,0,0,0
1724,59.0,6.0,19.0,1645112042.71875,P12,D13,0,0,0
1725,59.0,6.0,19.0,1645112042.75,P12,D13,0,0,0
1726,59.0,6.0,19.0,1645112042.78125,P12,D13,0,0,0
1727,59.0,6.0,19.0,1645112042.8125,P12,D13,0,0,0
1728,59.0,7.0,19.0,1645112042.84375,P12,D13,0,0,0
1729,59.0,7.0,19.0,1645112042.875,P12,D13,0,0,0
1730,59.0,6.0,19.0,1645112042.90625,P12,D13,0,0,0
1731,59.0,6.0,19.0,1645112042.9375,P12,D13,0,0,0
1732,59.0,6.0,19.0,1645112042.96875,P12,D13,0,0,0
1733,59.0,6.0,19.0,1645112043.0,P12,D13,0,0,0
1734,59.0,7.0,19.0,1645112043.03125,P12,D13,0,0,0
1735,59.0,6.0,19.0,1645112043.0625,P12,D13,0,0,0
1736,59.0,6.0,19.0,1645112043.09375,P12,D13,0,0,0
1737,59.0,6.0,19.0,1645112043.125,P12,D13,0,0,0
1738,59.0,6.0,19.0,1645112043.15625,P12,D13,0,0,0
1739,59.0,6.0,19.0,1645112043.1875,P12,D13,0,0,0
1740,59.0,7.0,19.0,1645112043.21875,P12,D13,0,0,0
1741,59.0,6.0,19.0,1645112043.25,P12,D13,0,0,0
1742,59.0,7.0,19.0,1645112043.28125,P12,D13,0,0,0
1743,59.0,6.0,19.0,1645112043.3125,P12,D13,0,0,0
1744,59.0,6.0,19.0,1645112043.34375,P12,D13,0,0,0
1745,59.0,6.0,19.0,1645112043.375,P12,D13,0,0,0
1746,59.0,6.0,19.0,1645112043.40625,P12,D13,0,0,0
1747,58.0,6.0,19.0,1645112043.4375,P12,D13,0,0,0
1748,59.0,7.0,19.0,1645112043.46875,P12,D13,0,0,0
1749,59.0,6.0,19.0,1645112043.5,P12,D13,0,0,0
1750,59.0,7.0,19.0,1645112043.53125,P12,D13,0,0,0
1751,59.0,6.0,19.0,1645112043.5625,P12,D13,0,0,0
1752,59.0,6.0,19.0,1645112043.59375,P12,D13,0,0,0
1753,59.0,7.0,19.0,1645112043.625,P12,D13,0,0,0
1754,59.0,6.0,19.0,1645112043.65625,P12,D13,0,0,0
1755,59.0,6.0,19.0,1645112043.6875,P12,D13,0,0,0
1756,59.0,6.0,19.0,1645112043.71875,P12,D13,0,0,0
1757,59.0,6.0,19.0,1645112043.75,P12,D13,0,0,0
1758,59.0,6.0,19.0,1645112043.78125,P12,D13,0,0,0
1759,59.0,6.0,19.0,1645112043.8125,P12,D13,0,0,0
1760,59.0,6.0,19.0,1645112043.84375,P12,D13,0,0,0
1761,59.0,6.0,19.0,1645112043.875,P12,D13,0,0,0
1762,59.0,6.0,19.0,1645112043.90625,P12,D13,0,0,0
1763,59.0,6.0,19.0,1645112043.9375,P12,D13,0,0,0
1764,59.0,7.0,19.0,1645112043.96875,P12,D13,0,0,0
1765,59.0,6.0,19.0,1645112044.0,P12,D13,0,0,0
1766,59.0,6.0,19.0,1645112044.03125,P12,D13,0,0,0
1767,59.0,6.0,19.0,1645112044.0625,P12,D13,0,0,0
1768,59.0,6.0,19.0,1645112044.09375,P12,D13,0,0,0
1769,59.0,6.0,19.0,1645112044.125,P12,D13,0,0,0
1770,59.0,6.0,19.0,1645112044.15625,P12,D13,0,0,0
1771,59.0,6.0,19.0,1645112044.1875,P12,D13,0,0,0
1772,59.0,6.0,19.0,1645112044.21875,P12,D13,0,0,0
1773,59.0,6.0,19.0,1645112044.25,P12,D13,0,0,0
1774,59.0,6.0,19.0,1645112044.28125,P12,D13,0,0,0
1775,59.0,6.0,19.0,1645112044.3125,P12,D13,0,0,0
1776,59.0,6.0,19.0,1645112044.34375,P12,D13,0,0,0
1777,59.0,6.0,19.0,1645112044.375,P12,D13,0,0,0
1778,59.0,6.0,19.0,1645112044.40625,P12,D13,0,0,0
1779,59.0,6.0,18.0,1645112044.4375,P12,D13,0,0,0
1780,59.0,6.0,19.0,1645112044.46875,P12,D13,0,0,0
1781,59.0,6.0,19.0,1645112044.5,P12,D13,0,0,0
1782,59.0,6.0,19.0,1645112044.53125,P12,D13,0,0,0
1783,59.0,6.0,19.0,1645112044.5625,P12,D13,0,0,0
1784,59.0,6.0,19.0,1645112044.59375,P12,D13,0,0,0
1785,59.0,6.0,19.0,1645112044.625,P12,D13,0,0,0
1786,59.0,6.0,19.0,1645112044.65625,P12,D13,0,0,0
1787,59.0,6.0,19.0,1645112044.6875,P12,D13,0,0,0
1788,59.0,6.0,19.0,1645112044.71875,P12,D13,0,0,0
1789,59.0,6.0,18.0,1645112044.75,P12,D13,0,0,0
1790,59.0,6.0,19.0,1645112044.78125,P12,D13,0,0,0
1791,59.0,6.0,19.0,1645112044.8125,P12,D13,0,0,0
1792,59.0,6.0,18.0,1645112044.84375,P12,D13,0,0,0
1793,59.0,6.0,19.0,1645112044.875,P12,D13,0,0,0
1794,59.0,6.0,18.0,1645112044.90625,P12,D13,0,0,0
1795,59.0,6.0,19.0,1645112044.9375,P12,D13,0,0,0
1796,59.0,6.0,19.0,1645112044.96875,P12,D13,0,0,0
1797,59.0,6.0,19.0,1645112045.0,P12,D13,0,0,0
1798,59.0,6.0,19.0,1645112045.03125,P12,D13,0,0,0
1799,59.0,6.0,19.0,1645112045.0625,P12,D13,0,0,0
1800,59.0,6.0,19.0,1645112045.09375,P12,D13,0,0,0
1801,59.0,6.0,19.0,1645112045.125,P12,D13,0,0,0
1802,59.0,6.0,18.0,1645112045.15625,P12,D13,0,0,0
1803,59.0,6.0,19.0,1645112045.1875,P12,D13,0,0,0
1804,59.0,6.0,18.0,1645112045.21875,P12,D13,0,0,0
1805,59.0,6.0,19.0,1645112045.25,P12,D13,0,0,0
1806,59.0,6.0,19.0,1645112045.28125,P12,D13,0,0,0
1807,59.0,6.0,19.0,1645112045.3125,P12,D13,0,0,0
1808,59.0,6.0,19.0,1645112045.34375,P12,D13,0,0,0
1809,59.0,6.0,19.0,1645112045.375,P12,D13,0,0,0
1810,59.0,6.0,19.0,1645112045.40625,P12,D13,0,0,0
1811,58.0,6.0,18.0,1645112045.4375,P12,D13,0,0,0
1812,59.0,6.0,19.0,1645112045.46875,P12,D13,0,0,0
1813,59.0,6.0,19.0,1645112045.5,P12,D13,0,0,0
1814,59.0,7.0,19.0,1645112045.53125,P12,D13,0,0,0
1815,59.0,6.0,19.0,1645112045.5625,P12,D13,0,0,0
1816,59.0,6.0,19.0,1645112045.59375,P12,D13,0,0,0
1817,59.0,7.0,19.0,1645112045.625,P12,D13,0,0,0
1818,59.0,6.0,19.0,1645112045.65625,P12,D13,0,0,0
1819,59.0,6.0,19.0,1645112045.6875,P12,D13,0,0,0
1820,59.0,6.0,18.0,1645112045.71875,P12,D13,0,0,0
1821,59.0,6.0,19.0,1645112045.75,P12,D13,0,0,0
1822,59.0,6.0,19.0,1645112045.78125,P12,D13,0,0,0
1823,59.0,6.0,19.0,1645112045.8125,P12,D13,0,0,0
1824,59.0,6.0,19.0,1645112045.84375,P12,D13,0,0,0
1825,59.0,6.0,19.0,1645112045.875,P12,D13,0,0,0
1826,59.0,6.0,19.0,1645112045.90625,P12,D13,0,0,0
1827,59.0,7.0,19.0,1645112045.9375,P12,D13,0,0,0
1828,59.0,6.0,19.0,1645112045.96875,P12,D13,0,0,0
1829,59.0,6.0,19.0,1645112046.0,P12,D13,0,0,0
1830,59.0,6.0,19.0,1645112046.03125,P12,D13,0,0,0
1831,59.0,6.0,19.0,1645112046.0625,P12,D13,0,0,0
1832,59.0,6.0,19.0,1645112046.09375,P12,D13,0,0,0
1833,59.0,6.0,19.0,1645112046.125,P12,D13,0,0,0
1834,59.0,6.0,18.0,1645112046.15625,P12,D13,0,0,0
1835,59.0,6.0,19.0,1645112046.1875,P12,D13,0,0,0
1836,59.0,7.0,19.0,1645112046.21875,P12,D13,0,0,0
1837,59.0,7.0,19.0,1645112046.25,P12,D13,0,0,0
1838,59.0,6.0,19.0,1645112046.28125,P12,D13,0,0,0
1839,59.0,6.0,19.0,1645112046.3125,P12,D13,0,0,0
1840,59.0,6.0,19.0,1645112046.34375,P12,D13,0,0,0
1841,59.0,6.0,19.0,1645112046.375,P12,D13,0,0,0
1842,59.0,6.0,19.0,1645112046.40625,P12,D13,0,0,0
1843,59.0,6.0,18.0,1645112046.4375,P12,D13,0,0,0
1844,59.0,6.0,19.0,1645112046.46875,P12,D13,0,0,0
1845,59.0,6.0,19.0,1645112046.5,P12,D13,0,0,0
1846,59.0,6.0,19.0,1645112046.53125,P12,D13,0,0,0
1847,59.0,7.0,19.0,1645112046.5625,P12,D13,0,0,0
1848,59.0,6.0,19.0,1645112046.59375,P12,D13,0,0,0
1849,59.0,6.0,19.0,1645112046.625,P12,D13,0,0,0
1850,59.0,6.0,19.0,1645112046.65625,P12,D13,0,0,0
1851,59.0,6.0,19.0,1645112046.6875,P12,D13,0,0,0
1852,59.0,6.0,19.0,1645112046.71875,P12,D13,0,0,0
1853,59.0,6.0,19.0,1645112046.75,P12,D13,0,0,0
1854,59.0,7.0,19.0,1645112046.78125,P12,D13,0,0,0
1855,59.0,6.0,19.0,1645112046.8125,P12,D13,0,0,0
1856,59.0,7.0,19.0,1645112046.84375,P12,D13,0,0,0
1857,59.0,7.0,19.0,1645112046.875,P12,D13,0,0,0
1858,59.0,6.0,19.0,1645112046.90625,P12,D13,0,0,0
1859,59.0,6.0,19.0,1645112046.9375,P12,D13,0,0,0
1860,59.0,6.0,19.0,1645112046.96875,P12,D13,0,0,0
1861,59.0,6.0,19.0,1645112047.0,P12,D13,0,0,0
1862,59.0,7.0,19.0,1645112047.03125,P12,D13,0,0,0
1863,59.0,6.0,19.0,1645112047.0625,P12,D13,0,0,0
1864,59.0,6.0,19.0,1645112047.09375,P12,D13,0,0,0
1865,59.0,6.0,19.0,1645112047.125,P12,D13,0,0,0
1866,59.0,6.0,19.0,1645112047.15625,P12,D13,0,0,0
1867,59.0,6.0,19.0,1645112047.1875,P12,D13,0,0,0
1868,59.0,7.0,18.0,1645112047.21875,P12,D13,0,0,0
1869,59.0,6.0,19.0,1645112047.25,P12,D13,0,0,0
1870,59.0,6.0,19.0,1645112047.28125,P12,D13,0,0,0
1871,59.0,6.0,19.0,1645112047.3125,P12,D13,0,0,0
1872,59.0,7.0,19.0,1645112047.34375,P12,D13,0,0,0
1873,58.0,6.0,19.0,1645112047.375,P12,D13,0,0,0
1874,59.0,6.0,19.0,1645112047.40625,P12,D13,0,0,0
1875,59.0,7.0,19.0,1645112047.4375,P12,D13,0,0,0
1876,59.0,6.0,19.0,1645112047.46875,P12,D13,0,0,0
1877,59.0,6.0,19.0,1645112047.5,P12,D13,0,0,0
1878,59.0,6.0,19.0,1645112047.53125,P12,D13,0,0,0
1879,59.0,7.0,19.0,1645112047.5625,P12,D13,0,0,0
1880,59.0,6.0,19.0,1645112047.59375,P12,D13,0,0,0
1881,59.0,6.0,19.0,1645112047.625,P12,D13,0,0,0
1882,59.0,6.0,19.0,1645112047.65625,P12,D13,0,0,0
1883,59.0,6.0,19.0,1645112047.6875,P12,D13,0,0,0
1884,59.0,6.0,19.0,1645112047.71875,P12,D13,0,0,0
1885,59.0,6.0,19.0,1645112047.75,P12,D13,0,0,0
1886,59.0,6.0,19.0,1645112047.78125,P12,D13,0,0,0
1887,59.0,6.0,19.0,1645112047.8125,P12,D13,0,0,0
1888,59.0,6.0,19.0,1645112047.84375,P12,D13,0,0,0
1889,59.0,6.0,19.0,1645112047.875,P12,D13,0,0,0
1890,59.0,7.0,19.0,1645112047.90625,P12,D13,0,0,0
1891,59.0,7.0,19.0,1645112047.9375,P12,D13,0,0,0
1892,59.0,6.0,19.0,1645112047.96875,P12,D13,0,0,0
1893,59.0,6.0,19.0,1645112048.0,P12,D13,0,0,0
1894,59.0,7.0,19.0,1645112048.03125,P12,D13,0,0,0
1895,59.0,6.0,19.0,1645112048.0625,P12,D13,0,0,0
1896,59.0,6.0,19.0,1645112048.09375,P12,D13,0,0,0
1897,59.0,6.0,19.0,1645112048.125,P12,D13,0,0,0
1898,59.0,6.0,19.0,1645112048.15625,P12,D13,0,0,0
1899,59.0,6.0,19.0,1645112048.1875,P12,D13,0,0,0
1900,59.0,7.0,19.0,1645112048.21875,P12,D13,0,0,0
1901,59.0,6.0,19.0,1645112048.25,P12,D13,0,0,0
1902,59.0,6.0,19.0,1645112048.28125,P12,D13,0,0,0
1903,59.0,7.0,19.0,1645112048.3125,P12,D13,0,0,0
1904,59.0,7.0,19.0,1645112048.34375,P12,D13,0,0,0
1905,59.0,6.0,19.0,1645112048.375,P12,D13,0,0,0
1906,59.0,6.0,19.0,1645112048.40625,P12,D13,0,0,0
1907,58.0,7.0,19.0,1645112048.4375,P12,D13,0,0,0
1908,59.0,6.0,19.0,1645112048.46875,P12,D13,0,0,0
1909,59.0,6.0,19.0,1645112048.5,P12,D13,0,0,0
1910,59.0,7.0,19.0,1645112048.53125,P12,D13,0,0,0
1911,59.0,6.0,19.0,1645112048.5625,P12,D13,0,0,0
1912,59.0,6.0,19.0,1645112048.59375,P12,D13,0,0,0
1913,59.0,6.0,19.0,1645112048.625,P12,D13,0,0,0
1914,59.0,7.0,19.0,1645112048.65625,P12,D13,0,0,0
1915,59.0,6.0,19.0,1645112048.6875,P12,D13,0,0,0
1916,59.0,6.0,19.0,1645112048.71875,P12,D13,0,0,0
1917,59.0,6.0,19.0,1645112048.75,P12,D13,0,0,0
1918,59.0,6.0,19.0,1645112048.78125,P12,D13,0,0,0
1919,59.0,6.0,18.0,1645112048.8125,P12,D13,0,0,0
1920,59.0,6.0,19.0,1645112048.84375,P12,D13,0,0,0
1921,59.0,6.0,18.0,1645112048.875,P12,D13,0,0,0
1922,59.0,6.0,19.0,1645112048.90625,P12,D13,0,0,0
1923,59.0,6.0,19.0,1645112048.9375,P12,D13,0,0,0
1924,59.0,6.0,19.0,1645112048.96875,P12,D13,0,0,0
1925,59.0,6.0,19.0,1645112049.0,P12,D13,0,0,0
1926,59.0,6.0,19.0,1645112049.03125,P12,D13,0,0,0
1927,59.0,6.0,19.0,1645112049.0625,P12,D13,0,0,0
1928,59.0,6.0,19.0,1645112049.09375,P12,D13,0,0,0
1929,59.0,6.0,19.0,1645112049.125,P12,D13,0,0,0
1930,59.0,6.0,18.0,1645112049.15625,P12,D13,0,0,0
1931,59.0,6.0,19.0,1645112049.1875,P12,D13,0,0,0
1932,59.0,6.0,19.0,1645112049.21875,P12,D13,0,0,0
1933,59.0,6.0,18.0,1645112049.25,P12,D13,0,0,0
1934,59.0,6.0,19.0,1645112049.28125,P12,D13,0,0,0
1935,59.0,6.0,19.0,1645112049.3125,P12,D13,0,0,0
1936,59.0,6.0,19.0,1645112049.34375,P12,D13,0,0,0
1937,59.0,7.0,19.0,1645112049.375,P12,D13,0,0,0
1938,59.0,6.0,19.0,1645112049.40625,P12,D13,0,0,0
1939,59.0,6.0,19.0,1645112049.4375,P12,D13,0,0,0
1940,59.0,6.0,19.0,1645112049.46875,P12,D13,0,0,0
1941,59.0,6.0,19.0,1645112049.5,P12,D13,0,0,0
1942,59.0,6.0,18.0,1645112049.53125,P12,D13,0,0,0
1943,59.0,6.0,18.0,1645112049.5625,P12,D13,0,0,0
1944,59.0,6.0,19.0,1645112049.59375,P12,D13,0,0,0
1945,59.0,6.0,18.0,1645112049.625,P12,D13,0,0,0
1946,59.0,6.0,19.0,1645112049.65625,P12,D13,0,0,0
1947,59.0,6.0,19.0,1645112049.6875,P12,D13,0,0,0
1948,59.0,6.0,18.0,1645112049.71875,P12,D13,0,0,0
1949,59.0,6.0,19.0,1645112049.75,P12,D13,0,0,0
1950,59.0,6.0,18.0,1645112049.78125,P12,D13,0,0,0
1951,59.0,6.0,19.0,1645112049.8125,P12,D13,0,0,0
1952,59.0,6.0,19.0,1645112049.84375,P12,D13,0,0,0
1953,59.0,6.0,18.0,1645112049.875,P12,D13,0,0,0
1954,59.0,6.0,19.0,1645112049.90625,P12,D13,0,0,0
1955,59.0,6.0,19.0,1645112049.9375,P12,D13,0,0,0
1956,59.0,6.0,19.0,1645112049.96875,P12,D13,0,0,0
1957,59.0,6.0,19.0,1645112050.0,P12,D13,0,0,0
1958,59.0,6.0,19.0,1645112050.03125,P12,D13,0,0,0
1959,59.0,6.0,19.0,1645112050.0625,P12,D13,0,0,0
1960,59.0,6.0,19.0,1645112050.09375,P12,D13,0,0,0
1961,59.0,6.0,19.0,1645112050.125,P12,D13,0,0,0
1962,59.0,6.0,19.0,1645112050.15625,P12,D13,0,0,0
1963,59.0,6.0,19.0,1645112050.1875,P12,D13,0,0,0
1964,59.0,6.0,18.0,1645112050.21875,P12,D13,0,0,0
1965,59.0,6.0,19.0,1645112050.25,P12,D13,0,0,0
1966,59.0,6.0,19.0,1645112050.28125,P12,D13,0,0,0
1967,59.0,6.0,19.0,1645112050.3125,P12,D13,0,0,0
1968,59.0,6.0,19.0,1645112050.34375,P12,D13,0,0,0
1969,59.0,6.0,19.0,1645112050.375,P12,D13,0,0,0
1970,59.0,6.0,19.0,1645112050.40625,P12,D13,0,0,0
1971,59.0,6.0,19.0,1645112050.4375,P12,D13,0,0,0
1972,59.0,6.0,19.0,1645112050.46875,P12,D13,0,0,0
1973,59.0,6.0,19.0,1645112050.5,P12,D13,0,0,0
1974,59.0,6.0,19.0,1645112050.53125,P12,D13,0,0,0
1975,59.0,6.0,19.0,1645112050.5625,P12,D13,0,0,0
1976,59.0,6.0,19.0,1645112050.59375,P12,D13,0,0,0
1977,59.0,6.0,19.0,1645112050.625,P12,D13,0,0,0
1978,59.0,6.0,19.0,1645112050.65625,P12,D13,0,0,0
1979,59.0,6.0,19.0,1645112050.6875,P12,D13,0,0,0
1980,59.0,6.0,19.0,1645112050.71875,P12,D13,0,0,0
1981,59.0,6.0,19.0,1645112050.75,P12,D13,0,0,0
1982,59.0,6.0,19.0,1645112050.78125,P12,D13,0,0,0
1983,59.0,6.0,19.0,1645112050.8125,P12,D13,0,0,0
1984,59.0,6.0,19.0,1645112050.84375,P12,D13,0,0,0
1985,59.0,6.0,19.0,1645112050.875,P12,D13,0,0,0
1986,59.0,6.0,19.0,1645112050.90625,P12,D13,0,0,0
1987,59.0,6.0,19.0,1645112050.9375,P12,D13,0,0,0
1988,59.0,6.0,19.0,1645112050.96875,P12,D13,0,0,0
1989,59.0,6.0,19.0,1645112051.0,P12,D13,0,0,0
1990,59.0,6.0,19.0,1645112051.03125,P12,D13,0,0,0
1991,59.0,6.0,19.0,1645112051.0625,P12,D13,0,0,0
1992,59.0,7.0,19.0,1645112051.09375,P12,D13,0,0,0
1993,59.0,7.0,19.0,1645112051.125,P12,D13,0,0,0
1994,59.0,6.0,19.0,1645112051.15625,P12,D13,0,0,0
1995,59.0,6.0,19.0,1645112051.1875,P12,D13,0,0,0
1996,59.0,6.0,19.0,1645112051.21875,P12,D13,0,0,0
1997,59.0,6.0,19.0,1645112051.25,P12,D13,0,0,0
1998,59.0,6.0,19.0,1645112051.28125,P12,D13,0,0,0
1999,59.0,7.0,19.0,1645112051.3125,P12,D13,0,0,0
2000,59.0,6.0,18.0,1645112051.34375,P12,D13,0,0,0
2001,59.0,6.0,19.0,1645112051.375,P12,D13,0,0,0
2002,59.0,6.0,19.0,1645112051.40625,P12,D13,0,0,0
2003,59.0,6.0,19.0,1645112051.4375,P12,D13,0,0,0
2004,59.0,6.0,18.0,1645112051.46875,P12,D13,0,0,0
2005,59.0,6.0,19.0,1645112051.5,P12,D13,0,0,0
2006,59.0,6.0,19.0,1645112051.53125,P12,D13,0,0,0
2007,59.0,6.0,19.0,1645112051.5625,P12,D13,0,0,0
2008,59.0,7.0,19.0,1645112051.59375,P12,D13,0,0,0
2009,59.0,6.0,19.0,1645112051.625,P12,D13,0,0,0
2010,59.0,6.0,19.0,1645112051.65625,P12,D13,0,0,0
2011,59.0,6.0,19.0,1645112051.6875,P12,D13,0,0,0
2012,59.0,6.0,19.0,1645112051.71875,P12,D13,0,0,0
2013,59.0,6.0,19.0,1645112051.75,P12,D13,0,0,0
2014,59.0,6.0,19.0,1645112051.78125,P12,D13,0,0,0
2015,59.0,6.0,19.0,1645112051.8125,P12,D13,0,0,0
2016,59.0,6.0,19.0,1645112051.84375,P12,D13,0,0,0
2017,59.0,6.0,19.0,1645112051.875,P12,D13,0,0,0
2018,59.0,6.0,19.0,1645112051.90625,P12,D13,0,0,0
2019,59.0,7.0,19.0,1645112051.9375,P12,D13,0,0,0
2020,59.0,7.0,19.0,1645112051.96875,P12,D13,0,0,0
2021,59.0,6.0,19.0,1645112052.0,P12,D13,0,0,0
2022,59.0,6.0,19.0,1645112052.03125,P12,D13,0,0,0
2023,59.0,6.0,19.0,1645112052.0625,P12,D13,0,0,0
2024,59.0,6.0,19.0,1645112052.09375,P12,D13,0,0,0
2025,59.0,6.0,19.0,1645112052.125,P12,D13,0,0,0
2026,59.0,6.0,19.0,1645112052.15625,P12,D13,0,0,0
2027,59.0,6.0,19.0,1645112052.1875,P12,D13,0,0,0
2028,59.0,6.0,19.0,1645112052.21875,P12,D13,0,0,0
2029,59.0,6.0,19.0,1645112052.25,P12,D13,0,0,0
2030,59.0,7.0,19.0,1645112052.28125,P12,D13,0,0,0
2031,59.0,6.0,19.0,1645112052.3125,P12,D13,0,0,0
2032,59.0,7.0,19.0,1645112052.34375,P12,D13,0,0,0
2033,59.0,6.0,19.0,1645112052.375,P12,D13,0,0,0
2034,59.0,6.0,19.0,1645112052.40625,P12,D13,0,0,0
2035,59.0,6.0,19.0,1645112052.4375,P12,D13,0,0,0
2036,59.0,7.0,19.0,1645112052.46875,P12,D13,0,0,0
2037,59.0,6.0,19.0,1645112052.5,P12,D13,0,0,0
2038,59.0,6.0,19.0,1645112052.53125,P12,D13,0,0,0
2039,59.0,7.0,19.0,1645112052.5625,P12,D13,0,0,0
2040,59.0,6.0,19.0,1645112052.59375,P12,D13,0,0,0
2041,59.0,6.0,19.0,1645112052.625,P12,D13,0,0,0
2042,59.0,7.0,19.0,1645112052.65625,P12,D13,0,0,0
2043,59.0,6.0,19.0,1645112052.6875,P12,D13,0,0,0
2044,59.0,6.0,19.0,1645112052.71875,P12,D13,0,0,0
2045,59.0,7.0,19.0,1645112052.75,P12,D13,0,0,0
2046,59.0,6.0,19.0,1645112052.78125,P12,D13,0,0,0
2047,59.0,7.0,19.0,1645112052.8125,P12,D13,0,0,0
2048,59.0,7.0,19.0,1645112052.84375,P12,D13,0,0,0
2049,59.0,7.0,19.0,1645112052.875,P12,D13,0,0,0
2050,59.0,7.0,19.0,1645112052.90625,P12,D13,0,0,0
2051,59.0,6.0,19.0,1645112052.9375,P12,D13,0,0,0
2052,59.0,6.0,19.0,1645112052.96875,P12,D13,0,0,0
2053,59.0,6.0,19.0,1645112053.0,P12,D13,0,0,0
2054,59.0,6.0,19.0,1645112053.03125,P12,D13,0,0,0
2055,59.0,7.0,19.0,1645112053.0625,P12,D13,0,0,0
2056,59.0,6.0,19.0,1645112053.09375,P12,D13,0,0,0
2057,59.0,6.0,19.0,1645112053.125,P12,D13,0,0,0
2058,59.0,6.0,19.0,1645112053.15625,P12,D13,0,0,0
2059,59.0,6.0,19.0,1645112053.1875,P12,D13,0,0,0
2060,59.0,6.0,19.0,1645112053.21875,P12,D13,0,0,0
2061,59.0,7.0,19.0,1645112053.25,P12,D13,0,0,0
2062,59.0,6.0,19.0,1645112053.28125,P12,D13,0,0,0
2063,59.0,6.0,19.0,1645112053.3125,P12,D13,0,0,0
2064,59.0,6.0,19.0,1645112053.34375,P12,D13,0,0,0
2065,59.0,6.0,19.0,1645112053.375,P12,D13,0,0,0
2066,59.0,7.0,19.0,1645112053.40625,P12,D13,0,0,0
2067,59.0,6.0,19.0,1645112053.4375,P12,D13,0,0,0
2068,59.0,6.0,19.0,1645112053.46875,P12,D13,0,0,0
2069,59.0,6.0,19.0,1645112053.5,P12,D13,0,0,0
2070,59.0,6.0,19.0,1645112053.53125,P12,D13,0,0,0
2071,59.0,6.0,19.0,1645112053.5625,P12,D13,0,0,0
2072,59.0,6.0,18.0,1645112053.59375,P12,D13,0,0,0
2073,59.0,6.0,19.0,1645112053.625,P12,D13,0,0,0
2074,59.0,6.0,19.0,1645112053.65625,P12,D13,0,0,0
2075,59.0,6.0,19.0,1645112053.6875,P12,D13,0,0,0
2076,59.0,6.0,19.0,1645112053.71875,P12,D13,0,0,0
2077,59.0,6.0,18.0,1645112053.75,P12,D13,0,0,0
2078,59.0,6.0,18.0,1645112053.78125,P12,D13,0,0,0
2079,59.0,6.0,19.0,1645112053.8125,P12,D13,0,0,0
2080,59.0,6.0,18.0,1645112053.84375,P12,D13,0,0,0
2081,59.0,6.0,19.0,1645112053.875,P12,D13,0,0,0
2082,59.0,6.0,19.0,1645112053.90625,P12,D13,0,0,0
2083,59.0,6.0,18.0,1645112053.9375,P12,D13,0,0,0
2084,59.0,6.0,19.0,1645112053.96875,P12,D13,0,0,0
2085,59.0,6.0,19.0,1645112054.0,P12,D13,0,0,0
2086,59.0,6.0,19.0,1645112054.03125,P12,D13,0,0,0
2087,59.0,6.0,18.0,1645112054.0625,P12,D13,0,0,0
2088,59.0,6.0,19.0,1645112054.09375,P12,D13,0,0,0
2089,59.0,6.0,18.0,1645112054.125,P12,D13,0,0,0
2090,59.0,6.0,19.0,1645112054.15625,P12,D13,0,0,0
2091,59.0,6.0,18.0,1645112054.1875,P12,D13,0,0,0
2092,59.0,6.0,19.0,1645112054.21875,P12,D13,0,0,0
2093,59.0,6.0,19.0,1645112054.25,P12,D13,0,0,0
2094,59.0,6.0,19.0,1645112054.28125,P12,D13,0,0,0
2095,59.0,6.0,19.0,1645112054.3125,P12,D13,0,0,0
2096,59.0,6.0,18.0,1645112054.34375,P12,D13,0,0,0
2097,59.0,6.0,18.0,1645112054.375,P12,D13,0,0,0
2098,59.0,6.0,18.0,1645112054.40625,P12,D13,0,0,0
2099,59.0,6.0,18.0,1645112054.4375,P12,D13,0,0,0
2100,59.0,6.0,18.0,1645112054.46875,P12,D13,0,0,0
2101,59.0,6.0,19.0,1645112054.5,P12,D13,0,0,0
2102,59.0,6.0,18.0,1645112054.53125,P12,D13,0,0,0
2103,59.0,6.0,19.0,1645112054.5625,P12,D13,0,0,0
2104,59.0,6.0,19.0,1645112054.59375,P12,D13,0,0,0
2105,59.0,6.0,19.0,1645112054.625,P12,D13,0,0,0
2106,59.0,6.0,19.0,1645112054.65625,P12,D13,0,0,0
2107,59.0,6.0,19.0,1645112054.6875,P12,D13,0,0,0
2108,59.0,6.0,18.0,1645112054.71875,P12,D13,0,0,0
2109,59.0,6.0,19.0,1645112054.75,P12,D13,0,0,0
2110,59.0,6.0,19.0,1645112054.78125,P12,D13,0,0,0
2111,59.0,6.0,19.0,1645112054.8125,P12,D13,0,0,0
2112,59.0,6.0,19.0,1645112054.84375,P12,D13,0,0,0
2113,59.0,6.0,19.0,1645112054.875,P12,D13,0,0,0
2114,59.0,6.0,18.0,1645112054.90625,P12,D13,0,0,0
2115,59.0,7.0,19.0,1645112054.9375,P12,D13,0,0,0
2116,59.0,6.0,19.0,1645112054.96875,P12,D13,0,0,0
2117,59.0,6.0,19.0,1645112055.0,P12,D13,0,0,0
2118,59.0,6.0,19.0,1645112055.03125,P12,D13,0,0,0
2119,59.0,6.0,19.0,1645112055.0625,P12,D13,0,0,0
2120,59.0,6.0,18.0,1645112055.09375,P12,D13,0,0,0
2121,59.0,6.0,19.0,1645112055.125,P12,D13,0,0,0
2122,59.0,6.0,18.0,1645112055.15625,P12,D13,0,0,0
2123,59.0,6.0,19.0,1645112055.1875,P12,D13,0,0,0
2124,59.0,6.0,19.0,1645112055.21875,P12,D13,0,0,0
2125,59.0,6.0,19.0,1645112055.25,P12,D13,0,0,0
2126,59.0,6.0,19.0,1645112055.28125,P12,D13,0,0,0
2127,59.0,6.0,19.0,1645112055.3125,P12,D13,0,0,0
2128,59.0,6.0,19.0,1645112055.34375,P12,D13,0,0,0
2129,59.0,7.0,19.0,1645112055.375,P12,D13,0,0,0
2130,59.0,6.0,19.0,1645112055.40625,P12,D13,0,0,0
2131,59.0,6.0,19.0,1645112055.4375,P12,D13,0,0,0
2132,59.0,7.0,19.0,1645112055.46875,P12,D13,0,0,0
2133,59.0,6.0,19.0,1645112055.5,P12,D13,0,0,0
2134,59.0,6.0,19.0,1645112055.53125,P12,D13,0,0,0
2135,59.0,6.0,19.0,1645112055.5625,P12,D13,0,0,0
2136,59.0,6.0,19.0,1645112055.59375,P12,D13,0,0,0
2137,59.0,6.0,19.0,1645112055.625,P12,D13,0,0,0
2138,59.0,6.0,19.0,1645112055.65625,P12,D13,0,0,0
2139,58.0,6.0,19.0,1645112055.6875,P12,D13,0,0,0
2140,59.0,6.0,19.0,1645112055.71875,P12,D13,0,0,0
2141,59.0,6.0,19.0,1645112055.75,P12,D13,0,0,0
2142,59.0,7.0,19.0,1645112055.78125,P12,D13,0,0,0
2143,59.0,6.0,19.0,1645112055.8125,P12,D13,0,0,0
2144,59.0,6.0,19.0,1645112055.84375,P12,D13,0,0,0
2145,59.0,7.0,19.0,1645112055.875,P12,D13,0,0,0
2146,59.0,6.0,19.0,1645112055.90625,P12,D13,0,0,0
2147,59.0,6.0,19.0,1645112055.9375,P12,D13,0,0,0
2148,59.0,6.0,19.0,1645112055.96875,P12,D13,0,0,0
2149,59.0,6.0,19.0,1645112056.0,P12,D13,0,0,0
2150,59.0,6.0,19.0,1645112056.03125,P12,D13,0,0,0
2151,59.0,6.0,19.0,1645112056.0625,P12,D13,0,0,0
2152,59.0,6.0,19.0,1645112056.09375,P12,D13,0,0,0
2153,59.0,6.0,19.0,1645112056.125,P12,D13,0,0,0
2154,59.0,6.0,19.0,1645112056.15625,P12,D13,0,0,0
2155,59.0,7.0,19.0,1645112056.1875,P12,D13,0,0,0
2156,59.0,6.0,19.0,1645112056.21875,P12,D13,0,0,0
2157,59.0,6.0,18.0,1645112056.25,P12,D13,0,0,0
2158,59.0,6.0,19.0,1645112056.28125,P12,D13,0,0,0
2159,59.0,6.0,19.0,1645112056.3125,P12,D13,0,0,0
2160,59.0,6.0,18.0,1645112056.34375,P12,D13,0,0,0
2161,59.0,7.0,19.0,1645112056.375,P12,D13,0,0,0
2162,59.0,6.0,19.0,1645112056.40625,P12,D13,0,0,0
2163,59.0,6.0,19.0,1645112056.4375,P12,D13,0,0,0
2164,59.0,6.0,19.0,1645112056.46875,P12,D13,0,0,0
2165,59.0,6.0,19.0,1645112056.5,P12,D13,0,0,0
2166,59.0,6.0,19.0,1645112056.53125,P12,D13,0,0,0
2167,59.0,7.0,19.0,1645112056.5625,P12,D13,0,0,0
2168,59.0,7.0,19.0,1645112056.59375,P12,D13,0,0,0
2169,59.0,6.0,19.0,1645112056.625,P12,D13,0,0,0
2170,59.0,6.0,19.0,1645112056.65625,P12,D13,0,0,0
2171,59.0,6.0,19.0,1645112056.6875,P12,D13,0,0,0
2172,59.0,6.0,19.0,1645112056.71875,P12,D13,0,0,0
2173,59.0,6.0,19.0,1645112056.75,P12,D13,0,0,0
2174,59.0,6.0,18.0,1645112056.78125,P12,D13,0,0,0
2175,59.0,6.0,19.0,1645112056.8125,P12,D13,0,0,0
2176,59.0,6.0,19.0,1645112056.84375,P12,D13,0,0,0
2177,59.0,6.0,18.0,1645112056.875,P12,D13,0,0,0
2178,59.0,6.0,19.0,1645112056.90625,P12,D13,0,0,0
2179,59.0,7.0,19.0,1645112056.9375,P12,D13,0,0,0
2180,59.0,7.0,19.0,1645112056.96875,P12,D13,0,0,0
2181,59.0,7.0,19.0,1645112057.0,P12,D13,0,0,0
2182,59.0,6.0,19.0,1645112057.03125,P12,D13,0,0,0
2183,59.0,6.0,19.0,1645112057.0625,P12,D13,0,0,0
2184,59.0,6.0,19.0,1645112057.09375,P12,D13,0,0,0
2185,59.0,6.0,19.0,1645112057.125,P12,D13,0,0,0
2186,59.0,6.0,18.0,1645112057.15625,P12,D13,0,0,0
2187,59.0,6.0,19.0,1645112057.1875,P12,D13,0,0,0
2188,59.0,6.0,19.0,1645112057.21875,P12,D13,0,0,0
2189,59.0,6.0,19.0,1645112057.25,P12,D13,0,0,0
2190,59.0,6.0,19.0,1645112057.28125,P12,D13,0,0,0
2191,59.0,7.0,19.0,1645112057.3125,P12,D13,0,0,0
2192,59.0,6.0,19.0,1645112057.34375,P12,D13,0,0,0
2193,59.0,6.0,19.0,1645112057.375,P12,D13,0,0,0
2194,59.0,6.0,19.0,1645112057.40625,P12,D13,0,0,0
2195,59.0,6.0,19.0,1645112057.4375,P12,D13,0,0,0
2196,59.0,6.0,19.0,1645112057.46875,P12,D13,0,0,0
2197,59.0,6.0,19.0,1645112057.5,P12,D13,0,0,0
2198,59.0,6.0,19.0,1645112057.53125,P12,D13,0,0,0
2199,59.0,6.0,19.0,1645112057.5625,P12,D13,0,0,0
2200,59.0,7.0,19.0,1645112057.59375,P12,D13,0,0,0
2201,59.0,6.0,19.0,1645112057.625,P12,D13,0,0,0
2202,59.0,7.0,19.0,1645112057.65625,P12,D13,0,0,0
2203,59.0,6.0,19.0,1645112057.6875,P12,D13,0,0,0
2204,59.0,6.0,19.0,1645112057.71875,P12,D13,0,0,0
2205,59.0,6.0,19.0,1645112057.75,P12,D13,0,0,0
2206,59.0,6.0,19.0,1645112057.78125,P12,D13,0,0,0
2207,59.0,6.0,19.0,1645112057.8125,P12,D13,0,0,0
2208,59.0,6.0,19.0,1645112057.84375,P12,D13,0,0,0
2209,59.0,6.0,19.0,1645112057.875,P12,D13,0,0,0
2210,59.0,6.0,19.0,1645112057.90625,P12,D13,0,0,0
2211,59.0,6.0,19.0,1645112057.9375,P12,D13,0,0,0
2212,59.0,6.0,18.0,1645112057.96875,P12,D13,0,0,0
2213,59.0,6.0,19.0,1645112058.0,P12,D13,0,0,0
2214,59.0,6.0,19.0,1645112058.03125,P12,D13,0,0,0
2215,59.0,6.0,19.0,1645112058.0625,P12,D13,0,0,0
2216,59.0,6.0,19.0,1645112058.09375,P12,D13,0,0,0
2217,59.0,6.0,19.0,1645112058.125,P12,D13,0,0,0
2218,59.0,6.0,19.0,1645112058.15625,P12,D13,0,0,0
2219,59.0,6.0,19.0,1645112058.1875,P12,D13,0,0,0
2220,59.0,6.0,19.0,1645112058.21875,P12,D13,0,0,0
2221,59.0,6.0,19.0,1645112058.25,P12,D13,0,0,0
2222,59.0,6.0,18.0,1645112058.28125,P12,D13,0,0,0
2223,59.0,6.0,18.0,1645112058.3125,P12,D13,0,0,0
2224,59.0,6.0,19.0,1645112058.34375,P12,D13,0,0,0
2225,59.0,6.0,19.0,1645112058.375,P12,D13,0,0,0
2226,59.0,6.0,19.0,1645112058.40625,P12,D13,0,0,0
2227,59.0,6.0,19.0,1645112058.4375,P12,D13,0,0,0
2228,59.0,6.0,19.0,1645112058.46875,P12,D13,0,0,0
2229,59.0,6.0,18.0,1645112058.5,P12,D13,0,0,0
2230,59.0,6.0,19.0,1645112058.53125,P12,D13,0,0,0
2231,59.0,6.0,18.0,1645112058.5625,P12,D13,0,0,0
2232,59.0,6.0,18.0,1645112058.59375,P12,D13,0,0,0
2233,59.0,6.0,19.0,1645112058.625,P12,D13,0,0,0
2234,59.0,6.0,19.0,1645112058.65625,P12,D13,0,0,0
2235,59.0,6.0,18.0,1645112058.6875,P12,D13,0,0,0
2236,59.0,6.0,19.0,1645112058.71875,P12,D13,0,0,0
2237,59.0,6.0,19.0,1645112058.75,P12,D13,0,0,0
2238,59.0,6.0,19.0,1645112058.78125,P12,D13,0,0,0
2239,59.0,6.0,18.0,1645112058.8125,P12,D13,0,0,0
2240,59.0,6.0,19.0,1645112058.84375,P12,D13,0,0,0
2241,59.0,6.0,18.0,1645112058.875,P12,D13,0,0,0
2242,59.0,6.0,19.0,1645112058.90625,P12,D13,0,0,0
2243,59.0,6.0,19.0,1645112058.9375,P12,D13,0,0,0
2244,59.0,6.0,19.0,1645112058.96875,P12,D13,0,0,0
2245,59.0,6.0,19.0,1645112059.0,P12,D13,0,0,0
2246,59.0,6.0,19.0,1645112059.03125,P12,D13,0,0,0
2247,59.0,6.0,18.0,1645112059.0625,P12,D13,0,0,0
2248,59.0,6.0,19.0,1645112059.09375,P12,D13,0,0,0
2249,59.0,6.0,19.0,1645112059.125,P12,D13,0,0,0
2250,59.0,6.0,19.0,1645112059.15625,P12,D13,0,0,0
2251,59.0,6.0,18.0,1645112059.1875,P12,D13,0,0,0
2252,59.0,6.0,19.0,1645112059.21875,P12,D13,0,0,0
2253,59.0,6.0,18.0,1645112059.25,P12,D13,0,0,0
2254,59.0,6.0,18.0,1645112059.28125,P12,D13,0,0,0
2255,59.0,6.0,19.0,1645112059.3125,P12,D13,0,0,0
2256,59.0,6.0,19.0,1645112059.34375,P12,D13,0,0,0
2257,59.0,6.0,19.0,1645112059.375,P12,D13,0,0,0
2258,59.0,6.0,19.0,1645112059.40625,P12,D13,0,0,0
2259,59.0,6.0,19.0,1645112059.4375,P12,D13,0,0,0
2260,59.0,6.0,19.0,1645112059.46875,P12,D13,0,0,0
2261,59.0,6.0,18.0,1645112059.5,P12,D13,0,0,0
2262,59.0,6.0,19.0,1645112059.53125,P12,D13,0,0,0
2263,59.0,6.0,19.0,1645112059.5625,P12,D13,0,0,0
2264,59.0,6.0,19.0,1645112059.59375,P12,D13,0,0,0
2265,59.0,6.0,19.0,1645112059.625,P12,D13,0,0,0
2266,59.0,6.0,19.0,1645112059.65625,P12,D13,0,0,0
2267,59.0,7.0,19.0,1645112059.6875,P12,D13,0,0,0
2268,59.0,6.0,19.0,1645112059.71875,P12,D13,0,0,0
2269,59.0,6.0,19.0,1645112059.75,P12,D13,0,0,0
2270,59.0,6.0,19.0,1645112059.78125,P12,D13,0,0,0
2271,59.0,6.0,19.0,1645112059.8125,P12,D13,0,0,0
2272,59.0,6.0,19.0,1645112059.84375,P12,D13,0,0,0
2273,59.0,7.0,19.0,1645112059.875,P12,D13,0,0,0
2274,59.0,6.0,19.0,1645112059.90625,P12,D13,0,0,0
2275,59.0,6.0,19.0,1645112059.9375,P12,D13,0,0,0
2276,59.0,7.0,19.0,1645112059.96875,P12,D13,0,0,0
2277,59.0,6.0,19.0,1645112060.0,P12,D13,0,0,0
2278,59.0,6.0,19.0,1645112060.03125,P12,D13,0,0,0
2279,59.0,6.0,19.0,1645112060.0625,P12,D13,0,0,0
2280,59.0,7.0,19.0,1645112060.09375,P12,D13,0,0,0
2281,59.0,6.0,19.0,1645112060.125,P12,D13,0,0,0
2282,59.0,6.0,19.0,1645112060.15625,P12,D13,0,0,0
2283,59.0,6.0,19.0,1645112060.1875,P12,D13,0,0,0
2284,59.0,6.0,19.0,1645112060.21875,P12,D13,0,0,0
2285,59.0,6.0,19.0,1645112060.25,P12,D13,0,0,0
2286,59.0,6.0,19.0,1645112060.28125,P12,D13,0,0,0
2287,59.0,7.0,19.0,1645112060.3125,P12,D13,0,0,0
2288,59.0,6.0,19.0,1645112060.34375,P12,D13,0,0,0
2289,59.0,6.0,19.0,1645112060.375,P12,D13,0,0,0
2290,59.0,6.0,19.0,1645112060.40625,P12,D13,0,0,0
2291,59.0,6.0,19.0,1645112060.4375,P12,D13,0,0,0
2292,59.0,6.0,19.0,1645112060.46875,P12,D13,0,0,0
2293,59.0,6.0,19.0,1645112060.5,P12,D13,0,0,0
2294,59.0,6.0,19.0,1645112060.53125,P12,D13,0,0,0
2295,59.0,6.0,19.0,1645112060.5625,P12,D13,0,0,0
2296,59.0,7.0,19.0,1645112060.59375,P12,D13,0,0,0
2297,59.0,6.0,19.0,1645112060.625,P12,D13,0,0,0
2298,59.0,6.0,19.0,1645112060.65625,P12,D13,0,0,0
2299,59.0,6.0,19.0,1645112060.6875,P12,D13,0,0,0
2300,59.0,7.0,19.0,1645112060.71875,P12,D13,0,0,0
2301,59.0,6.0,19.0,1645112060.75,P12,D13,0,0,0
2302,59.0,6.0,19.0,1645112060.78125,P12,D13,0,0,0
2303,59.0,7.0,19.0,1645112060.8125,P12,D13,0,0,0
2304,59.0,6.0,19.0,1645112060.84375,P12,D13,0,0,0
2305,59.0,7.0,19.0,1645112060.875,P12,D13,0,0,0
2306,59.0,6.0,19.0,1645112060.90625,P12,D13,0,0,0
2307,59.0,6.0,19.0,1645112060.9375,P12,D13,0,0,0
2308,59.0,7.0,19.0,1645112060.96875,P12,D13,0,0,0
2309,59.0,6.0,19.0,1645112061.0,P12,D13,0,0,0
2310,59.0,6.0,19.0,1645112061.03125,P12,D13,0,0,0
2311,59.0,6.0,19.0,1645112061.0625,P12,D13,0,0,0
2312,59.0,6.0,19.0,1645112061.09375,P12,D13,0,0,0
2313,59.0,6.0,19.0,1645112061.125,P12,D13,0,0,0
2314,59.0,6.0,19.0,1645112061.15625,P12,D13,0,0,0
2315,59.0,7.0,19.0,1645112061.1875,P12,D13,0,0,0
2316,59.0,6.0,19.0,1645112061.21875,P12,D13,0,0,0
2317,59.0,6.0,19.0,1645112061.25,P12,D13,0,0,0
2318,59.0,7.0,19.0,1645112061.28125,P12,D13,0,0,0
2319,59.0,6.0,19.0,1645112061.3125,P12,D13,0,0,0
2320,59.0,7.0,19.0,1645112061.34375,P12,D13,0,0,0
2321,59.0,6.0,19.0,1645112061.375,P12,D13,0,0,0
2322,59.0,6.0,19.0,1645112061.40625,P12,D13,0,0,0
2323,59.0,6.0,19.0,1645112061.4375,P12,D13,0,0,0
2324,59.0,6.0,18.0,1645112061.46875,P12,D13,0,0,0
2325,59.0,6.0,19.0,1645112061.5,P12,D13,0,0,0
2326,59.0,6.0,19.0,1645112061.53125,P12,D13,0,0,0
2327,59.0,6.0,19.0,1645112061.5625,P12,D13,0,0,0
2328,59.0,6.0,19.0,1645112061.59375,P12,D13,0,0,0
2329,59.0,6.0,19.0,1645112061.625,P12,D13,0,0,0
2330,59.0,6.0,19.0,1645112061.65625,P12,D13,0,0,0
2331,59.0,6.0,19.0,1645112061.6875,P12,D13,0,0,0
2332,59.0,6.0,18.0,1645112061.71875,P12,D13,0,0,0
2333,59.0,7.0,19.0,1645112061.75,P12,D13,0,0,0
2334,59.0,6.0,19.0,1645112061.78125,P12,D13,0,0,0
2335,59.0,6.0,19.0,1645112061.8125,P12,D13,0,0,0
2336,59.0,6.0,19.0,1645112061.84375,P12,D13,0,0,0
2337,59.0,6.0,19.0,1645112061.875,P12,D13,0,0,0
2338,59.0,6.0,19.0,1645112061.90625,P12,D13,0,0,0
2339,59.0,7.0,19.0,1645112061.9375,P12,D13,0,0,0
2340,59.0,7.0,19.0,1645112061.96875,P12,D13,0,0,0
2341,59.0,6.0,19.0,1645112062.0,P12,D13,0,0,0
2342,59.0,6.0,19.0,1645112062.03125,P12,D13,0,0,0
2343,59.0,6.0,19.0,1645112062.0625,P12,D13,0,0,0
2344,59.0,6.0,19.0,1645112062.09375,P12,D13,0,0,0
2345,59.0,6.0,18.0,1645112062.125,P12,D13,0,0,0
2346,59.0,6.0,19.0,1645112062.15625,P12,D13,0,0,0
2347,59.0,6.0,19.0,1645112062.1875,P12,D13,0,0,0
2348,59.0,6.0,19.0,1645112062.21875,P12,D13,0,0,0
2349,59.0,6.0,19.0,1645112062.25,P12,D13,0,0,0
2350,59.0,6.0,19.0,1645112062.28125,P12,D13,0,0,0
2351,59.0,6.0,19.0,1645112062.3125,P12,D13,0,0,0
2352,59.0,6.0,19.0,1645112062.34375,P12,D13,0,0,0
2353,59.0,6.0,19.0,1645112062.375,P12,D13,0,0,0
2354,59.0,6.0,19.0,1645112062.40625,P12,D13,0,0,0
2355,59.0,6.0,19.0,1645112062.4375,P12,D13,0,0,0
2356,59.0,6.0,18.0,1645112062.46875,P12,D13,0,0,0
2357,59.0,6.0,19.0,1645112062.5,P12,D13,0,0,0
2358,59.0,6.0,19.0,1645112062.53125,P12,D13,0,0,0
2359,59.0,7.0,18.0,1645112062.5625,P12,D13,0,0,0
2360,59.0,6.0,19.0,1645112062.59375,P12,D13,0,0,0
2361,59.0,6.0,19.0,1645112062.625,P12,D13,0,0,0
2362,59.0,6.0,19.0,1645112062.65625,P12,D13,0,0,0
2363,59.0,6.0,19.0,1645112062.6875,P12,D13,0,0,0
2364,58.0,6.0,19.0,1645112062.71875,P12,D13,0,0,0
2365,59.0,6.0,19.0,1645112062.75,P12,D13,0,0,0
2366,59.0,6.0,19.0,1645112062.78125,P12,D13,0,0,0
2367,59.0,6.0,18.0,1645112062.8125,P12,D13,0,0,0
2368,59.0,6.0,18.0,1645112062.84375,P12,D13,0,0,0
2369,59.0,6.0,19.0,1645112062.875,P12,D13,0,0,0
2370,59.0,6.0,19.0,1645112062.90625,P12,D13,0,0,0
2371,59.0,6.0,19.0,1645112062.9375,P12,D13,0,0,0
2372,59.0,7.0,19.0,1645112062.96875,P12,D13,0,0,0
2373,59.0,6.0,19.0,1645112063.0,P12,D13,0,0,0
2374,59.0,6.0,19.0,1645112063.03125,P12,D13,0,0,0
2375,59.0,6.0,19.0,1645112063.0625,P12,D13,0,0,0
2376,59.0,6.0,19.0,1645112063.09375,P12,D13,0,0,0
2377,59.0,6.0,19.0,1645112063.125,P12,D13,0,0,0
2378,59.0,6.0,18.0,1645112063.15625,P12,D13,0,0,0
2379,59.0,6.0,19.0,1645112063.1875,P12,D13,0,0,0
2380,59.0,6.0,19.0,1645112063.21875,P12,D13,0,0,0
2381,59.0,6.0,19.0,1645112063.25,P12,D13,0,0,0
2382,59.0,6.0,19.0,1645112063.28125,P12,D13,0,0,0
2383,59.0,6.0,19.0,1645112063.3125,P12,D13,0,0,0
2384,59.0,6.0,19.0,1645112063.34375,P12,D13,0,0,0
2385,59.0,6.0,19.0,1645112063.375,P12,D13,0,0,0
2386,59.0,6.0,19.0,1645112063.40625,P12,D13,0,0,0
2387,59.0,6.0,19.0,1645112063.4375,P12,D13,0,0,0
2388,59.0,6.0,19.0,1645112063.46875,P12,D13,0,0,0
2389,59.0,7.0,19.0,1645112063.5,P12,D13,0,0,0
2390,59.0,7.0,19.0,1645112063.53125,P12,D13,0,0,0
2391,59.0,6.0,19.0,1645112063.5625,P12,D13,0,0,0
2392,59.0,6.0,19.0,1645112063.59375,P12,D13,0,0,0
2393,58.0,6.0,19.0,1645112063.625,P12,D13,0,0,0
2394,59.0,6.0,19.0,1645112063.65625,P12,D13,0,0,0
2395,59.0,6.0,18.0,1645112063.6875,P12,D13,0,0,0
2396,59.0,6.0,19.0,1645112063.71875,P12,D13,0,0,0
2397,59.0,6.0,19.0,1645112063.75,P12,D13,0,0,0
2398,59.0,6.0,18.0,1645112063.78125,P12,D13,0,0,0
2399,59.0,7.0,19.0,1645112063.8125,P12,D13,0,0,0
2400,59.0,7.0,19.0,1645112063.84375,P12,D13,0,0,0
2401,59.0,6.0,19.0,1645112063.875,P12,D13,0,0,0
2402,59.0,7.0,19.0,1645112063.90625,P12,D13,0,0,0
2403,59.0,6.0,19.0,1645112063.9375,P12,D13,0,0,0
2404,59.0,6.0,19.0,1645112063.96875,P12,D13,0,0,0
2405,59.0,6.0,19.0,1645112064.0,P12,D13,0,0,0
2406,59.0,6.0,19.0,1645112064.03125,P12,D13,0,0,0
2407,59.0,6.0,19.0,1645112064.0625,P12,D13,0,0,0
2408,59.0,6.0,19.0,1645112064.09375,P12,D13,0,0,0
2409,59.0,6.0,19.0,1645112064.125,P12,D13,0,0,0
2410,59.0,6.0,19.0,1645112064.15625,P12,D13,0,0,0
2411,59.0,6.0,19.0,1645112064.1875,P12,D13,0,0,0
2412,59.0,6.0,19.0,1645112064.21875,P12,D13,0,0,0
2413,59.0,6.0,19.0,1645112064.25,P12,D13,0,0,0
2414,60.0,7.0,18.0,1645112064.28125,P12,D13,0,0,0
2415,59.0,6.0,19.0,1645112064.3125,P12,D13,0,0,0
2416,59.0,6.0,18.0,1645112064.34375,P12,D13,0,0,0
2417,58.0,6.0,18.0,1645112064.375,P12,D13,0,0,0
2418,59.0,6.0,19.0,1645112064.40625,P12,D13,0,0,0
2419,59.0,7.0,19.0,1645112064.4375,P12,D13,0,0,0
2420,59.0,6.0,19.0,1645112064.46875,P12,D13,0,0,0
2421,59.0,6.0,19.0,1645112064.5,P12,D13,0,0,0
2422,59.0,6.0,19.0,1645112064.53125,P12,D13,0,0,0
2423,59.0,7.0,19.0,1645112064.5625,P12,D13,0,0,0
2424,58.0,6.0,19.0,1645112064.59375,P12,D13,0,0,0
2425,59.0,6.0,19.0,1645112064.625,P12,D13,0,0,0
2426,59.0,7.0,19.0,1645112064.65625,P12,D13,0,0,0
2427,59.0,6.0,19.0,1645112064.6875,P12,D13,0,0,0
2428,59.0,7.0,19.0,1645112064.71875,P12,D13,0,0,0
2429,59.0,6.0,19.0,1645112064.75,P12,D13,0,0,0
2430,59.0,6.0,19.0,1645112064.78125,P12,D13,0,0,0
2431,59.0,7.0,19.0,1645112064.8125,P12,D13,0,0,0
2432,59.0,6.0,19.0,1645112064.84375,P12,D13,0,0,0
2433,59.0,6.0,18.0,1645112064.875,P12,D13,0,0,0
2434,59.0,6.0,18.0,1645112064.90625,P12,D13,0,0,0
2435,59.0,6.0,18.0,1645112064.9375,P12,D13,0,0,0
2436,59.0,6.0,18.0,1645112064.96875,P12,D13,0,0,0
2437,59.0,7.0,18.0,1645112065.0,P12,D13,0,0,0
2438,59.0,6.0,18.0,1645112065.03125,P12,D13,0,0,0
2439,59.0,7.0,18.0,1645112065.0625,P12,D13,0,0,0
2440,59.0,6.0,18.0,1645112065.09375,P12,D13,0,0,0
2441,59.0,6.0,18.0,1645112065.125,P12,D13,0,0,0
2442,59.0,6.0,18.0,1645112065.15625,P12,D13,0,0,0
2443,59.0,6.0,18.0,1645112065.1875,P12,D13,0,0,0
2444,59.0,6.0,18.0,1645112065.21875,P12,D13,0,0,0
2445,59.0,6.0,18.0,1645112065.25,P12,D13,0,0,0
2446,59.0,6.0,19.0,1645112065.28125,P12,D13,0,0,0
2447,59.0,6.0,18.0,1645112065.3125,P12,D13,0,0,0
2448,59.0,6.0,18.0,1645112065.34375,P12,D13,0,0,0
2449,59.0,6.0,18.0,1645112065.375,P12,D13,0,0,0
2450,59.0,6.0,18.0,1645112065.40625,P12,D13,0,0,0
2451,59.0,6.0,18.0,1645112065.4375,P12,D13,0,0,0
2452,59.0,6.0,18.0,1645112065.46875,P12,D13,0,0,0
2453,59.0,6.0,18.0,1645112065.5,P12,D13,0,0,0
2454,59.0,6.0,18.0,1645112065.53125,P12,D13,0,0,0
2455,59.0,6.0,18.0,1645112065.5625,P12,D13,0,0,0
2456,58.0,6.0,18.0,1645112065.59375,P12,D13,0,0,0
2457,59.0,6.0,18.0,1645112065.625,P12,D13,0,0,0
2458,59.0,6.0,18.0,1645112065.65625,P12,D13,0,0,0
2459,59.0,6.0,18.0,1645112065.6875,P12,D13,0,0,0
2460,59.0,7.0,18.0,1645112065.71875,P12,D13,0,0,0
2461,59.0,7.0,18.0,1645112065.75,P12,D13,0,0,0
2462,59.0,7.0,18.0,1645112065.78125,P12,D13,0,0,0
2463,60.0,7.0,18.0,1645112065.8125,P12,D13,0,0,0
2464,59.0,7.0,18.0,1645112065.84375,P12,D13,0,0,0
2465,59.0,7.0,18.0,1645112065.875,P12,D13,0,0,0
2466,59.0,6.0,18.0,1645112065.90625,P12,D13,0,0,0
