,acc_x,acc_y,acc_z,timestamp,participant,document,val,arou,eng
0,57.0,-11.0,22.0,1644597762.40625,P05,D07,0,0,0
1,57.0,-11.0,22.0,1644597762.4375,P05,D07,0,0,0
2,57.0,-11.0,22.0,1644597762.46875,P05,D07,0,0,0
3,57.0,-11.0,22.0,1644597762.5,P05,D07,0,0,0
4,57.0,-11.0,21.0,1644597762.53125,P05,D07,0,0,0
5,57.0,-11.0,22.0,1644597762.5625,P05,D07,0,0,0
6,57.0,-11.0,22.0,1644597762.59375,P05,D07,0,0,0
7,57.0,-11.0,22.0,1644597762.625,P05,D07,0,0,0
8,57.0,-11.0,22.0,1644597762.65625,P05,D07,0,0,0
9,57.0,-11.0,22.0,1644597762.6875,P05,D07,0,0,0
10,57.0,-11.0,22.0,1644597762.71875,P05,D07,0,0,0
11,57.0,-11.0,22.0,1644597762.75,P05,D07,0,0,0
12,57.0,-11.0,22.0,1644597762.78125,P05,D07,0,0,0
13,57.0,-11.0,22.0,1644597762.8125,P05,D07,0,0,0
14,57.0,-11.0,22.0,1644597762.84375,P05,D07,0,0,0
15,57.0,-11.0,22.0,1644597762.875,P05,D07,0,0,0
16,57.0,-11.0,22.0,1644597762.90625,P05,D07,0,0,0
17,57.0,-11.0,22.0,1644597762.9375,P05,D07,0,0,0
18,57.0,-11.0,22.0,1644597762.96875,P05,D07,0,0,0
19,57.0,-11.0,22.0,1644597763.0,P05,D07,0,0,0
20,57.0,-11.0,22.0,1644597763.03125,P05,D07,0,0,0
21,57.0,-11.0,22.0,1644597763.0625,P05,D07,0,0,0
22,57.0,-11.0,22.0,1644597763.09375,P05,D07,0,0,0
23,57.0,-11.0,22.0,1644597763.125,P05,D07,0,0,0
24,56.0,-11.0,22.0,1644597763.15625,P05,D07,0,0,0
25,57.0,-11.0,22.0,1644597763.1875,P05,D07,0,0,0
26,58.0,-11.0,22.0,1644597763.21875,P05,D07,0,0,0
27,58.0,-11.0,22.0,1644597763.25,P05,D07,0,0,0
28,57.0,-11.0,22.0,1644597763.28125,P05,D07,0,0,0
29,58.0,-11.0,22.0,1644597763.3125,P05,D07,0,0,0
30,57.0,-11.0,22.0,1644597763.34375,P05,D07,0,0,0
31,57.0,-12.0,22.0,1644597763.375,P05,D07,0,0,0
32,57.0,-11.0,22.0,1644597763.40625,P05,D07,0,0,0
33,57.0,-11.0,22.0,1644597763.4375,P05,D07,0,0,0
34,57.0,-11.0,22.0,1644597763.46875,P05,D07,0,0,0
35,57.0,-11.0,22.0,1644597763.5,P05,D07,0,0,0
36,57.0,-11.0,22.0,1644597763.53125,P05,D07,0,0,0
37,57.0,-11.0,22.0,1644597763.5625,P05,D07,0,0,0
38,57.0,-11.0,22.0,1644597763.59375,P05,D07,0,0,0
39,57.0,-11.0,22.0,1644597763.625,P05,D07,0,0,0
40,57.0,-12.0,22.0,1644597763.65625,P05,D07,0,0,0
41,57.0,-11.0,22.0,1644597763.6875,P05,D07,0,0,0
42,57.0,-11.0,22.0,1644597763.71875,P05,D07,0,0,0
43,57.0,-11.0,22.0,1644597763.75,P05,D07,0,0,0
44,57.0,-11.0,22.0,1644597763.78125,P05,D07,0,0,0
45,57.0,-11.0,22.0,1644597763.8125,P05,D07,0,0,0
46,58.0,-11.0,22.0,1644597763.84375,P05,D07,0,0,0
47,57.0,-11.0,22.0,1644597763.875,P05,D07,0,0,0
48,57.0,-11.0,22.0,1644597763.90625,P05,D07,0,0,0
49,57.0,-11.0,22.0,1644597763.9375,P05,D07,0,0,0
50,57.0,-11.0,22.0,1644597763.96875,P05,D07,0,0,0
51,57.0,-11.0,22.0,1644597764.0,P05,D07,0,0,0
52,58.0,-11.0,22.0,1644597764.03125,P05,D07,0,0,0
53,57.0,-11.0,22.0,1644597764.0625,P05,D07,0,0,0
54,57.0,-11.0,22.0,1644597764.09375,P05,D07,0,0,0
55,57.0,-11.0,22.0,1644597764.125,P05,D07,0,0,0
56,57.0,-11.0,22.0,1644597764.15625,P05,D07,0,0,0
57,57.0,-11.0,22.0,1644597764.1875,P05,D07,0,0,0
58,57.0,-11.0,22.0,1644597764.21875,P05,D07,0,0,0
59,57.0,-11.0,22.0,1644597764.25,P05,D07,0,0,0
60,57.0,-11.0,22.0,1644597764.28125,P05,D07,0,0,0
61,57.0,-11.0,22.0,1644597764.3125,P05,D07,0,0,0
62,57.0,-11.0,22.0,1644597764.34375,P05,D07,0,0,0
63,57.0,-11.0,22.0,1644597764.375,P05,D07,0,0,0
64,57.0,-11.0,22.0,1644597764.40625,P05,D07,0,0,0
65,57.0,-11.0,22.0,1644597764.4375,P05,D07,0,0,0
66,57.0,-11.0,22.0,1644597764.46875,P05,D07,0,0,0
67,57.0,-11.0,22.0,1644597764.5,P05,D07,0,0,0
68,57.0,-11.0,22.0,1644597764.53125,P05,D07,0,0,0
69,57.0,-11.0,22.0,1644597764.5625,P05,D07,0,0,0
70,57.0,-11.0,22.0,1644597764.59375,P05,D07,0,0,0
71,57.0,-11.0,22.0,1644597764.625,P05,D07,0,0,0
72,57.0,-11.0,22.0,1644597764.65625,P05,D07,0,0,0
73,57.0,-11.0,22.0,1644597764.6875,P05,D07,0,0,0
74,57.0,-11.0,22.0,1644597764.71875,P05,D07,0,0,0
75,57.0,-11.0,22.0,1644597764.75,P05,D07,0,0,0
76,57.0,-11.0,22.0,1644597764.78125,P05,D07,0,0,0
77,57.0,-11.0,22.0,1644597764.8125,P05,D07,0,0,0
78,57.0,-11.0,22.0,1644597764.84375,P05,D07,0,0,0
79,57.0,-11.0,22.0,1644597764.875,P05,D07,0,0,0
80,57.0,-11.0,22.0,1644597764.90625,P05,D07,0,0,0
81,57.0,-11.0,22.0,1644597764.9375,P05,D07,0,0,0
82,57.0,-11.0,22.0,1644597764.96875,P05,D07,0,0,0
83,57.0,-11.0,22.0,1644597765.0,P05,D07,0,0,0
84,57.0,-11.0,22.0,1644597765.03125,P05,D07,0,0,0
85,57.0,-11.0,22.0,1644597765.0625,P05,D07,0,0,0
86,57.0,-11.0,22.0,1644597765.09375,P05,D07,0,0,0
87,57.0,-11.0,22.0,1644597765.125,P05,D07,0,0,0
88,57.0,-11.0,22.0,1644597765.15625,P05,D07,0,0,0
89,57.0,-11.0,22.0,1644597765.1875,P05,D07,0,0,0
90,57.0,-11.0,22.0,1644597765.21875,P05,D07,0,0,0
91,57.0,-11.0,22.0,1644597765.25,P05,D07,0,0,0
92,57.0,-11.0,22.0,1644597765.28125,P05,D07,0,0,0
93,57.0,-11.0,22.0,1644597765.3125,P05,D07,0,0,0
94,57.0,-11.0,22.0,1644597765.34375,P05,D07,0,0,0
95,57.0,-11.0,22.0,1644597765.375,P05,D07,0,0,0
96,57.0,-11.0,22.0,1644597765.40625,P05,D07,0,0,0
97,57.0,-11.0,22.0,1644597765.4375,P05,D07,0,0,0
98,57.0,-11.0,22.0,1644597765.46875,P05,D07,0,0,0
99,57.0,-11.0,22.0,1644597765.5,P05,D07,0,0,0
100,57.0,-11.0,22.0,1644597765.53125,P05,D07,0,0,0
101,57.0,-11.0,22.0,1644597765.5625,P05,D07,0,0,0
102,57.0,-11.0,22.0,1644597765.59375,P05,D07,0,0,0
103,57.0,-11.0,22.0,1644597765.625,P05,D07,0,0,0
104,57.0,-11.0,22.0,1644597765.65625,P05,D07,0,0,0
105,57.0,-11.0,22.0,1644597765.6875,P05,D07,0,0,0
106,57.0,-11.0,22.0,1644597765.71875,P05,D07,0,0,0
107,57.0,-11.0,22.0,1644597765.75,P05,D07,0,0,0
108,57.0,-11.0,22.0,1644597765.78125,P05,D07,0,0,0
109,57.0,-11.0,22.0,1644597765.8125,P05,D07,0,0,0
110,57.0,-11.0,22.0,1644597765.84375,P05,D07,0,0,0
111,57.0,-11.0,22.0,1644597765.875,P05,D07,0,0,0
112,57.0,-11.0,22.0,1644597765.90625,P05,D07,0,0,0
113,57.0,-11.0,22.0,1644597765.9375,P05,D07,0,0,0
114,58.0,-11.0,22.0,1644597765.96875,P05,D07,0,0,0
115,57.0,-11.0,22.0,1644597766.0,P05,D07,0,0,0
116,57.0,-11.0,22.0,1644597766.03125,P05,D07,0,0,0
117,58.0,-11.0,22.0,1644597766.0625,P05,D07,0,0,0
118,57.0,-11.0,22.0,1644597766.09375,P05,D07,0,0,0
119,57.0,-11.0,22.0,1644597766.125,P05,D07,0,0,0
120,57.0,-11.0,22.0,1644597766.15625,P05,D07,0,0,0
121,57.0,-11.0,22.0,1644597766.1875,P05,D07,0,0,0
122,57.0,-11.0,22.0,1644597766.21875,P05,D07,0,0,0
123,57.0,-11.0,22.0,1644597766.25,P05,D07,0,0,0
124,57.0,-11.0,22.0,1644597766.28125,P05,D07,0,0,0
125,57.0,-11.0,22.0,1644597766.3125,P05,D07,0,0,0
126,57.0,-11.0,22.0,1644597766.34375,P05,D07,0,0,0
127,57.0,-11.0,22.0,1644597766.375,P05,D07,0,0,0
128,57.0,-11.0,22.0,1644597766.40625,P05,D07,0,0,0
129,57.0,-11.0,22.0,1644597766.4375,P05,D07,0,0,0
130,57.0,-11.0,22.0,1644597766.46875,P05,D07,0,0,0
131,57.0,-11.0,22.0,1644597766.5,P05,D07,0,0,0
132,57.0,-11.0,22.0,1644597766.53125,P05,D07,0,0,0
133,57.0,-12.0,23.0,1644597766.5625,P05,D07,0,0,0
134,58.0,-12.0,23.0,1644597766.59375,P05,D07,0,0,0
135,60.0,-15.0,25.0,1644597766.625,P05,D07,0,0,0
136,63.0,-18.0,27.0,1644597766.65625,P05,D07,0,0,0
137,57.0,-19.0,26.0,1644597766.6875,P05,D07,0,0,0
138,42.0,-17.0,23.0,1644597766.71875,P05,D07,0,0,0
139,48.0,-20.0,22.0,1644597766.75,P05,D07,0,0,0
140,71.0,-16.0,24.0,1644597766.78125,P05,D07,0,0,0
141,78.0,-16.0,24.0,1644597766.8125,P05,D07,0,0,0
142,49.0,-15.0,17.0,1644597766.84375,P05,D07,0,0,0
143,38.0,-8.0,14.0,1644597766.875,P05,D07,0,0,0
144,58.0,-4.0,16.0,1644597766.90625,P05,D07,0,0,0
145,62.0,2.0,18.0,1644597766.9375,P05,D07,0,0,0
146,61.0,2.0,18.0,1644597766.96875,P05,D07,0,0,0
147,56.0,3.0,15.0,1644597767.0,P05,D07,0,0,0
148,56.0,3.0,14.0,1644597767.03125,P05,D07,0,0,0
149,55.0,4.0,9.0,1644597767.0625,P05,D07,0,0,0
150,55.0,4.0,8.0,1644597767.09375,P05,D07,0,0,0
151,56.0,3.0,9.0,1644597767.125,P05,D07,0,0,0
152,57.0,2.0,8.0,1644597767.15625,P05,D07,0,0,0
153,61.0,-1.0,12.0,1644597767.1875,P05,D07,0,0,0
154,65.0,-5.0,9.0,1644597767.21875,P05,D07,0,0,0
155,54.0,-8.0,7.0,1644597767.25,P05,D07,0,0,0
156,56.0,-13.0,12.0,1644597767.28125,P05,D07,0,0,0
157,56.0,-18.0,14.0,1644597767.3125,P05,D07,0,0,0
158,56.0,-22.0,17.0,1644597767.34375,P05,D07,0,0,0
159,55.0,-28.0,17.0,1644597767.375,P05,D07,0,0,0
160,62.0,-29.0,21.0,1644597767.40625,P05,D07,0,0,0
161,59.0,-28.0,21.0,1644597767.4375,P05,D07,0,0,0
162,58.0,-31.0,26.0,1644597767.46875,P05,D07,0,0,0
163,63.0,-28.0,33.0,1644597767.5,P05,D07,0,0,0
164,55.0,-32.0,32.0,1644597767.53125,P05,D07,0,0,0
165,54.0,-33.0,28.0,1644597767.5625,P05,D07,0,0,0
166,48.0,-34.0,20.0,1644597767.59375,P05,D07,0,0,0
167,45.0,-38.0,17.0,1644597767.625,P05,D07,0,0,0
168,42.0,-38.0,13.0,1644597767.65625,P05,D07,0,0,0
169,43.0,-39.0,29.0,1644597767.6875,P05,D07,0,0,0
170,39.0,-40.0,31.0,1644597767.71875,P05,D07,0,0,0
171,41.0,-43.0,26.0,1644597767.75,P05,D07,0,0,0
172,44.0,-42.0,27.0,1644597767.78125,P05,D07,0,0,0
173,47.0,-41.0,18.0,1644597767.8125,P05,D07,0,0,0
174,43.0,-42.0,12.0,1644597767.84375,P05,D07,0,0,0
175,39.0,-49.0,7.0,1644597767.875,P05,D07,0,0,0
176,38.0,-51.0,8.0,1644597767.90625,P05,D07,0,0,0
177,29.0,-54.0,15.0,1644597767.9375,P05,D07,0,0,0
178,25.0,-54.0,16.0,1644597767.96875,P05,D07,0,0,0
179,21.0,-55.0,13.0,1644597768.0,P05,D07,0,0,0
180,17.0,-69.0,16.0,1644597768.03125,P05,D07,0,0,0
181,12.0,-77.0,12.0,1644597768.0625,P05,D07,0,0,0
182,10.0,-71.0,2.0,1644597768.09375,P05,D07,0,0,0
183,4.0,-53.0,-1.0,1644597768.125,P05,D07,0,0,0
184,24.0,-45.0,20.0,1644597768.15625,P05,D07,0,0,0
185,8.0,-54.0,6.0,1644597768.1875,P05,D07,0,0,0
186,6.0,-70.0,-7.0,1644597768.21875,P05,D07,0,0,0
187,8.0,-72.0,-1.0,1644597768.25,P05,D07,0,0,0
188,15.0,-54.0,6.0,1644597768.28125,P05,D07,0,0,0
189,17.0,-46.0,4.0,1644597768.3125,P05,D07,0,0,0
190,19.0,-45.0,5.0,1644597768.34375,P05,D07,0,0,0
191,26.0,-54.0,10.0,1644597768.375,P05,D07,0,0,0
192,14.0,-54.0,8.0,1644597768.40625,P05,D07,0,0,0
193,31.0,-59.0,21.0,1644597768.4375,P05,D07,0,0,0
194,42.0,-62.0,23.0,1644597768.46875,P05,D07,0,0,0
195,47.0,-61.0,20.0,1644597768.5,P05,D07,0,0,0
196,46.0,-58.0,20.0,1644597768.53125,P05,D07,0,0,0
197,41.0,-44.0,14.0,1644597768.5625,P05,D07,0,0,0
198,49.0,-40.0,12.0,1644597768.59375,P05,D07,0,0,0
199,53.0,-36.0,12.0,1644597768.625,P05,D07,0,0,0
200,56.0,-35.0,15.0,1644597768.65625,P05,D07,0,0,0
201,55.0,-37.0,9.0,1644597768.6875,P05,D07,0,0,0
202,48.0,-35.0,4.0,1644597768.71875,P05,D07,0,0,0
203,54.0,-30.0,6.0,1644597768.75,P05,D07,0,0,0
204,62.0,-32.0,6.0,1644597768.78125,P05,D07,0,0,0
205,63.0,-32.0,4.0,1644597768.8125,P05,D07,0,0,0
206,69.0,-31.0,7.0,1644597768.84375,P05,D07,0,0,0
207,68.0,-27.0,9.0,1644597768.875,P05,D07,0,0,0
208,62.0,-20.0,14.0,1644597768.90625,P05,D07,0,0,0
209,63.0,-18.0,17.0,1644597768.9375,P05,D07,0,0,0
210,65.0,-17.0,20.0,1644597768.96875,P05,D07,0,0,0
211,55.0,-17.0,25.0,1644597769.0,P05,D07,0,0,0
212,54.0,-11.0,29.0,1644597769.03125,P05,D07,0,0,0
213,47.0,-4.0,16.0,1644597769.0625,P05,D07,0,0,0
214,51.0,-4.0,14.0,1644597769.09375,P05,D07,0,0,0
215,49.0,5.0,10.0,1644597769.125,P05,D07,0,0,0
216,49.0,5.0,12.0,1644597769.15625,P05,D07,0,0,0
217,46.0,5.0,14.0,1644597769.1875,P05,D07,0,0,0
218,44.0,4.0,13.0,1644597769.21875,P05,D07,0,0,0
219,46.0,0.0,13.0,1644597769.25,P05,D07,0,0,0
220,55.0,-6.0,13.0,1644597769.28125,P05,D07,0,0,0
221,54.0,-9.0,11.0,1644597769.3125,P05,D07,0,0,0
222,58.0,-13.0,12.0,1644597769.34375,P05,D07,0,0,0
223,82.0,-25.0,19.0,1644597769.375,P05,D07,0,0,0
224,50.0,-31.0,16.0,1644597769.40625,P05,D07,0,0,0
225,41.0,-38.0,18.0,1644597769.4375,P05,D07,0,0,0
226,45.0,-50.0,30.0,1644597769.46875,P05,D07,0,0,0
227,52.0,-41.0,36.0,1644597769.5,P05,D07,0,0,0
228,55.0,-25.0,31.0,1644597769.53125,P05,D07,0,0,0
229,64.0,-21.0,26.0,1644597769.5625,P05,D07,0,0,0
230,62.0,-9.0,8.0,1644597769.59375,P05,D07,0,0,0
231,66.0,-9.0,-1.0,1644597769.625,P05,D07,0,0,0
232,71.0,-12.0,1.0,1644597769.65625,P05,D07,0,0,0
233,61.0,-15.0,5.0,1644597769.6875,P05,D07,0,0,0
234,61.0,-16.0,9.0,1644597769.71875,P05,D07,0,0,0
235,62.0,-16.0,12.0,1644597769.75,P05,D07,0,0,0
236,55.0,-18.0,18.0,1644597769.78125,P05,D07,0,0,0
237,48.0,-16.0,21.0,1644597769.8125,P05,D07,0,0,0
238,52.0,-15.0,20.0,1644597769.84375,P05,D07,0,0,0
239,61.0,-14.0,18.0,1644597769.875,P05,D07,0,0,0
240,61.0,-13.0,18.0,1644597769.90625,P05,D07,0,0,0
241,59.0,-13.0,17.0,1644597769.9375,P05,D07,0,0,0
242,57.0,-14.0,17.0,1644597769.96875,P05,D07,0,0,0
243,58.0,-15.0,17.0,1644597770.0,P05,D07,0,0,0
244,57.0,-16.0,18.0,1644597770.03125,P05,D07,0,0,0
245,56.0,-16.0,19.0,1644597770.0625,P05,D07,0,0,0
246,56.0,-16.0,19.0,1644597770.09375,P05,D07,0,0,0
247,57.0,-15.0,19.0,1644597770.125,P05,D07,0,0,0
248,57.0,-15.0,18.0,1644597770.15625,P05,D07,0,0,0
249,57.0,-15.0,18.0,1644597770.1875,P05,D07,0,0,0
250,58.0,-16.0,17.0,1644597770.21875,P05,D07,0,0,0
251,58.0,-16.0,17.0,1644597770.25,P05,D07,0,0,0
252,58.0,-17.0,17.0,1644597770.28125,P05,D07,0,0,0
253,57.0,-18.0,17.0,1644597770.3125,P05,D07,0,0,0
254,56.0,-20.0,17.0,1644597770.34375,P05,D07,0,0,0
255,56.0,-20.0,18.0,1644597770.375,P05,D07,0,0,0
256,57.0,-18.0,18.0,1644597770.40625,P05,D07,0,0,0
257,57.0,-17.0,18.0,1644597770.4375,P05,D07,0,0,0
258,58.0,-16.0,17.0,1644597770.46875,P05,D07,0,0,0
259,58.0,-15.0,17.0,1644597770.5,P05,D07,0,0,0
260,58.0,-15.0,16.0,1644597770.53125,P05,D07,0,0,0
261,58.0,-16.0,16.0,1644597770.5625,P05,D07,0,0,0
262,58.0,-16.0,16.0,1644597770.59375,P05,D07,0,0,0
263,58.0,-16.0,16.0,1644597770.625,P05,D07,0,0,0
264,58.0,-16.0,16.0,1644597770.65625,P05,D07,0,0,0
265,58.0,-16.0,17.0,1644597770.6875,P05,D07,0,0,0
266,58.0,-16.0,17.0,1644597770.71875,P05,D07,0,0,0
267,58.0,-16.0,17.0,1644597770.75,P05,D07,0,0,0
268,58.0,-16.0,17.0,1644597770.78125,P05,D07,0,0,0
269,58.0,-16.0,17.0,1644597770.8125,P05,D07,0,0,0
270,58.0,-16.0,17.0,1644597770.84375,P05,D07,0,0,0
271,58.0,-16.0,17.0,1644597770.875,P05,D07,0,0,0
272,58.0,-16.0,16.0,1644597770.90625,P05,D07,0,0,0
273,58.0,-16.0,16.0,1644597770.9375,P05,D07,0,0,0
274,58.0,-16.0,17.0,1644597770.96875,P05,D07,0,0,0
275,58.0,-16.0,16.0,1644597771.0,P05,D07,0,0,0
276,58.0,-16.0,16.0,1644597771.03125,P05,D07,0,0,0
277,58.0,-16.0,16.0,1644597771.0625,P05,D07,0,0,0
278,58.0,-16.0,16.0,1644597771.09375,P05,D07,0,0,0
279,58.0,-16.0,17.0,1644597771.125,P05,D07,0,0,0
280,58.0,-16.0,17.0,1644597771.15625,P05,D07,0,0,0
281,58.0,-16.0,17.0,1644597771.1875,P05,D07,0,0,0
282,58.0,-16.0,16.0,1644597771.21875,P05,D07,0,0,0
283,58.0,-16.0,17.0,1644597771.25,P05,D07,0,0,0
284,58.0,-16.0,17.0,1644597771.28125,P05,D07,0,0,0
285,58.0,-16.0,16.0,1644597771.3125,P05,D07,0,0,0
286,58.0,-16.0,17.0,1644597771.34375,P05,D07,0,0,0
287,58.0,-16.0,17.0,1644597771.375,P05,D07,0,0,0
288,58.0,-16.0,17.0,1644597771.40625,P05,D07,0,0,0
289,58.0,-16.0,16.0,1644597771.4375,P05,D07,0,0,0
290,58.0,-16.0,16.0,1644597771.46875,P05,D07,0,0,0
291,57.0,-16.0,16.0,1644597771.5,P05,D07,0,0,0
292,58.0,-16.0,16.0,1644597771.53125,P05,D07,0,0,0
293,58.0,-16.0,16.0,1644597771.5625,P05,D07,0,0,0
294,58.0,-16.0,17.0,1644597771.59375,P05,D07,0,0,0
295,58.0,-16.0,16.0,1644597771.625,P05,D07,0,0,0
296,58.0,-16.0,16.0,1644597771.65625,P05,D07,0,0,0
297,58.0,-16.0,16.0,1644597771.6875,P05,D07,0,0,0
298,58.0,-16.0,16.0,1644597771.71875,P05,D07,0,0,0
299,58.0,-16.0,16.0,1644597771.75,P05,D07,0,0,0
300,58.0,-16.0,16.0,1644597771.78125,P05,D07,0,0,0
301,58.0,-16.0,16.0,1644597771.8125,P05,D07,0,0,0
302,58.0,-16.0,16.0,1644597771.84375,P05,D07,0,0,0
303,58.0,-16.0,16.0,1644597771.875,P05,D07,0,0,0
304,58.0,-16.0,16.0,1644597771.90625,P05,D07,0,0,0
305,58.0,-16.0,16.0,1644597771.9375,P05,D07,0,0,0
306,57.0,-16.0,17.0,1644597771.96875,P05,D07,0,0,0
307,58.0,-16.0,17.0,1644597772.0,P05,D07,0,0,0
308,58.0,-16.0,16.0,1644597772.03125,P05,D07,0,0,0
309,58.0,-16.0,16.0,1644597772.0625,P05,D07,0,0,0
310,58.0,-16.0,16.0,1644597772.09375,P05,D07,0,0,0
311,58.0,-16.0,16.0,1644597772.125,P05,D07,0,0,0
312,58.0,-16.0,16.0,1644597772.15625,P05,D07,0,0,0
313,58.0,-16.0,16.0,1644597772.1875,P05,D07,0,0,0
314,57.0,-16.0,16.0,1644597772.21875,P05,D07,0,0,0
315,58.0,-16.0,16.0,1644597772.25,P05,D07,0,0,0
316,58.0,-16.0,16.0,1644597772.28125,P05,D07,0,0,0
317,58.0,-16.0,17.0,1644597772.3125,P05,D07,0,0,0
318,58.0,-16.0,17.0,1644597772.34375,P05,D07,0,0,0
319,58.0,-16.0,16.0,1644597772.375,P05,D07,0,0,0
320,58.0,-16.0,16.0,1644597772.40625,P05,D07,0,0,0
321,58.0,-16.0,16.0,1644597772.4375,P05,D07,0,0,0
322,58.0,-16.0,16.0,1644597772.46875,P05,D07,0,0,0
323,58.0,-16.0,16.0,1644597772.5,P05,D07,0,0,0
324,58.0,-16.0,16.0,1644597772.53125,P05,D07,0,0,0
325,58.0,-16.0,16.0,1644597772.5625,P05,D07,0,0,0
326,58.0,-16.0,16.0,1644597772.59375,P05,D07,0,0,0
327,58.0,-16.0,16.0,1644597772.625,P05,D07,0,0,0
328,58.0,-16.0,16.0,1644597772.65625,P05,D07,0,0,0
329,58.0,-16.0,16.0,1644597772.6875,P05,D07,0,0,0
330,58.0,-16.0,16.0,1644597772.71875,P05,D07,0,0,0
331,58.0,-16.0,16.0,1644597772.75,P05,D07,0,0,0
332,58.0,-16.0,16.0,1644597772.78125,P05,D07,0,0,0
333,58.0,-16.0,16.0,1644597772.8125,P05,D07,0,0,0
334,58.0,-16.0,16.0,1644597772.84375,P05,D07,0,0,0
335,58.0,-16.0,17.0,1644597772.875,P05,D07,0,0,0
336,58.0,-16.0,17.0,1644597772.90625,P05,D07,0,0,0
337,58.0,-16.0,16.0,1644597772.9375,P05,D07,0,0,0
338,58.0,-16.0,16.0,1644597772.96875,P05,D07,0,0,0
339,58.0,-16.0,16.0,1644597773.0,P05,D07,0,0,0
340,58.0,-16.0,17.0,1644597773.03125,P05,D07,0,0,0
341,58.0,-16.0,16.0,1644597773.0625,P05,D07,0,0,0
342,58.0,-16.0,16.0,1644597773.09375,P05,D07,0,0,0
343,58.0,-16.0,16.0,1644597773.125,P05,D07,0,0,0
344,58.0,-16.0,17.0,1644597773.15625,P05,D07,0,0,0
345,58.0,-16.0,17.0,1644597773.1875,P05,D07,0,0,0
346,58.0,-16.0,16.0,1644597773.21875,P05,D07,0,0,0
347,58.0,-16.0,16.0,1644597773.25,P05,D07,0,0,0
348,58.0,-16.0,16.0,1644597773.28125,P05,D07,0,0,0
349,58.0,-16.0,16.0,1644597773.3125,P05,D07,0,0,0
350,58.0,-16.0,16.0,1644597773.34375,P05,D07,0,0,0
351,58.0,-16.0,17.0,1644597773.375,P05,D07,0,0,0
352,58.0,-16.0,17.0,1644597773.40625,P05,D07,0,0,0
353,58.0,-16.0,17.0,1644597773.4375,P05,D07,0,0,0
354,58.0,-16.0,17.0,1644597773.46875,P05,D07,0,0,0
355,58.0,-16.0,17.0,1644597773.5,P05,D07,0,0,0
356,58.0,-16.0,17.0,1644597773.53125,P05,D07,0,0,0
357,58.0,-16.0,17.0,1644597773.5625,P05,D07,0,0,0
358,58.0,-16.0,17.0,1644597773.59375,P05,D07,0,0,0
359,58.0,-16.0,17.0,1644597773.625,P05,D07,0,0,0
360,58.0,-16.0,17.0,1644597773.65625,P05,D07,0,0,0
361,58.0,-16.0,17.0,1644597773.6875,P05,D07,0,0,0
362,58.0,-16.0,17.0,1644597773.71875,P05,D07,0,0,0
363,58.0,-16.0,17.0,1644597773.75,P05,D07,0,0,0
364,58.0,-16.0,16.0,1644597773.78125,P05,D07,0,0,0
365,58.0,-16.0,17.0,1644597773.8125,P05,D07,0,0,0
366,58.0,-16.0,17.0,1644597773.84375,P05,D07,0,0,0
367,58.0,-16.0,17.0,1644597773.875,P05,D07,0,0,0
368,58.0,-16.0,17.0,1644597773.90625,P05,D07,0,0,0
369,58.0,-16.0,17.0,1644597773.9375,P05,D07,0,0,0
370,58.0,-16.0,17.0,1644597773.96875,P05,D07,0,0,0
371,58.0,-16.0,17.0,1644597774.0,P05,D07,0,0,0
372,58.0,-16.0,17.0,1644597774.03125,P05,D07,0,0,0
373,58.0,-16.0,17.0,1644597774.0625,P05,D07,0,0,0
374,58.0,-16.0,17.0,1644597774.09375,P05,D07,0,0,0
375,58.0,-16.0,17.0,1644597774.125,P05,D07,0,0,0
376,58.0,-16.0,17.0,1644597774.15625,P05,D07,0,0,0
377,58.0,-16.0,17.0,1644597774.1875,P05,D07,0,0,0
378,58.0,-16.0,17.0,1644597774.21875,P05,D07,0,0,0
379,58.0,-16.0,17.0,1644597774.25,P05,D07,0,0,0
380,58.0,-16.0,17.0,1644597774.28125,P05,D07,0,0,0
381,57.0,-16.0,17.0,1644597774.3125,P05,D07,0,0,0
382,58.0,-16.0,17.0,1644597774.34375,P05,D07,0,0,0
383,58.0,-16.0,17.0,1644597774.375,P05,D07,0,0,0
384,58.0,-16.0,17.0,1644597774.40625,P05,D07,0,0,0
385,58.0,-16.0,17.0,1644597774.4375,P05,D07,0,0,0
386,58.0,-16.0,17.0,1644597774.46875,P05,D07,0,0,0
387,58.0,-16.0,17.0,1644597774.5,P05,D07,0,0,0
388,58.0,-16.0,17.0,1644597774.53125,P05,D07,0,0,0
389,58.0,-16.0,17.0,1644597774.5625,P05,D07,0,0,0
390,58.0,-16.0,16.0,1644597774.59375,P05,D07,0,0,0
391,58.0,-16.0,17.0,1644597774.625,P05,D07,0,0,0
392,58.0,-16.0,16.0,1644597774.65625,P05,D07,0,0,0
393,58.0,-16.0,16.0,1644597774.6875,P05,D07,0,0,0
394,58.0,-16.0,17.0,1644597774.71875,P05,D07,0,0,0
395,58.0,-16.0,17.0,1644597774.75,P05,D07,0,0,0
396,58.0,-16.0,17.0,1644597774.78125,P05,D07,0,0,0
397,58.0,-16.0,17.0,1644597774.8125,P05,D07,0,0,0
398,58.0,-16.0,16.0,1644597774.84375,P05,D07,0,0,0
399,58.0,-16.0,16.0,1644597774.875,P05,D07,0,0,0
400,58.0,-16.0,17.0,1644597774.90625,P05,D07,0,0,0
401,58.0,-16.0,16.0,1644597774.9375,P05,D07,0,0,0
402,58.0,-16.0,16.0,1644597774.96875,P05,D07,0,0,0
403,58.0,-16.0,17.0,1644597775.0,P05,D07,0,0,0
404,58.0,-16.0,16.0,1644597775.03125,P05,D07,0,0,0
405,57.0,-16.0,17.0,1644597775.0625,P05,D07,0,0,0
406,58.0,-16.0,16.0,1644597775.09375,P05,D07,0,0,0
407,58.0,-16.0,17.0,1644597775.125,P05,D07,0,0,0
408,58.0,-16.0,16.0,1644597775.15625,P05,D07,0,0,0
409,58.0,-16.0,16.0,1644597775.1875,P05,D07,0,0,0
410,58.0,-16.0,16.0,1644597775.21875,P05,D07,0,0,0
411,58.0,-16.0,17.0,1644597775.25,P05,D07,0,0,0
412,58.0,-16.0,16.0,1644597775.28125,P05,D07,0,0,0
413,58.0,-16.0,16.0,1644597775.3125,P05,D07,0,0,0
414,58.0,-16.0,16.0,1644597775.34375,P05,D07,0,0,0
415,58.0,-16.0,16.0,1644597775.375,P05,D07,0,0,0
416,58.0,-16.0,16.0,1644597775.40625,P05,D07,0,0,0
417,58.0,-16.0,16.0,1644597775.4375,P05,D07,0,0,0
418,58.0,-16.0,16.0,1644597775.46875,P05,D07,0,0,0
419,58.0,-16.0,16.0,1644597775.5,P05,D07,0,0,0
420,58.0,-16.0,16.0,1644597775.53125,P05,D07,0,0,0
421,58.0,-16.0,17.0,1644597775.5625,P05,D07,0,0,0
422,58.0,-16.0,16.0,1644597775.59375,P05,D07,0,0,0
423,58.0,-16.0,16.0,1644597775.625,P05,D07,0,0,0
424,58.0,-16.0,16.0,1644597775.65625,P05,D07,0,0,0
425,58.0,-16.0,16.0,1644597775.6875,P05,D07,0,0,0
426,58.0,-16.0,16.0,1644597775.71875,P05,D07,0,0,0
427,58.0,-16.0,16.0,1644597775.75,P05,D07,0,0,0
428,58.0,-16.0,16.0,1644597775.78125,P05,D07,0,0,0
429,58.0,-16.0,16.0,1644597775.8125,P05,D07,0,0,0
430,58.0,-16.0,16.0,1644597775.84375,P05,D07,0,0,0
431,58.0,-16.0,16.0,1644597775.875,P05,D07,0,0,0
432,58.0,-16.0,16.0,1644597775.90625,P05,D07,0,0,0
433,58.0,-16.0,16.0,1644597775.9375,P05,D07,0,0,0
434,58.0,-16.0,16.0,1644597775.96875,P05,D07,0,0,0
435,58.0,-16.0,16.0,1644597776.0,P05,D07,0,0,0
436,58.0,-16.0,16.0,1644597776.03125,P05,D07,0,0,0
437,58.0,-16.0,16.0,1644597776.0625,P05,D07,0,0,0
438,58.0,-16.0,16.0,1644597776.09375,P05,D07,0,0,0
439,58.0,-16.0,16.0,1644597776.125,P05,D07,0,0,0
440,58.0,-16.0,16.0,1644597776.15625,P05,D07,0,0,0
441,58.0,-16.0,16.0,1644597776.1875,P05,D07,0,0,0
442,58.0,-16.0,16.0,1644597776.21875,P05,D07,0,0,0
443,58.0,-16.0,16.0,1644597776.25,P05,D07,0,0,0
444,58.0,-16.0,16.0,1644597776.28125,P05,D07,0,0,0
445,58.0,-16.0,16.0,1644597776.3125,P05,D07,0,0,0
446,58.0,-16.0,16.0,1644597776.34375,P05,D07,0,0,0
447,58.0,-16.0,16.0,1644597776.375,P05,D07,0,0,0
448,58.0,-16.0,17.0,1644597776.40625,P05,D07,0,0,0
449,58.0,-16.0,16.0,1644597776.4375,P05,D07,0,0,0
450,58.0,-16.0,16.0,1644597776.46875,P05,D07,0,0,0
451,58.0,-16.0,16.0,1644597776.5,P05,D07,0,0,0
452,58.0,-16.0,16.0,1644597776.53125,P05,D07,0,0,0
453,58.0,-16.0,16.0,1644597776.5625,P05,D07,0,0,0
454,58.0,-16.0,16.0,1644597776.59375,P05,D07,0,0,0
455,58.0,-16.0,17.0,1644597776.625,P05,D07,0,0,0
456,58.0,-16.0,16.0,1644597776.65625,P05,D07,0,0,0
457,58.0,-16.0,17.0,1644597776.6875,P05,D07,0,0,0
458,58.0,-16.0,16.0,1644597776.71875,P05,D07,0,0,0
459,58.0,-16.0,16.0,1644597776.75,P05,D07,0,0,0
460,58.0,-16.0,16.0,1644597776.78125,P05,D07,0,0,0
461,58.0,-16.0,16.0,1644597776.8125,P05,D07,0,0,0
462,58.0,-16.0,17.0,1644597776.84375,P05,D07,0,0,0
463,58.0,-16.0,16.0,1644597776.875,P05,D07,0,0,0
464,58.0,-16.0,17.0,1644597776.90625,P05,D07,0,0,0
465,58.0,-16.0,16.0,1644597776.9375,P05,D07,0,0,0
466,58.0,-16.0,16.0,1644597776.96875,P05,D07,0,0,0
467,58.0,-16.0,17.0,1644597777.0,P05,D07,0,0,0
468,58.0,-16.0,16.0,1644597777.03125,P05,D07,0,0,0
469,58.0,-16.0,16.0,1644597777.0625,P05,D07,0,0,0
470,58.0,-16.0,16.0,1644597777.09375,P05,D07,0,0,0
471,58.0,-16.0,16.0,1644597777.125,P05,D07,0,0,0
472,58.0,-16.0,16.0,1644597777.15625,P05,D07,0,0,0
473,58.0,-16.0,16.0,1644597777.1875,P05,D07,0,0,0
474,58.0,-16.0,16.0,1644597777.21875,P05,D07,0,0,0
475,58.0,-16.0,17.0,1644597777.25,P05,D07,0,0,0
476,58.0,-16.0,16.0,1644597777.28125,P05,D07,0,0,0
477,58.0,-16.0,16.0,1644597777.3125,P05,D07,0,0,0
478,58.0,-16.0,16.0,1644597777.34375,P05,D07,0,0,0
479,58.0,-16.0,16.0,1644597777.375,P05,D07,0,0,0
480,58.0,-16.0,16.0,1644597777.40625,P05,D07,0,0,0
481,58.0,-16.0,16.0,1644597777.4375,P05,D07,0,0,0
482,58.0,-16.0,16.0,1644597777.46875,P05,D07,0,0,0
483,58.0,-16.0,16.0,1644597777.5,P05,D07,0,0,0
484,58.0,-16.0,16.0,1644597777.53125,P05,D07,0,0,0
485,58.0,-16.0,17.0,1644597777.5625,P05,D07,0,0,0
486,58.0,-16.0,16.0,1644597777.59375,P05,D07,0,0,0
487,58.0,-16.0,16.0,1644597777.625,P05,D07,0,0,0
488,58.0,-16.0,16.0,1644597777.65625,P05,D07,0,0,0
489,58.0,-16.0,16.0,1644597777.6875,P05,D07,0,0,0
490,58.0,-16.0,17.0,1644597777.71875,P05,D07,0,0,0
491,58.0,-16.0,16.0,1644597777.75,P05,D07,0,0,0
492,58.0,-16.0,16.0,1644597777.78125,P05,D07,0,0,0
493,58.0,-16.0,16.0,1644597777.8125,P05,D07,0,0,0
494,58.0,-16.0,16.0,1644597777.84375,P05,D07,0,0,0
495,58.0,-16.0,16.0,1644597777.875,P05,D07,0,0,0
496,58.0,-16.0,16.0,1644597777.90625,P05,D07,0,0,0
497,58.0,-16.0,17.0,1644597777.9375,P05,D07,0,0,0
498,58.0,-16.0,17.0,1644597777.96875,P05,D07,0,0,0
499,58.0,-16.0,16.0,1644597778.0,P05,D07,0,0,0
500,58.0,-16.0,16.0,1644597778.03125,P05,D07,0,0,0
501,58.0,-17.0,16.0,1644597778.0625,P05,D07,0,0,0
502,58.0,-16.0,16.0,1644597778.09375,P05,D07,0,0,0
503,58.0,-16.0,16.0,1644597778.125,P05,D07,0,0,0
504,58.0,-16.0,16.0,1644597778.15625,P05,D07,0,0,0
505,58.0,-16.0,16.0,1644597778.1875,P05,D07,0,0,0
506,58.0,-16.0,16.0,1644597778.21875,P05,D07,0,0,0
507,58.0,-16.0,16.0,1644597778.25,P05,D07,0,0,0
508,58.0,-16.0,16.0,1644597778.28125,P05,D07,0,0,0
509,58.0,-16.0,16.0,1644597778.3125,P05,D07,0,0,0
510,58.0,-16.0,16.0,1644597778.34375,P05,D07,0,0,0
511,58.0,-16.0,16.0,1644597778.375,P05,D07,0,0,0
512,58.0,-16.0,16.0,1644597778.40625,P05,D07,0,0,0
513,58.0,-16.0,16.0,1644597778.4375,P05,D07,0,0,0
514,58.0,-17.0,16.0,1644597778.46875,P05,D07,0,0,0
515,58.0,-16.0,16.0,1644597778.5,P05,D07,0,0,0
516,58.0,-16.0,16.0,1644597778.53125,P05,D07,0,0,0
517,58.0,-16.0,16.0,1644597778.5625,P05,D07,0,0,0
518,58.0,-16.0,16.0,1644597778.59375,P05,D07,0,0,0
519,58.0,-16.0,16.0,1644597778.625,P05,D07,0,0,0
520,58.0,-16.0,16.0,1644597778.65625,P05,D07,0,0,0
521,58.0,-16.0,16.0,1644597778.6875,P05,D07,0,0,0
522,58.0,-16.0,16.0,1644597778.71875,P05,D07,0,0,0
523,58.0,-16.0,16.0,1644597778.75,P05,D07,0,0,0
524,58.0,-16.0,16.0,1644597778.78125,P05,D07,0,0,0
525,58.0,-16.0,16.0,1644597778.8125,P05,D07,0,0,0
526,58.0,-16.0,16.0,1644597778.84375,P05,D07,0,0,0
527,58.0,-16.0,16.0,1644597778.875,P05,D07,0,0,0
528,58.0,-16.0,16.0,1644597778.90625,P05,D07,0,0,0
529,58.0,-16.0,16.0,1644597778.9375,P05,D07,0,0,0
530,58.0,-16.0,16.0,1644597778.96875,P05,D07,0,0,0
531,58.0,-16.0,16.0,1644597779.0,P05,D07,0,0,0
532,58.0,-16.0,16.0,1644597779.03125,P05,D07,0,0,0
533,58.0,-16.0,16.0,1644597779.0625,P05,D07,0,0,0
534,58.0,-16.0,16.0,1644597779.09375,P05,D07,0,0,0
535,58.0,-16.0,16.0,1644597779.125,P05,D07,0,0,0
536,58.0,-16.0,16.0,1644597779.15625,P05,D07,0,0,0
537,58.0,-16.0,16.0,1644597779.1875,P05,D07,0,0,0
538,58.0,-16.0,16.0,1644597779.21875,P05,D07,0,0,0
539,58.0,-16.0,16.0,1644597779.25,P05,D07,0,0,0
540,58.0,-16.0,16.0,1644597779.28125,P05,D07,0,0,0
541,58.0,-16.0,16.0,1644597779.3125,P05,D07,0,0,0
542,58.0,-16.0,16.0,1644597779.34375,P05,D07,0,0,0
543,58.0,-16.0,16.0,1644597779.375,P05,D07,0,0,0
544,58.0,-16.0,16.0,1644597779.40625,P05,D07,0,0,0
545,58.0,-16.0,16.0,1644597779.4375,P05,D07,0,0,0
546,58.0,-16.0,16.0,1644597779.46875,P05,D07,0,0,0
547,58.0,-16.0,16.0,1644597779.5,P05,D07,0,0,0
548,58.0,-16.0,16.0,1644597779.53125,P05,D07,0,0,0
549,58.0,-16.0,16.0,1644597779.5625,P05,D07,0,0,0
550,58.0,-16.0,16.0,1644597779.59375,P05,D07,0,0,0
551,58.0,-16.0,16.0,1644597779.625,P05,D07,0,0,0
552,58.0,-16.0,16.0,1644597779.65625,P05,D07,0,0,0
553,58.0,-16.0,16.0,1644597779.6875,P05,D07,0,0,0
554,58.0,-16.0,16.0,1644597779.71875,P05,D07,0,0,0
555,58.0,-16.0,17.0,1644597779.75,P05,D07,0,0,0
556,58.0,-16.0,16.0,1644597779.78125,P05,D07,0,0,0
557,58.0,-16.0,16.0,1644597779.8125,P05,D07,0,0,0
558,58.0,-16.0,16.0,1644597779.84375,P05,D07,0,0,0
559,58.0,-16.0,16.0,1644597779.875,P05,D07,0,0,0
560,58.0,-16.0,16.0,1644597779.90625,P05,D07,0,0,0
561,58.0,-16.0,17.0,1644597779.9375,P05,D07,0,0,0
562,58.0,-16.0,16.0,1644597779.96875,P05,D07,0,0,0
563,58.0,-16.0,16.0,1644597780.0,P05,D07,0,0,0
564,58.0,-16.0,16.0,1644597780.03125,P05,D07,0,0,0
565,58.0,-16.0,16.0,1644597780.0625,P05,D07,0,0,0
566,58.0,-16.0,16.0,1644597780.09375,P05,D07,0,0,0
567,58.0,-16.0,16.0,1644597780.125,P05,D07,0,0,0
568,58.0,-16.0,16.0,1644597780.15625,P05,D07,0,0,0
569,58.0,-16.0,16.0,1644597780.1875,P05,D07,0,0,0
570,58.0,-16.0,16.0,1644597780.21875,P05,D07,0,0,0
571,58.0,-16.0,16.0,1644597780.25,P05,D07,0,0,0
572,58.0,-16.0,16.0,1644597780.28125,P05,D07,0,0,0
573,58.0,-16.0,16.0,1644597780.3125,P05,D07,0,0,0
574,58.0,-16.0,16.0,1644597780.34375,P05,D07,0,0,0
575,58.0,-16.0,16.0,1644597780.375,P05,D07,0,0,0
576,58.0,-16.0,16.0,1644597780.40625,P05,D07,0,0,0
577,58.0,-16.0,16.0,1644597780.4375,P05,D07,0,0,0
578,58.0,-16.0,16.0,1644597780.46875,P05,D07,0,0,0
579,58.0,-16.0,16.0,1644597780.5,P05,D07,0,0,0
580,58.0,-16.0,16.0,1644597780.53125,P05,D07,0,0,0
581,58.0,-16.0,16.0,1644597780.5625,P05,D07,0,0,0
582,58.0,-16.0,16.0,1644597780.59375,P05,D07,0,0,0
583,58.0,-16.0,16.0,1644597780.625,P05,D07,0,0,0
584,58.0,-16.0,16.0,1644597780.65625,P05,D07,0,0,0
585,58.0,-16.0,16.0,1644597780.6875,P05,D07,0,0,0
586,58.0,-16.0,16.0,1644597780.71875,P05,D07,0,0,0
587,58.0,-16.0,16.0,1644597780.75,P05,D07,0,0,0
588,58.0,-16.0,16.0,1644597780.78125,P05,D07,0,0,0
589,58.0,-16.0,16.0,1644597780.8125,P05,D07,0,0,0
590,58.0,-16.0,16.0,1644597780.84375,P05,D07,0,0,0
591,58.0,-16.0,16.0,1644597780.875,P05,D07,0,0,0
592,58.0,-16.0,16.0,1644597780.90625,P05,D07,0,0,0
593,58.0,-16.0,16.0,1644597780.9375,P05,D07,0,0,0
594,58.0,-16.0,16.0,1644597780.96875,P05,D07,0,0,0
595,58.0,-16.0,16.0,1644597781.0,P05,D07,0,0,0
596,58.0,-16.0,16.0,1644597781.03125,P05,D07,0,0,0
597,58.0,-16.0,16.0,1644597781.0625,P05,D07,0,0,0
598,58.0,-16.0,16.0,1644597781.09375,P05,D07,0,0,0
599,58.0,-16.0,16.0,1644597781.125,P05,D07,0,0,0
600,58.0,-16.0,16.0,1644597781.15625,P05,D07,0,0,0
601,58.0,-16.0,16.0,1644597781.1875,P05,D07,0,0,0
602,58.0,-16.0,16.0,1644597781.21875,P05,D07,0,0,0
603,58.0,-16.0,16.0,1644597781.25,P05,D07,0,0,0
604,58.0,-16.0,16.0,1644597781.28125,P05,D07,0,0,0
605,58.0,-16.0,16.0,1644597781.3125,P05,D07,0,0,0
606,58.0,-16.0,16.0,1644597781.34375,P05,D07,0,0,0
607,58.0,-16.0,16.0,1644597781.375,P05,D07,0,0,0
608,58.0,-16.0,16.0,1644597781.40625,P05,D07,0,0,0
609,58.0,-16.0,16.0,1644597781.4375,P05,D07,0,0,0
610,58.0,-16.0,16.0,1644597781.46875,P05,D07,0,0,0
611,58.0,-16.0,16.0,1644597781.5,P05,D07,0,0,0
612,58.0,-16.0,16.0,1644597781.53125,P05,D07,0,0,0
613,58.0,-16.0,16.0,1644597781.5625,P05,D07,0,0,0
614,58.0,-16.0,16.0,1644597781.59375,P05,D07,0,0,0
615,58.0,-16.0,16.0,1644597781.625,P05,D07,0,0,0
616,58.0,-16.0,16.0,1644597781.65625,P05,D07,0,0,0
617,58.0,-16.0,16.0,1644597781.6875,P05,D07,0,0,0
618,58.0,-16.0,16.0,1644597781.71875,P05,D07,0,0,0
619,58.0,-16.0,16.0,1644597781.75,P05,D07,0,0,0
620,58.0,-16.0,16.0,1644597781.78125,P05,D07,0,0,0
621,58.0,-16.0,16.0,1644597781.8125,P05,D07,0,0,0
622,58.0,-16.0,16.0,1644597781.84375,P05,D07,0,0,0
623,58.0,-16.0,16.0,1644597781.875,P05,D07,0,0,0
624,58.0,-16.0,16.0,1644597781.90625,P05,D07,0,0,0
625,58.0,-16.0,16.0,1644597781.9375,P05,D07,0,0,0
626,58.0,-16.0,16.0,1644597781.96875,P05,D07,0,0,0
627,58.0,-16.0,16.0,1644597782.0,P05,D07,0,0,0
628,58.0,-16.0,16.0,1644597782.03125,P05,D07,0,0,0
629,58.0,-16.0,16.0,1644597782.0625,P05,D07,0,0,0
630,58.0,-16.0,16.0,1644597782.09375,P05,D07,0,0,0
631,58.0,-16.0,16.0,1644597782.125,P05,D07,0,0,0
632,58.0,-16.0,16.0,1644597782.15625,P05,D07,0,0,0
633,58.0,-16.0,16.0,1644597782.1875,P05,D07,0,0,0
634,58.0,-16.0,16.0,1644597782.21875,P05,D07,0,0,0
635,58.0,-16.0,16.0,1644597782.25,P05,D07,0,0,0
636,58.0,-16.0,16.0,1644597782.28125,P05,D07,0,0,0
637,58.0,-16.0,16.0,1644597782.3125,P05,D07,0,0,0
638,58.0,-16.0,16.0,1644597782.34375,P05,D07,0,0,0
639,58.0,-16.0,16.0,1644597782.375,P05,D07,0,0,0
640,58.0,-16.0,16.0,1644597782.40625,P05,D07,0,0,0
641,58.0,-16.0,16.0,1644597782.4375,P05,D07,0,0,0
642,58.0,-16.0,16.0,1644597782.46875,P05,D07,0,0,0
643,58.0,-16.0,16.0,1644597782.5,P05,D07,0,0,0
644,58.0,-16.0,16.0,1644597782.53125,P05,D07,0,0,0
645,58.0,-16.0,16.0,1644597782.5625,P05,D07,0,0,0
646,58.0,-16.0,16.0,1644597782.59375,P05,D07,0,0,0
647,58.0,-16.0,16.0,1644597782.625,P05,D07,0,0,0
648,58.0,-16.0,16.0,1644597782.65625,P05,D07,0,0,0
649,58.0,-16.0,16.0,1644597782.6875,P05,D07,0,0,0
650,58.0,-16.0,16.0,1644597782.71875,P05,D07,0,0,0
651,58.0,-16.0,16.0,1644597782.75,P05,D07,0,0,0
652,58.0,-16.0,16.0,1644597782.78125,P05,D07,0,0,0
653,58.0,-16.0,16.0,1644597782.8125,P05,D07,0,0,0
654,58.0,-16.0,16.0,1644597782.84375,P05,D07,0,0,0
655,58.0,-16.0,16.0,1644597782.875,P05,D07,0,0,0
656,58.0,-16.0,16.0,1644597782.90625,P05,D07,0,0,0
657,58.0,-16.0,16.0,1644597782.9375,P05,D07,0,0,0
658,58.0,-16.0,16.0,1644597782.96875,P05,D07,0,0,0
659,58.0,-16.0,16.0,1644597783.0,P05,D07,0,0,0
660,58.0,-16.0,16.0,1644597783.03125,P05,D07,0,0,0
661,58.0,-16.0,16.0,1644597783.0625,P05,D07,0,0,0
662,58.0,-16.0,16.0,1644597783.09375,P05,D07,0,0,0
663,58.0,-16.0,16.0,1644597783.125,P05,D07,0,0,0
664,58.0,-16.0,16.0,1644597783.15625,P05,D07,0,0,0
665,58.0,-16.0,16.0,1644597783.1875,P05,D07,0,0,0
666,58.0,-16.0,16.0,1644597783.21875,P05,D07,0,0,0
667,58.0,-16.0,16.0,1644597783.25,P05,D07,0,0,0
668,58.0,-16.0,16.0,1644597783.28125,P05,D07,0,0,0
669,58.0,-16.0,16.0,1644597783.3125,P05,D07,0,0,0
670,58.0,-16.0,16.0,1644597783.34375,P05,D07,0,0,0
671,58.0,-16.0,16.0,1644597783.375,P05,D07,0,0,0
672,58.0,-16.0,16.0,1644597783.40625,P05,D07,0,0,0
673,58.0,-16.0,16.0,1644597783.4375,P05,D07,0,0,0
674,58.0,-16.0,16.0,1644597783.46875,P05,D07,0,0,0
675,58.0,-16.0,16.0,1644597783.5,P05,D07,0,0,0
676,58.0,-16.0,16.0,1644597783.53125,P05,D07,0,0,0
677,58.0,-16.0,16.0,1644597783.5625,P05,D07,0,0,0
678,58.0,-16.0,16.0,1644597783.59375,P05,D07,0,0,0
679,58.0,-16.0,16.0,1644597783.625,P05,D07,0,0,0
680,58.0,-16.0,16.0,1644597783.65625,P05,D07,0,0,0
681,58.0,-16.0,16.0,1644597783.6875,P05,D07,0,0,0
682,58.0,-16.0,16.0,1644597783.71875,P05,D07,0,0,0
683,58.0,-16.0,16.0,1644597783.75,P05,D07,0,0,0
684,58.0,-16.0,16.0,1644597783.78125,P05,D07,0,0,0
685,58.0,-16.0,16.0,1644597783.8125,P05,D07,0,0,0
686,58.0,-16.0,16.0,1644597783.84375,P05,D07,0,0,0
687,58.0,-16.0,16.0,1644597783.875,P05,D07,0,0,0
688,58.0,-16.0,16.0,1644597783.90625,P05,D07,0,0,0
689,58.0,-16.0,16.0,1644597783.9375,P05,D07,0,0,0
690,58.0,-16.0,16.0,1644597783.96875,P05,D07,0,0,0
691,58.0,-16.0,16.0,1644597784.0,P05,D07,0,0,0
692,58.0,-16.0,16.0,1644597784.03125,P05,D07,0,0,0
693,58.0,-16.0,16.0,1644597784.0625,P05,D07,0,0,0
694,58.0,-16.0,16.0,1644597784.09375,P05,D07,0,0,0
695,58.0,-16.0,16.0,1644597784.125,P05,D07,0,0,0
696,58.0,-16.0,16.0,1644597784.15625,P05,D07,0,0,0
697,58.0,-16.0,16.0,1644597784.1875,P05,D07,0,0,0
698,58.0,-16.0,16.0,1644597784.21875,P05,D07,0,0,0
699,58.0,-16.0,16.0,1644597784.25,P05,D07,0,0,0
700,58.0,-16.0,16.0,1644597784.28125,P05,D07,0,0,0
701,58.0,-16.0,16.0,1644597784.3125,P05,D07,0,0,0
702,58.0,-16.0,16.0,1644597784.34375,P05,D07,0,0,0
703,58.0,-16.0,16.0,1644597784.375,P05,D07,0,0,0
704,58.0,-16.0,16.0,1644597784.40625,P05,D07,0,0,0
705,58.0,-16.0,16.0,1644597784.4375,P05,D07,0,0,0
706,58.0,-16.0,16.0,1644597784.46875,P05,D07,0,0,0
707,58.0,-16.0,16.0,1644597784.5,P05,D07,0,0,0
708,58.0,-16.0,16.0,1644597784.53125,P05,D07,0,0,0
709,58.0,-16.0,16.0,1644597784.5625,P05,D07,0,0,0
710,58.0,-16.0,16.0,1644597784.59375,P05,D07,0,0,0
711,58.0,-17.0,16.0,1644597784.625,P05,D07,0,0,0
712,58.0,-17.0,16.0,1644597784.65625,P05,D07,0,0,0
713,58.0,-16.0,16.0,1644597784.6875,P05,D07,0,0,0
714,58.0,-16.0,16.0,1644597784.71875,P05,D07,0,0,0
715,58.0,-16.0,16.0,1644597784.75,P05,D07,0,0,0
716,58.0,-16.0,16.0,1644597784.78125,P05,D07,0,0,0
717,58.0,-16.0,16.0,1644597784.8125,P05,D07,0,0,0
718,58.0,-16.0,16.0,1644597784.84375,P05,D07,0,0,0
719,58.0,-17.0,16.0,1644597784.875,P05,D07,0,0,0
720,58.0,-17.0,16.0,1644597784.90625,P05,D07,0,0,0
721,58.0,-16.0,16.0,1644597784.9375,P05,D07,0,0,0
722,58.0,-16.0,16.0,1644597784.96875,P05,D07,0,0,0
723,58.0,-16.0,16.0,1644597785.0,P05,D07,0,0,0
724,58.0,-16.0,16.0,1644597785.03125,P05,D07,0,0,0
725,58.0,-16.0,16.0,1644597785.0625,P05,D07,0,0,0
726,58.0,-16.0,16.0,1644597785.09375,P05,D07,0,0,0
727,58.0,-16.0,16.0,1644597785.125,P05,D07,0,0,0
728,58.0,-16.0,16.0,1644597785.15625,P05,D07,0,0,0
729,58.0,-16.0,16.0,1644597785.1875,P05,D07,0,0,0
730,58.0,-16.0,16.0,1644597785.21875,P05,D07,0,0,0
731,58.0,-16.0,16.0,1644597785.25,P05,D07,0,0,0
732,58.0,-16.0,16.0,1644597785.28125,P05,D07,0,0,0
733,58.0,-16.0,16.0,1644597785.3125,P05,D07,0,0,0
734,58.0,-16.0,16.0,1644597785.34375,P05,D07,0,0,0
735,58.0,-16.0,16.0,1644597785.375,P05,D07,0,0,0
736,58.0,-16.0,16.0,1644597785.40625,P05,D07,0,0,0
737,58.0,-16.0,16.0,1644597785.4375,P05,D07,0,0,0
738,58.0,-16.0,16.0,1644597785.46875,P05,D07,0,0,0
739,58.0,-16.0,16.0,1644597785.5,P05,D07,0,0,0
740,58.0,-16.0,16.0,1644597785.53125,P05,D07,0,0,0
741,58.0,-16.0,16.0,1644597785.5625,P05,D07,0,0,0
742,58.0,-16.0,16.0,1644597785.59375,P05,D07,0,0,0
743,58.0,-16.0,16.0,1644597785.625,P05,D07,0,0,0
744,58.0,-16.0,16.0,1644597785.65625,P05,D07,0,0,0
745,58.0,-16.0,16.0,1644597785.6875,P05,D07,0,0,0
746,58.0,-16.0,16.0,1644597785.71875,P05,D07,0,0,0
747,58.0,-16.0,16.0,1644597785.75,P05,D07,0,0,0
748,58.0,-16.0,16.0,1644597785.78125,P05,D07,0,0,0
749,58.0,-16.0,16.0,1644597785.8125,P05,D07,0,0,0
750,58.0,-16.0,16.0,1644597785.84375,P05,D07,0,0,0
751,58.0,-16.0,16.0,1644597785.875,P05,D07,0,0,0
752,58.0,-16.0,16.0,1644597785.90625,P05,D07,0,0,0
753,58.0,-16.0,16.0,1644597785.9375,P05,D07,0,0,0
754,58.0,-16.0,16.0,1644597785.96875,P05,D07,0,0,0
755,58.0,-16.0,16.0,1644597786.0,P05,D07,0,0,0
756,58.0,-16.0,16.0,1644597786.03125,P05,D07,0,0,0
757,58.0,-16.0,16.0,1644597786.0625,P05,D07,0,0,0
758,58.0,-16.0,16.0,1644597786.09375,P05,D07,0,0,0
759,58.0,-16.0,16.0,1644597786.125,P05,D07,0,0,0
760,58.0,-16.0,16.0,1644597786.15625,P05,D07,0,0,0
761,58.0,-16.0,16.0,1644597786.1875,P05,D07,0,0,0
762,58.0,-16.0,16.0,1644597786.21875,P05,D07,0,0,0
763,58.0,-16.0,16.0,1644597786.25,P05,D07,0,0,0
764,58.0,-16.0,16.0,1644597786.28125,P05,D07,0,0,0
765,58.0,-16.0,16.0,1644597786.3125,P05,D07,0,0,0
766,58.0,-16.0,16.0,1644597786.34375,P05,D07,0,0,0
767,58.0,-16.0,16.0,1644597786.375,P05,D07,0,0,0
768,58.0,-16.0,16.0,1644597786.40625,P05,D07,0,0,0
769,58.0,-16.0,16.0,1644597786.4375,P05,D07,0,0,0
770,58.0,-16.0,16.0,1644597786.46875,P05,D07,0,0,0
771,58.0,-16.0,16.0,1644597786.5,P05,D07,0,0,0
772,58.0,-16.0,16.0,1644597786.53125,P05,D07,0,0,0
773,58.0,-16.0,16.0,1644597786.5625,P05,D07,0,0,0
774,58.0,-16.0,16.0,1644597786.59375,P05,D07,0,0,0
775,58.0,-16.0,16.0,1644597786.625,P05,D07,0,0,0
776,58.0,-16.0,16.0,1644597786.65625,P05,D07,0,0,0
777,58.0,-16.0,16.0,1644597786.6875,P05,D07,0,0,0
778,58.0,-16.0,16.0,1644597786.71875,P05,D07,0,0,0
779,58.0,-16.0,16.0,1644597786.75,P05,D07,0,0,0
780,58.0,-16.0,16.0,1644597786.78125,P05,D07,0,0,0
781,58.0,-16.0,16.0,1644597786.8125,P05,D07,0,0,0
782,58.0,-16.0,16.0,1644597786.84375,P05,D07,0,0,0
783,58.0,-16.0,16.0,1644597786.875,P05,D07,0,0,0
784,58.0,-16.0,16.0,1644597786.90625,P05,D07,0,0,0
785,58.0,-16.0,16.0,1644597786.9375,P05,D07,0,0,0
786,58.0,-16.0,16.0,1644597786.96875,P05,D07,0,0,0
787,58.0,-16.0,16.0,1644597787.0,P05,D07,0,0,0
788,58.0,-16.0,16.0,1644597787.03125,P05,D07,0,0,0
789,58.0,-16.0,16.0,1644597787.0625,P05,D07,0,0,0
790,58.0,-16.0,16.0,1644597787.09375,P05,D07,0,0,0
791,58.0,-16.0,16.0,1644597787.125,P05,D07,0,0,0
792,58.0,-16.0,16.0,1644597787.15625,P05,D07,0,0,0
793,58.0,-16.0,16.0,1644597787.1875,P05,D07,0,0,0
794,58.0,-16.0,16.0,1644597787.21875,P05,D07,0,0,0
795,58.0,-16.0,16.0,1644597787.25,P05,D07,0,0,0
796,58.0,-17.0,16.0,1644597787.28125,P05,D07,0,0,0
797,58.0,-17.0,16.0,1644597787.3125,P05,D07,0,0,0
798,58.0,-16.0,16.0,1644597787.34375,P05,D07,0,0,0
799,58.0,-16.0,16.0,1644597787.375,P05,D07,0,0,0
800,58.0,-16.0,16.0,1644597787.40625,P05,D07,0,0,0
801,58.0,-16.0,16.0,1644597787.4375,P05,D07,0,0,0
802,58.0,-16.0,16.0,1644597787.46875,P05,D07,0,0,0
803,58.0,-16.0,16.0,1644597787.5,P05,D07,0,0,0
804,58.0,-16.0,16.0,1644597787.53125,P05,D07,0,0,0
805,58.0,-16.0,16.0,1644597787.5625,P05,D07,0,0,0
806,58.0,-16.0,16.0,1644597787.59375,P05,D07,0,0,0
807,58.0,-16.0,16.0,1644597787.625,P05,D07,0,0,0
808,58.0,-16.0,16.0,1644597787.65625,P05,D07,0,0,0
809,58.0,-16.0,16.0,1644597787.6875,P05,D07,0,0,0
810,58.0,-16.0,16.0,1644597787.71875,P05,D07,0,0,0
811,58.0,-16.0,16.0,1644597787.75,P05,D07,0,0,0
812,58.0,-16.0,16.0,1644597787.78125,P05,D07,0,0,0
813,58.0,-16.0,16.0,1644597787.8125,P05,D07,0,0,0
814,58.0,-16.0,16.0,1644597787.84375,P05,D07,0,0,0
815,58.0,-16.0,16.0,1644597787.875,P05,D07,0,0,0
816,58.0,-16.0,16.0,1644597787.90625,P05,D07,0,0,0
817,58.0,-16.0,16.0,1644597787.9375,P05,D07,0,0,0
818,58.0,-16.0,16.0,1644597787.96875,P05,D07,0,0,0
819,58.0,-16.0,16.0,1644597788.0,P05,D07,0,0,0
820,58.0,-16.0,16.0,1644597788.03125,P05,D07,0,0,0
821,58.0,-17.0,16.0,1644597788.0625,P05,D07,0,0,0
822,58.0,-16.0,16.0,1644597788.09375,P05,D07,0,0,0
823,58.0,-16.0,16.0,1644597788.125,P05,D07,0,0,0
824,58.0,-16.0,16.0,1644597788.15625,P05,D07,0,0,0
825,58.0,-16.0,16.0,1644597788.1875,P05,D07,0,0,0
826,58.0,-16.0,16.0,1644597788.21875,P05,D07,0,0,0
827,58.0,-16.0,16.0,1644597788.25,P05,D07,0,0,0
828,58.0,-16.0,16.0,1644597788.28125,P05,D07,0,0,0
829,58.0,-16.0,16.0,1644597788.3125,P05,D07,0,0,0
830,58.0,-16.0,16.0,1644597788.34375,P05,D07,0,0,0
831,58.0,-16.0,16.0,1644597788.375,P05,D07,0,0,0
832,58.0,-16.0,16.0,1644597788.40625,P05,D07,0,0,0
833,58.0,-17.0,16.0,1644597788.4375,P05,D07,0,0,0
834,58.0,-16.0,16.0,1644597788.46875,P05,D07,0,0,0
835,58.0,-16.0,16.0,1644597788.5,P05,D07,0,0,0
836,58.0,-16.0,16.0,1644597788.53125,P05,D07,0,0,0
837,58.0,-16.0,16.0,1644597788.5625,P05,D07,0,0,0
838,58.0,-16.0,16.0,1644597788.59375,P05,D07,0,0,0
839,58.0,-16.0,16.0,1644597788.625,P05,D07,0,0,0
840,58.0,-16.0,16.0,1644597788.65625,P05,D07,0,0,0
841,58.0,-16.0,16.0,1644597788.6875,P05,D07,0,0,0
842,58.0,-16.0,16.0,1644597788.71875,P05,D07,0,0,0
843,58.0,-16.0,16.0,1644597788.75,P05,D07,0,0,0
844,58.0,-16.0,16.0,1644597788.78125,P05,D07,0,0,0
845,58.0,-16.0,16.0,1644597788.8125,P05,D07,0,0,0
846,58.0,-16.0,16.0,1644597788.84375,P05,D07,0,0,0
847,58.0,-16.0,16.0,1644597788.875,P05,D07,0,0,0
848,58.0,-16.0,16.0,1644597788.90625,P05,D07,0,0,0
849,58.0,-16.0,16.0,1644597788.9375,P05,D07,0,0,0
850,58.0,-16.0,16.0,1644597788.96875,P05,D07,0,0,0
851,58.0,-16.0,16.0,1644597789.0,P05,D07,0,0,0
852,58.0,-16.0,16.0,1644597789.03125,P05,D07,0,0,0
853,58.0,-16.0,16.0,1644597789.0625,P05,D07,0,0,0
854,58.0,-16.0,16.0,1644597789.09375,P05,D07,0,0,0
855,58.0,-16.0,16.0,1644597789.125,P05,D07,0,0,0
856,58.0,-16.0,16.0,1644597789.15625,P05,D07,0,0,0
857,58.0,-16.0,16.0,1644597789.1875,P05,D07,0,0,0
858,58.0,-16.0,16.0,1644597789.21875,P05,D07,0,0,0
859,58.0,-16.0,16.0,1644597789.25,P05,D07,0,0,0
860,58.0,-16.0,16.0,1644597789.28125,P05,D07,0,0,0
861,58.0,-16.0,16.0,1644597789.3125,P05,D07,0,0,0
862,58.0,-16.0,16.0,1644597789.34375,P05,D07,0,0,0
863,58.0,-16.0,16.0,1644597789.375,P05,D07,0,0,0
864,58.0,-16.0,16.0,1644597789.40625,P05,D07,0,0,0
865,58.0,-16.0,16.0,1644597789.4375,P05,D07,0,0,0
866,58.0,-16.0,16.0,1644597789.46875,P05,D07,0,0,0
867,58.0,-16.0,16.0,1644597789.5,P05,D07,0,0,0
868,58.0,-16.0,17.0,1644597789.53125,P05,D07,0,0,0
869,58.0,-16.0,16.0,1644597789.5625,P05,D07,0,0,0
870,58.0,-16.0,16.0,1644597789.59375,P05,D07,0,0,0
871,58.0,-16.0,16.0,1644597789.625,P05,D07,0,0,0
872,58.0,-16.0,16.0,1644597789.65625,P05,D07,0,0,0
873,58.0,-16.0,16.0,1644597789.6875,P05,D07,0,0,0
874,58.0,-16.0,17.0,1644597789.71875,P05,D07,0,0,0
875,58.0,-16.0,16.0,1644597789.75,P05,D07,0,0,0
876,58.0,-17.0,16.0,1644597789.78125,P05,D07,0,0,0
877,57.0,-16.0,16.0,1644597789.8125,P05,D07,0,0,0
878,58.0,-16.0,17.0,1644597789.84375,P05,D07,0,0,0
879,58.0,-16.0,17.0,1644597789.875,P05,D07,0,0,0
880,58.0,-17.0,16.0,1644597789.90625,P05,D07,0,0,0
881,58.0,-17.0,16.0,1644597789.9375,P05,D07,0,0,0
882,57.0,-17.0,17.0,1644597789.96875,P05,D07,0,0,0
883,57.0,-17.0,17.0,1644597790.0,P05,D07,0,0,0
884,58.0,-16.0,17.0,1644597790.03125,P05,D07,0,0,0
885,58.0,-16.0,17.0,1644597790.0625,P05,D07,0,0,0
886,58.0,-16.0,17.0,1644597790.09375,P05,D07,0,0,0
887,58.0,-16.0,17.0,1644597790.125,P05,D07,0,0,0
888,58.0,-17.0,17.0,1644597790.15625,P05,D07,0,0,0
889,58.0,-17.0,17.0,1644597790.1875,P05,D07,0,0,0
890,57.0,-17.0,17.0,1644597790.21875,P05,D07,0,0,0
891,58.0,-17.0,17.0,1644597790.25,P05,D07,0,0,0
892,57.0,-17.0,17.0,1644597790.28125,P05,D07,0,0,0
893,58.0,-17.0,17.0,1644597790.3125,P05,D07,0,0,0
894,58.0,-17.0,16.0,1644597790.34375,P05,D07,0,0,0
895,58.0,-17.0,17.0,1644597790.375,P05,D07,0,0,0
896,57.0,-17.0,17.0,1644597790.40625,P05,D07,0,0,0
897,58.0,-17.0,17.0,1644597790.4375,P05,D07,0,0,0
898,58.0,-17.0,17.0,1644597790.46875,P05,D07,0,0,0
899,57.0,-17.0,17.0,1644597790.5,P05,D07,0,0,0
900,58.0,-17.0,17.0,1644597790.53125,P05,D07,0,0,0
901,58.0,-17.0,17.0,1644597790.5625,P05,D07,0,0,0
902,57.0,-17.0,17.0,1644597790.59375,P05,D07,0,0,0
903,57.0,-17.0,17.0,1644597790.625,P05,D07,0,0,0
904,58.0,-17.0,17.0,1644597790.65625,P05,D07,0,0,0
905,57.0,-17.0,17.0,1644597790.6875,P05,D07,0,0,0
906,58.0,-17.0,17.0,1644597790.71875,P05,D07,0,0,0
907,58.0,-17.0,16.0,1644597790.75,P05,D07,0,0,0
908,58.0,-17.0,17.0,1644597790.78125,P05,D07,0,0,0
909,58.0,-17.0,17.0,1644597790.8125,P05,D07,0,0,0
910,58.0,-17.0,17.0,1644597790.84375,P05,D07,0,0,0
911,57.0,-17.0,17.0,1644597790.875,P05,D07,0,0,0
912,58.0,-17.0,17.0,1644597790.90625,P05,D07,0,0,0
913,58.0,-17.0,17.0,1644597790.9375,P05,D07,0,0,0
914,58.0,-17.0,17.0,1644597790.96875,P05,D07,0,0,0
915,58.0,-17.0,17.0,1644597791.0,P05,D07,0,0,0
916,58.0,-17.0,17.0,1644597791.03125,P05,D07,0,0,0
917,58.0,-17.0,17.0,1644597791.0625,P05,D07,0,0,0
918,57.0,-17.0,17.0,1644597791.09375,P05,D07,0,0,0
919,58.0,-16.0,17.0,1644597791.125,P05,D07,0,0,0
920,58.0,-17.0,17.0,1644597791.15625,P05,D07,0,0,0
921,58.0,-17.0,17.0,1644597791.1875,P05,D07,0,0,0
922,58.0,-17.0,17.0,1644597791.21875,P05,D07,0,0,0
923,57.0,-17.0,17.0,1644597791.25,P05,D07,0,0,0
924,57.0,-17.0,17.0,1644597791.28125,P05,D07,0,0,0
925,57.0,-17.0,17.0,1644597791.3125,P05,D07,0,0,0
926,58.0,-17.0,17.0,1644597791.34375,P05,D07,0,0,0
927,58.0,-17.0,17.0,1644597791.375,P05,D07,0,0,0
928,58.0,-16.0,17.0,1644597791.40625,P05,D07,0,0,0
929,58.0,-16.0,17.0,1644597791.4375,P05,D07,0,0,0
930,57.0,-16.0,17.0,1644597791.46875,P05,D07,0,0,0
931,57.0,-16.0,17.0,1644597791.5,P05,D07,0,0,0
932,57.0,-16.0,17.0,1644597791.53125,P05,D07,0,0,0
933,57.0,-16.0,17.0,1644597791.5625,P05,D07,0,0,0
934,57.0,-16.0,17.0,1644597791.59375,P05,D07,0,0,0
935,58.0,-16.0,17.0,1644597791.625,P05,D07,0,0,0
936,58.0,-16.0,17.0,1644597791.65625,P05,D07,0,0,0
937,57.0,-16.0,17.0,1644597791.6875,P05,D07,0,0,0
938,58.0,-16.0,17.0,1644597791.71875,P05,D07,0,0,0
939,58.0,-17.0,17.0,1644597791.75,P05,D07,0,0,0
940,57.0,-16.0,17.0,1644597791.78125,P05,D07,0,0,0
941,58.0,-16.0,17.0,1644597791.8125,P05,D07,0,0,0
942,58.0,-16.0,17.0,1644597791.84375,P05,D07,0,0,0
943,58.0,-16.0,17.0,1644597791.875,P05,D07,0,0,0
944,58.0,-16.0,17.0,1644597791.90625,P05,D07,0,0,0
945,58.0,-16.0,17.0,1644597791.9375,P05,D07,0,0,0
946,58.0,-16.0,17.0,1644597791.96875,P05,D07,0,0,0
947,58.0,-17.0,17.0,1644597792.0,P05,D07,0,0,0
948,58.0,-16.0,17.0,1644597792.03125,P05,D07,0,0,0
949,58.0,-16.0,17.0,1644597792.0625,P05,D07,0,0,0
950,58.0,-16.0,17.0,1644597792.09375,P05,D07,0,0,0
951,58.0,-16.0,17.0,1644597792.125,P05,D07,0,0,0
952,58.0,-16.0,17.0,1644597792.15625,P05,D07,0,0,0
953,58.0,-16.0,17.0,1644597792.1875,P05,D07,0,0,0
954,58.0,-16.0,17.0,1644597792.21875,P05,D07,0,0,0
955,58.0,-16.0,17.0,1644597792.25,P05,D07,0,0,0
956,58.0,-16.0,17.0,1644597792.28125,P05,D07,0,0,0
957,58.0,-16.0,17.0,1644597792.3125,P05,D07,0,0,0
958,58.0,-16.0,17.0,1644597792.34375,P05,D07,0,0,0
959,58.0,-16.0,17.0,1644597792.375,P05,D07,0,0,0
960,58.0,-16.0,17.0,1644597792.40625,P05,D07,0,0,0
961,58.0,-16.0,17.0,1644597792.4375,P05,D07,0,0,0
962,58.0,-16.0,17.0,1644597792.46875,P05,D07,0,0,0
963,58.0,-16.0,17.0,1644597792.5,P05,D07,0,0,0
964,58.0,-16.0,17.0,1644597792.53125,P05,D07,0,0,0
965,57.0,-16.0,17.0,1644597792.5625,P05,D07,0,0,0
966,58.0,-16.0,17.0,1644597792.59375,P05,D07,0,0,0
967,58.0,-16.0,17.0,1644597792.625,P05,D07,0,0,0
968,57.0,-16.0,17.0,1644597792.65625,P05,D07,0,0,0
969,57.0,-17.0,17.0,1644597792.6875,P05,D07,0,0,0
970,58.0,-17.0,16.0,1644597792.71875,P05,D07,0,0,0
971,58.0,-17.0,17.0,1644597792.75,P05,D07,0,0,0
972,57.0,-17.0,17.0,1644597792.78125,P05,D07,0,0,0
973,58.0,-16.0,17.0,1644597792.8125,P05,D07,0,0,0
974,58.0,-17.0,17.0,1644597792.84375,P05,D07,0,0,0
975,58.0,-16.0,17.0,1644597792.875,P05,D07,0,0,0
976,57.0,-17.0,17.0,1644597792.90625,P05,D07,0,0,0
977,58.0,-16.0,17.0,1644597792.9375,P05,D07,0,0,0
978,58.0,-16.0,17.0,1644597792.96875,P05,D07,0,0,0
979,57.0,-16.0,17.0,1644597793.0,P05,D07,0,0,0
980,58.0,-16.0,17.0,1644597793.03125,P05,D07,0,0,0
981,58.0,-16.0,17.0,1644597793.0625,P05,D07,0,0,0
982,57.0,-17.0,17.0,1644597793.09375,P05,D07,0,0,0
983,58.0,-17.0,17.0,1644597793.125,P05,D07,0,0,0
984,57.0,-17.0,17.0,1644597793.15625,P05,D07,0,0,0
985,58.0,-17.0,17.0,1644597793.1875,P05,D07,0,0,0
986,58.0,-17.0,17.0,1644597793.21875,P05,D07,0,0,0
987,58.0,-17.0,17.0,1644597793.25,P05,D07,0,0,0
988,58.0,-17.0,17.0,1644597793.28125,P05,D07,0,0,0
989,57.0,-17.0,17.0,1644597793.3125,P05,D07,0,0,0
990,57.0,-17.0,17.0,1644597793.34375,P05,D07,0,0,0
991,58.0,-17.0,17.0,1644597793.375,P05,D07,0,0,0
992,57.0,-17.0,17.0,1644597793.40625,P05,D07,0,0,0
993,58.0,-17.0,17.0,1644597793.4375,P05,D07,0,0,0
994,58.0,-17.0,17.0,1644597793.46875,P05,D07,0,0,0
995,58.0,-17.0,17.0,1644597793.5,P05,D07,0,0,0
996,58.0,-17.0,17.0,1644597793.53125,P05,D07,0,0,0
997,58.0,-16.0,17.0,1644597793.5625,P05,D07,0,0,0
998,58.0,-17.0,17.0,1644597793.59375,P05,D07,0,0,0
999,58.0,-17.0,17.0,1644597793.625,P05,D07,0,0,0
1000,57.0,-17.0,17.0,1644597793.65625,P05,D07,0,0,0
1001,58.0,-17.0,17.0,1644597793.6875,P05,D07,0,0,0
1002,58.0,-17.0,16.0,1644597793.71875,P05,D07,0,0,0
1003,58.0,-17.0,17.0,1644597793.75,P05,D07,0,0,0
1004,57.0,-17.0,17.0,1644597793.78125,P05,D07,0,0,0
1005,58.0,-16.0,17.0,1644597793.8125,P05,D07,0,0,0
1006,58.0,-16.0,17.0,1644597793.84375,P05,D07,0,0,0
1007,58.0,-16.0,17.0,1644597793.875,P05,D07,0,0,0
1008,58.0,-17.0,17.0,1644597793.90625,P05,D07,0,0,0
1009,58.0,-17.0,17.0,1644597793.9375,P05,D07,0,0,0
1010,58.0,-17.0,17.0,1644597793.96875,P05,D07,0,0,0
1011,58.0,-17.0,17.0,1644597794.0,P05,D07,0,0,0
1012,58.0,-16.0,17.0,1644597794.03125,P05,D07,0,0,0
1013,58.0,-16.0,16.0,1644597794.0625,P05,D07,0,0,0
1014,58.0,-17.0,17.0,1644597794.09375,P05,D07,0,0,0
1015,58.0,-16.0,17.0,1644597794.125,P05,D07,0,0,0
1016,58.0,-16.0,17.0,1644597794.15625,P05,D07,0,0,0
1017,58.0,-16.0,17.0,1644597794.1875,P05,D07,0,0,0
1018,58.0,-16.0,17.0,1644597794.21875,P05,D07,0,0,0
1019,58.0,-16.0,17.0,1644597794.25,P05,D07,0,0,0
1020,58.0,-16.0,17.0,1644597794.28125,P05,D07,0,0,0
1021,58.0,-16.0,17.0,1644597794.3125,P05,D07,0,0,0
1022,57.0,-16.0,17.0,1644597794.34375,P05,D07,0,0,0
1023,57.0,-17.0,17.0,1644597794.375,P05,D07,0,0,0
1024,58.0,-17.0,17.0,1644597794.40625,P05,D07,0,0,0
1025,57.0,-17.0,17.0,1644597794.4375,P05,D07,0,0,0
1026,58.0,-16.0,17.0,1644597794.46875,P05,D07,0,0,0
1027,58.0,-16.0,17.0,1644597794.5,P05,D07,0,0,0
1028,58.0,-16.0,17.0,1644597794.53125,P05,D07,0,0,0
1029,58.0,-16.0,17.0,1644597794.5625,P05,D07,0,0,0
1030,58.0,-16.0,17.0,1644597794.59375,P05,D07,0,0,0
1031,58.0,-16.0,17.0,1644597794.625,P05,D07,0,0,0
1032,58.0,-16.0,17.0,1644597794.65625,P05,D07,0,0,0
1033,58.0,-16.0,17.0,1644597794.6875,P05,D07,0,0,0
1034,58.0,-16.0,17.0,1644597794.71875,P05,D07,0,0,0
1035,58.0,-16.0,17.0,1644597794.75,P05,D07,0,0,0
1036,57.0,-17.0,17.0,1644597794.78125,P05,D07,0,0,0
1037,58.0,-16.0,17.0,1644597794.8125,P05,D07,0,0,0
1038,58.0,-17.0,17.0,1644597794.84375,P05,D07,0,0,0
1039,57.0,-16.0,17.0,1644597794.875,P05,D07,0,0,0
1040,58.0,-16.0,17.0,1644597794.90625,P05,D07,0,0,0
1041,58.0,-16.0,17.0,1644597794.9375,P05,D07,0,0,0
1042,58.0,-16.0,17.0,1644597794.96875,P05,D07,0,0,0
1043,58.0,-16.0,17.0,1644597795.0,P05,D07,0,0,0
1044,57.0,-16.0,17.0,1644597795.03125,P05,D07,0,0,0
1045,57.0,-16.0,17.0,1644597795.0625,P05,D07,0,0,0
1046,58.0,-16.0,17.0,1644597795.09375,P05,D07,0,0,0
1047,58.0,-16.0,17.0,1644597795.125,P05,D07,0,0,0
1048,58.0,-16.0,17.0,1644597795.15625,P05,D07,0,0,0
1049,58.0,-16.0,17.0,1644597795.1875,P05,D07,0,0,0
1050,58.0,-16.0,17.0,1644597795.21875,P05,D07,0,0,0
1051,57.0,-17.0,17.0,1644597795.25,P05,D07,0,0,0
1052,58.0,-17.0,17.0,1644597795.28125,P05,D07,0,0,0
1053,58.0,-16.0,17.0,1644597795.3125,P05,D07,0,0,0
1054,58.0,-16.0,17.0,1644597795.34375,P05,D07,0,0,0
1055,58.0,-16.0,17.0,1644597795.375,P05,D07,0,0,0
1056,58.0,-16.0,17.0,1644597795.40625,P05,D07,0,0,0
1057,57.0,-16.0,17.0,1644597795.4375,P05,D07,0,0,0
1058,58.0,-17.0,17.0,1644597795.46875,P05,D07,0,0,0
1059,58.0,-17.0,17.0,1644597795.5,P05,D07,0,0,0
1060,58.0,-16.0,17.0,1644597795.53125,P05,D07,0,0,0
1061,57.0,-16.0,17.0,1644597795.5625,P05,D07,0,0,0
1062,58.0,-16.0,17.0,1644597795.59375,P05,D07,0,0,0
1063,58.0,-16.0,17.0,1644597795.625,P05,D07,0,0,0
1064,57.0,-16.0,17.0,1644597795.65625,P05,D07,0,0,0
1065,58.0,-16.0,17.0,1644597795.6875,P05,D07,0,0,0
1066,58.0,-16.0,17.0,1644597795.71875,P05,D07,0,0,0
1067,58.0,-17.0,17.0,1644597795.75,P05,D07,0,0,0
1068,58.0,-17.0,17.0,1644597795.78125,P05,D07,0,0,0
1069,58.0,-17.0,17.0,1644597795.8125,P05,D07,0,0,0
1070,58.0,-16.0,17.0,1644597795.84375,P05,D07,0,0,0
1071,58.0,-16.0,17.0,1644597795.875,P05,D07,0,0,0
1072,57.0,-16.0,17.0,1644597795.90625,P05,D07,0,0,0
1073,58.0,-16.0,17.0,1644597795.9375,P05,D07,0,0,0
1074,57.0,-16.0,17.0,1644597795.96875,P05,D07,0,0,0
1075,57.0,-17.0,17.0,1644597796.0,P05,D07,0,0,0
1076,57.0,-17.0,17.0,1644597796.03125,P05,D07,0,0,0
1077,57.0,-17.0,17.0,1644597796.0625,P05,D07,0,0,0
1078,58.0,-17.0,17.0,1644597796.09375,P05,D07,0,0,0
1079,57.0,-17.0,17.0,1644597796.125,P05,D07,0,0,0
1080,57.0,-16.0,17.0,1644597796.15625,P05,D07,0,0,0
1081,58.0,-16.0,17.0,1644597796.1875,P05,D07,0,0,0
1082,58.0,-17.0,17.0,1644597796.21875,P05,D07,0,0,0
1083,58.0,-17.0,17.0,1644597796.25,P05,D07,0,0,0
1084,58.0,-16.0,17.0,1644597796.28125,P05,D07,0,0,0
1085,57.0,-16.0,17.0,1644597796.3125,P05,D07,0,0,0
1086,58.0,-16.0,17.0,1644597796.34375,P05,D07,0,0,0
1087,57.0,-16.0,17.0,1644597796.375,P05,D07,0,0,0
1088,58.0,-17.0,17.0,1644597796.40625,P05,D07,0,0,0
1089,58.0,-17.0,17.0,1644597796.4375,P05,D07,0,0,0
1090,58.0,-17.0,17.0,1644597796.46875,P05,D07,0,0,0
1091,58.0,-16.0,17.0,1644597796.5,P05,D07,0,0,0
1092,58.0,-16.0,17.0,1644597796.53125,P05,D07,0,0,0
1093,57.0,-16.0,17.0,1644597796.5625,P05,D07,0,0,0
1094,57.0,-17.0,17.0,1644597796.59375,P05,D07,0,0,0
1095,58.0,-17.0,17.0,1644597796.625,P05,D07,0,0,0
1096,57.0,-17.0,17.0,1644597796.65625,P05,D07,0,0,0
1097,58.0,-17.0,17.0,1644597796.6875,P05,D07,0,0,0
1098,58.0,-17.0,17.0,1644597796.71875,P05,D07,0,0,0
1099,57.0,-17.0,17.0,1644597796.75,P05,D07,0,0,0
1100,57.0,-17.0,17.0,1644597796.78125,P05,D07,0,0,0
1101,57.0,-17.0,17.0,1644597796.8125,P05,D07,0,0,0
1102,57.0,-16.0,17.0,1644597796.84375,P05,D07,0,0,0
1103,58.0,-17.0,17.0,1644597796.875,P05,D07,0,0,0
1104,58.0,-17.0,17.0,1644597796.90625,P05,D07,0,0,0
1105,58.0,-17.0,17.0,1644597796.9375,P05,D07,0,0,0
1106,57.0,-17.0,17.0,1644597796.96875,P05,D07,0,0,0
1107,58.0,-17.0,17.0,1644597797.0,P05,D07,0,0,0
1108,58.0,-17.0,17.0,1644597797.03125,P05,D07,0,0,0
1109,57.0,-17.0,17.0,1644597797.0625,P05,D07,0,0,0
1110,58.0,-16.0,17.0,1644597797.09375,P05,D07,0,0,0
1111,58.0,-17.0,17.0,1644597797.125,P05,D07,0,0,0
1112,58.0,-17.0,17.0,1644597797.15625,P05,D07,0,0,0
1113,58.0,-17.0,17.0,1644597797.1875,P05,D07,0,0,0
1114,58.0,-16.0,17.0,1644597797.21875,P05,D07,0,0,0
1115,58.0,-16.0,17.0,1644597797.25,P05,D07,0,0,0
1116,58.0,-16.0,17.0,1644597797.28125,P05,D07,0,0,0
1117,57.0,-17.0,17.0,1644597797.3125,P05,D07,0,0,0
1118,58.0,-16.0,17.0,1644597797.34375,P05,D07,0,0,0
1119,58.0,-16.0,17.0,1644597797.375,P05,D07,0,0,0
1120,58.0,-16.0,17.0,1644597797.40625,P05,D07,0,0,0
1121,57.0,-16.0,17.0,1644597797.4375,P05,D07,0,0,0
1122,58.0,-17.0,17.0,1644597797.46875,P05,D07,0,0,0
1123,57.0,-17.0,17.0,1644597797.5,P05,D07,0,0,0
1124,57.0,-16.0,17.0,1644597797.53125,P05,D07,0,0,0
1125,57.0,-16.0,17.0,1644597797.5625,P05,D07,0,0,0
1126,58.0,-16.0,17.0,1644597797.59375,P05,D07,0,0,0
1127,58.0,-16.0,17.0,1644597797.625,P05,D07,0,0,0
1128,57.0,-17.0,17.0,1644597797.65625,P05,D07,0,0,0
1129,58.0,-17.0,17.0,1644597797.6875,P05,D07,0,0,0
1130,58.0,-16.0,17.0,1644597797.71875,P05,D07,0,0,0
1131,58.0,-16.0,17.0,1644597797.75,P05,D07,0,0,0
1132,58.0,-17.0,17.0,1644597797.78125,P05,D07,0,0,0
1133,58.0,-16.0,17.0,1644597797.8125,P05,D07,0,0,0
1134,58.0,-16.0,17.0,1644597797.84375,P05,D07,0,0,0
1135,58.0,-17.0,17.0,1644597797.875,P05,D07,0,0,0
1136,58.0,-16.0,17.0,1644597797.90625,P05,D07,0,0,0
1137,57.0,-17.0,17.0,1644597797.9375,P05,D07,0,0,0
1138,58.0,-16.0,17.0,1644597797.96875,P05,D07,0,0,0
1139,58.0,-16.0,17.0,1644597798.0,P05,D07,0,0,0
1140,58.0,-16.0,17.0,1644597798.03125,P05,D07,0,0,0
1141,58.0,-16.0,17.0,1644597798.0625,P05,D07,0,0,0
1142,58.0,-16.0,17.0,1644597798.09375,P05,D07,0,0,0
1143,57.0,-16.0,17.0,1644597798.125,P05,D07,0,0,0
1144,58.0,-16.0,17.0,1644597798.15625,P05,D07,0,0,0
1145,58.0,-16.0,17.0,1644597798.1875,P05,D07,0,0,0
1146,58.0,-16.0,17.0,1644597798.21875,P05,D07,0,0,0
1147,58.0,-16.0,17.0,1644597798.25,P05,D07,0,0,0
1148,58.0,-16.0,17.0,1644597798.28125,P05,D07,0,0,0
1149,58.0,-16.0,17.0,1644597798.3125,P05,D07,0,0,0
1150,58.0,-16.0,17.0,1644597798.34375,P05,D07,0,0,0
1151,58.0,-17.0,17.0,1644597798.375,P05,D07,0,0,0
1152,58.0,-16.0,17.0,1644597798.40625,P05,D07,0,0,0
1153,58.0,-16.0,17.0,1644597798.4375,P05,D07,0,0,0
1154,58.0,-16.0,17.0,1644597798.46875,P05,D07,0,0,0
1155,58.0,-16.0,17.0,1644597798.5,P05,D07,0,0,0
1156,58.0,-17.0,17.0,1644597798.53125,P05,D07,0,0,0
1157,58.0,-16.0,17.0,1644597798.5625,P05,D07,0,0,0
1158,58.0,-16.0,17.0,1644597798.59375,P05,D07,0,0,0
1159,58.0,-16.0,17.0,1644597798.625,P05,D07,0,0,0
1160,58.0,-16.0,17.0,1644597798.65625,P05,D07,0,0,0
1161,58.0,-16.0,17.0,1644597798.6875,P05,D07,0,0,0
1162,58.0,-16.0,17.0,1644597798.71875,P05,D07,0,0,0
1163,58.0,-17.0,17.0,1644597798.75,P05,D07,0,0,0
1164,57.0,-16.0,17.0,1644597798.78125,P05,D07,0,0,0
1165,57.0,-16.0,17.0,1644597798.8125,P05,D07,0,0,0
1166,58.0,-16.0,17.0,1644597798.84375,P05,D07,0,0,0
1167,58.0,-16.0,17.0,1644597798.875,P05,D07,0,0,0
1168,58.0,-17.0,17.0,1644597798.90625,P05,D07,0,0,0
1169,58.0,-16.0,17.0,1644597798.9375,P05,D07,0,0,0
1170,58.0,-17.0,17.0,1644597798.96875,P05,D07,0,0,0
1171,57.0,-17.0,17.0,1644597799.0,P05,D07,0,0,0
1172,57.0,-17.0,17.0,1644597799.03125,P05,D07,0,0,0
1173,58.0,-17.0,17.0,1644597799.0625,P05,D07,0,0,0
1174,57.0,-17.0,17.0,1644597799.09375,P05,D07,0,0,0
1175,57.0,-17.0,17.0,1644597799.125,P05,D07,0,0,0
1176,58.0,-17.0,17.0,1644597799.15625,P05,D07,0,0,0
1177,57.0,-17.0,17.0,1644597799.1875,P05,D07,0,0,0
1178,57.0,-17.0,17.0,1644597799.21875,P05,D07,0,0,0
1179,57.0,-17.0,17.0,1644597799.25,P05,D07,0,0,0
1180,57.0,-17.0,17.0,1644597799.28125,P05,D07,0,0,0
1181,57.0,-17.0,17.0,1644597799.3125,P05,D07,0,0,0
1182,58.0,-17.0,17.0,1644597799.34375,P05,D07,0,0,0
1183,58.0,-16.0,17.0,1644597799.375,P05,D07,0,0,0
1184,58.0,-17.0,17.0,1644597799.40625,P05,D07,0,0,0
1185,58.0,-17.0,17.0,1644597799.4375,P05,D07,0,0,0
1186,57.0,-17.0,17.0,1644597799.46875,P05,D07,0,0,0
1187,58.0,-17.0,17.0,1644597799.5,P05,D07,0,0,0
1188,58.0,-17.0,17.0,1644597799.53125,P05,D07,0,0,0
1189,58.0,-17.0,17.0,1644597799.5625,P05,D07,0,0,0
1190,58.0,-16.0,17.0,1644597799.59375,P05,D07,0,0,0
1191,58.0,-17.0,17.0,1644597799.625,P05,D07,0,0,0
1192,57.0,-17.0,17.0,1644597799.65625,P05,D07,0,0,0
1193,58.0,-16.0,17.0,1644597799.6875,P05,D07,0,0,0
1194,58.0,-17.0,17.0,1644597799.71875,P05,D07,0,0,0
1195,58.0,-17.0,17.0,1644597799.75,P05,D07,0,0,0
1196,57.0,-17.0,17.0,1644597799.78125,P05,D07,0,0,0
1197,58.0,-17.0,17.0,1644597799.8125,P05,D07,0,0,0
1198,58.0,-17.0,17.0,1644597799.84375,P05,D07,0,0,0
1199,58.0,-16.0,17.0,1644597799.875,P05,D07,0,0,0
1200,58.0,-16.0,17.0,1644597799.90625,P05,D07,0,0,0
1201,58.0,-16.0,17.0,1644597799.9375,P05,D07,0,0,0
1202,57.0,-16.0,17.0,1644597799.96875,P05,D07,0,0,0
1203,58.0,-17.0,17.0,1644597800.0,P05,D07,0,0,0
1204,58.0,-16.0,17.0,1644597800.03125,P05,D07,0,0,0
1205,58.0,-16.0,17.0,1644597800.0625,P05,D07,0,0,0
1206,57.0,-17.0,17.0,1644597800.09375,P05,D07,0,0,0
1207,57.0,-17.0,17.0,1644597800.125,P05,D07,0,0,0
1208,57.0,-17.0,17.0,1644597800.15625,P05,D07,0,0,0
1209,58.0,-17.0,17.0,1644597800.1875,P05,D07,0,0,0
1210,58.0,-16.0,17.0,1644597800.21875,P05,D07,0,0,0
1211,58.0,-16.0,17.0,1644597800.25,P05,D07,0,0,0
1212,58.0,-16.0,17.0,1644597800.28125,P05,D07,0,0,0
1213,58.0,-16.0,17.0,1644597800.3125,P05,D07,0,0,0
1214,57.0,-16.0,17.0,1644597800.34375,P05,D07,0,0,0
1215,57.0,-16.0,17.0,1644597800.375,P05,D07,0,0,0
1216,57.0,-16.0,17.0,1644597800.40625,P05,D07,0,0,0
1217,57.0,-17.0,17.0,1644597800.4375,P05,D07,0,0,0
1218,58.0,-17.0,17.0,1644597800.46875,P05,D07,0,0,0
1219,58.0,-17.0,17.0,1644597800.5,P05,D07,0,0,0
1220,57.0,-17.0,17.0,1644597800.53125,P05,D07,0,0,0
1221,57.0,-16.0,17.0,1644597800.5625,P05,D07,0,0,0
1222,58.0,-17.0,17.0,1644597800.59375,P05,D07,0,0,0
1223,57.0,-16.0,17.0,1644597800.625,P05,D07,0,0,0
1224,58.0,-17.0,17.0,1644597800.65625,P05,D07,0,0,0
1225,58.0,-17.0,17.0,1644597800.6875,P05,D07,0,0,0
1226,58.0,-16.0,17.0,1644597800.71875,P05,D07,0,0,0
1227,58.0,-16.0,17.0,1644597800.75,P05,D07,0,0,0
1228,58.0,-16.0,17.0,1644597800.78125,P05,D07,0,0,0
1229,58.0,-16.0,17.0,1644597800.8125,P05,D07,0,0,0
1230,58.0,-17.0,17.0,1644597800.84375,P05,D07,0,0,0
1231,58.0,-16.0,17.0,1644597800.875,P05,D07,0,0,0
1232,58.0,-16.0,17.0,1644597800.90625,P05,D07,0,0,0
1233,58.0,-16.0,17.0,1644597800.9375,P05,D07,0,0,0
1234,58.0,-16.0,17.0,1644597800.96875,P05,D07,0,0,0
1235,58.0,-16.0,17.0,1644597801.0,P05,D07,0,0,0
1236,58.0,-16.0,17.0,1644597801.03125,P05,D07,0,0,0
1237,58.0,-16.0,17.0,1644597801.0625,P05,D07,0,0,0
1238,58.0,-16.0,17.0,1644597801.09375,P05,D07,0,0,0
1239,58.0,-16.0,17.0,1644597801.125,P05,D07,0,0,0
1240,57.0,-16.0,17.0,1644597801.15625,P05,D07,0,0,0
1241,57.0,-16.0,17.0,1644597801.1875,P05,D07,0,0,0
1242,58.0,-16.0,17.0,1644597801.21875,P05,D07,0,0,0
1243,57.0,-16.0,17.0,1644597801.25,P05,D07,0,0,0
1244,58.0,-16.0,17.0,1644597801.28125,P05,D07,0,0,0
1245,57.0,-16.0,17.0,1644597801.3125,P05,D07,0,0,0
1246,58.0,-16.0,17.0,1644597801.34375,P05,D07,0,0,0
1247,57.0,-16.0,17.0,1644597801.375,P05,D07,0,0,0
1248,57.0,-16.0,17.0,1644597801.40625,P05,D07,0,0,0
1249,58.0,-17.0,17.0,1644597801.4375,P05,D07,0,0,0
1250,58.0,-16.0,17.0,1644597801.46875,P05,D07,0,0,0
1251,58.0,-16.0,17.0,1644597801.5,P05,D07,0,0,0
1252,57.0,-17.0,17.0,1644597801.53125,P05,D07,0,0,0
1253,58.0,-16.0,17.0,1644597801.5625,P05,D07,0,0,0
1254,58.0,-16.0,17.0,1644597801.59375,P05,D07,0,0,0
1255,57.0,-16.0,17.0,1644597801.625,P05,D07,0,0,0
1256,58.0,-16.0,17.0,1644597801.65625,P05,D07,0,0,0
1257,58.0,-16.0,17.0,1644597801.6875,P05,D07,0,0,0
1258,58.0,-17.0,17.0,1644597801.71875,P05,D07,0,0,0
1259,57.0,-17.0,17.0,1644597801.75,P05,D07,0,0,0
1260,58.0,-16.0,17.0,1644597801.78125,P05,D07,0,0,0
1261,57.0,-16.0,17.0,1644597801.8125,P05,D07,0,0,0
1262,57.0,-16.0,17.0,1644597801.84375,P05,D07,0,0,0
1263,58.0,-16.0,17.0,1644597801.875,P05,D07,0,0,0
1264,58.0,-16.0,17.0,1644597801.90625,P05,D07,0,0,0
1265,57.0,-16.0,17.0,1644597801.9375,P05,D07,0,0,0
1266,58.0,-17.0,17.0,1644597801.96875,P05,D07,0,0,0
1267,57.0,-16.0,17.0,1644597802.0,P05,D07,0,0,0
1268,57.0,-16.0,17.0,1644597802.03125,P05,D07,0,0,0
1269,58.0,-16.0,17.0,1644597802.0625,P05,D07,0,0,0
1270,58.0,-16.0,17.0,1644597802.09375,P05,D07,0,0,0
1271,58.0,-16.0,17.0,1644597802.125,P05,D07,0,0,0
1272,58.0,-16.0,17.0,1644597802.15625,P05,D07,0,0,0
1273,58.0,-16.0,17.0,1644597802.1875,P05,D07,0,0,0
1274,57.0,-17.0,17.0,1644597802.21875,P05,D07,0,0,0
1275,58.0,-16.0,17.0,1644597802.25,P05,D07,0,0,0
1276,58.0,-16.0,17.0,1644597802.28125,P05,D07,0,0,0
1277,58.0,-16.0,17.0,1644597802.3125,P05,D07,0,0,0
1278,57.0,-16.0,17.0,1644597802.34375,P05,D07,0,0,0
1279,58.0,-16.0,17.0,1644597802.375,P05,D07,0,0,0
1280,58.0,-16.0,17.0,1644597802.40625,P05,D07,0,0,0
1281,57.0,-16.0,17.0,1644597802.4375,P05,D07,0,0,0
1282,58.0,-17.0,17.0,1644597802.46875,P05,D07,0,0,0
1283,58.0,-17.0,17.0,1644597802.5,P05,D07,0,0,0
1284,58.0,-16.0,17.0,1644597802.53125,P05,D07,0,0,0
1285,58.0,-16.0,17.0,1644597802.5625,P05,D07,0,0,0
1286,58.0,-16.0,17.0,1644597802.59375,P05,D07,0,0,0
1287,58.0,-16.0,17.0,1644597802.625,P05,D07,0,0,0
1288,58.0,-16.0,17.0,1644597802.65625,P05,D07,0,0,0
1289,58.0,-16.0,17.0,1644597802.6875,P05,D07,0,0,0
1290,58.0,-16.0,17.0,1644597802.71875,P05,D07,0,0,0
1291,58.0,-16.0,17.0,1644597802.75,P05,D07,0,0,0
1292,58.0,-16.0,17.0,1644597802.78125,P05,D07,0,0,0
1293,58.0,-16.0,17.0,1644597802.8125,P05,D07,0,0,0
1294,58.0,-16.0,17.0,1644597802.84375,P05,D07,0,0,0
1295,57.0,-17.0,17.0,1644597802.875,P05,D07,0,0,0
1296,58.0,-17.0,17.0,1644597802.90625,P05,D07,0,0,0
1297,57.0,-16.0,17.0,1644597802.9375,P05,D07,0,0,0
1298,58.0,-16.0,17.0,1644597802.96875,P05,D07,0,0,0
1299,58.0,-16.0,17.0,1644597803.0,P05,D07,0,0,0
1300,58.0,-16.0,17.0,1644597803.03125,P05,D07,0,0,0
1301,58.0,-16.0,17.0,1644597803.0625,P05,D07,0,0,0
1302,57.0,-16.0,17.0,1644597803.09375,P05,D07,0,0,0
1303,57.0,-16.0,17.0,1644597803.125,P05,D07,0,0,0
1304,57.0,-16.0,17.0,1644597803.15625,P05,D07,0,0,0
1305,58.0,-16.0,17.0,1644597803.1875,P05,D07,0,0,0
1306,58.0,-16.0,17.0,1644597803.21875,P05,D07,0,0,0
1307,58.0,-16.0,17.0,1644597803.25,P05,D07,0,0,0
1308,58.0,-16.0,17.0,1644597803.28125,P05,D07,0,0,0
1309,58.0,-17.0,17.0,1644597803.3125,P05,D07,0,0,0
1310,58.0,-16.0,17.0,1644597803.34375,P05,D07,0,0,0
1311,58.0,-16.0,17.0,1644597803.375,P05,D07,0,0,0
1312,58.0,-16.0,17.0,1644597803.40625,P05,D07,0,0,0
1313,57.0,-16.0,17.0,1644597803.4375,P05,D07,0,0,0
1314,58.0,-16.0,17.0,1644597803.46875,P05,D07,0,0,0
1315,58.0,-16.0,17.0,1644597803.5,P05,D07,0,0,0
1316,58.0,-17.0,17.0,1644597803.53125,P05,D07,0,0,0
1317,57.0,-17.0,17.0,1644597803.5625,P05,D07,0,0,0
1318,57.0,-16.0,17.0,1644597803.59375,P05,D07,0,0,0
1319,58.0,-16.0,17.0,1644597803.625,P05,D07,0,0,0
1320,58.0,-16.0,17.0,1644597803.65625,P05,D07,0,0,0
1321,58.0,-16.0,17.0,1644597803.6875,P05,D07,0,0,0
1322,58.0,-16.0,17.0,1644597803.71875,P05,D07,0,0,0
1323,57.0,-16.0,17.0,1644597803.75,P05,D07,0,0,0
1324,58.0,-16.0,17.0,1644597803.78125,P05,D07,0,0,0
1325,58.0,-16.0,17.0,1644597803.8125,P05,D07,0,0,0
1326,58.0,-17.0,17.0,1644597803.84375,P05,D07,0,0,0
1327,58.0,-16.0,17.0,1644597803.875,P05,D07,0,0,0
1328,58.0,-16.0,17.0,1644597803.90625,P05,D07,0,0,0
1329,58.0,-17.0,17.0,1644597803.9375,P05,D07,0,0,0
1330,58.0,-16.0,17.0,1644597803.96875,P05,D07,0,0,0
1331,58.0,-16.0,17.0,1644597804.0,P05,D07,0,0,0
1332,58.0,-16.0,17.0,1644597804.03125,P05,D07,0,0,0
1333,58.0,-17.0,17.0,1644597804.0625,P05,D07,0,0,0
1334,58.0,-17.0,17.0,1644597804.09375,P05,D07,0,0,0
1335,58.0,-17.0,17.0,1644597804.125,P05,D07,0,0,0
1336,58.0,-16.0,17.0,1644597804.15625,P05,D07,0,0,0
1337,58.0,-16.0,17.0,1644597804.1875,P05,D07,0,0,0
1338,57.0,-16.0,17.0,1644597804.21875,P05,D07,0,0,0
1339,57.0,-17.0,17.0,1644597804.25,P05,D07,0,0,0
1340,57.0,-17.0,17.0,1644597804.28125,P05,D07,0,0,0
1341,58.0,-17.0,17.0,1644597804.3125,P05,D07,0,0,0
1342,58.0,-16.0,17.0,1644597804.34375,P05,D07,0,0,0
1343,58.0,-17.0,17.0,1644597804.375,P05,D07,0,0,0
1344,58.0,-17.0,17.0,1644597804.40625,P05,D07,0,0,0
1345,58.0,-17.0,17.0,1644597804.4375,P05,D07,0,0,0
1346,58.0,-17.0,17.0,1644597804.46875,P05,D07,0,0,0
1347,58.0,-17.0,16.0,1644597804.5,P05,D07,0,0,0
1348,58.0,-17.0,17.0,1644597804.53125,P05,D07,0,0,0
1349,57.0,-17.0,17.0,1644597804.5625,P05,D07,0,0,0
1350,58.0,-17.0,17.0,1644597804.59375,P05,D07,0,0,0
1351,58.0,-17.0,17.0,1644597804.625,P05,D07,0,0,0
1352,57.0,-17.0,17.0,1644597804.65625,P05,D07,0,0,0
1353,58.0,-17.0,17.0,1644597804.6875,P05,D07,0,0,0
1354,58.0,-17.0,17.0,1644597804.71875,P05,D07,0,0,0
1355,57.0,-17.0,17.0,1644597804.75,P05,D07,0,0,0
1356,58.0,-17.0,16.0,1644597804.78125,P05,D07,0,0,0
1357,58.0,-17.0,17.0,1644597804.8125,P05,D07,0,0,0
1358,57.0,-17.0,17.0,1644597804.84375,P05,D07,0,0,0
1359,57.0,-17.0,17.0,1644597804.875,P05,D07,0,0,0
1360,58.0,-17.0,17.0,1644597804.90625,P05,D07,0,0,0
1361,57.0,-17.0,17.0,1644597804.9375,P05,D07,0,0,0
1362,58.0,-17.0,17.0,1644597804.96875,P05,D07,0,0,0
1363,58.0,-17.0,17.0,1644597805.0,P05,D07,0,0,0
1364,58.0,-16.0,17.0,1644597805.03125,P05,D07,0,0,0
1365,58.0,-17.0,17.0,1644597805.0625,P05,D07,0,0,0
1366,57.0,-17.0,17.0,1644597805.09375,P05,D07,0,0,0
1367,58.0,-17.0,17.0,1644597805.125,P05,D07,0,0,0
1368,58.0,-17.0,17.0,1644597805.15625,P05,D07,0,0,0
1369,58.0,-17.0,17.0,1644597805.1875,P05,D07,0,0,0
1370,58.0,-17.0,17.0,1644597805.21875,P05,D07,0,0,0
1371,58.0,-16.0,17.0,1644597805.25,P05,D07,0,0,0
1372,58.0,-17.0,17.0,1644597805.28125,P05,D07,0,0,0
1373,58.0,-17.0,17.0,1644597805.3125,P05,D07,0,0,0
1374,57.0,-17.0,17.0,1644597805.34375,P05,D07,0,0,0
1375,57.0,-16.0,17.0,1644597805.375,P05,D07,0,0,0
1376,57.0,-17.0,17.0,1644597805.40625,P05,D07,0,0,0
1377,58.0,-17.0,17.0,1644597805.4375,P05,D07,0,0,0
1378,58.0,-17.0,17.0,1644597805.46875,P05,D07,0,0,0
1379,58.0,-17.0,17.0,1644597805.5,P05,D07,0,0,0
1380,58.0,-16.0,17.0,1644597805.53125,P05,D07,0,0,0
1381,57.0,-17.0,17.0,1644597805.5625,P05,D07,0,0,0
1382,58.0,-17.0,17.0,1644597805.59375,P05,D07,0,0,0
1383,58.0,-17.0,17.0,1644597805.625,P05,D07,0,0,0
1384,58.0,-16.0,17.0,1644597805.65625,P05,D07,0,0,0
1385,58.0,-17.0,17.0,1644597805.6875,P05,D07,0,0,0
1386,58.0,-16.0,17.0,1644597805.71875,P05,D07,0,0,0
1387,57.0,-17.0,17.0,1644597805.75,P05,D07,0,0,0
1388,58.0,-17.0,17.0,1644597805.78125,P05,D07,0,0,0
1389,58.0,-17.0,17.0,1644597805.8125,P05,D07,0,0,0
1390,58.0,-16.0,17.0,1644597805.84375,P05,D07,0,0,0
1391,58.0,-16.0,17.0,1644597805.875,P05,D07,0,0,0
1392,58.0,-17.0,17.0,1644597805.90625,P05,D07,0,0,0
1393,58.0,-16.0,17.0,1644597805.9375,P05,D07,0,0,0
1394,57.0,-16.0,17.0,1644597805.96875,P05,D07,0,0,0
1395,57.0,-16.0,17.0,1644597806.0,P05,D07,0,0,0
1396,57.0,-17.0,17.0,1644597806.03125,P05,D07,0,0,0
1397,58.0,-16.0,17.0,1644597806.0625,P05,D07,0,0,0
1398,57.0,-17.0,17.0,1644597806.09375,P05,D07,0,0,0
1399,57.0,-16.0,17.0,1644597806.125,P05,D07,0,0,0
1400,58.0,-16.0,17.0,1644597806.15625,P05,D07,0,0,0
1401,58.0,-16.0,17.0,1644597806.1875,P05,D07,0,0,0
1402,57.0,-16.0,17.0,1644597806.21875,P05,D07,0,0,0
1403,58.0,-16.0,17.0,1644597806.25,P05,D07,0,0,0
1404,58.0,-17.0,17.0,1644597806.28125,P05,D07,0,0,0
1405,58.0,-16.0,17.0,1644597806.3125,P05,D07,0,0,0
1406,58.0,-16.0,17.0,1644597806.34375,P05,D07,0,0,0
1407,57.0,-16.0,17.0,1644597806.375,P05,D07,0,0,0
1408,58.0,-16.0,17.0,1644597806.40625,P05,D07,0,0,0
1409,58.0,-17.0,17.0,1644597806.4375,P05,D07,0,0,0
1410,57.0,-16.0,17.0,1644597806.46875,P05,D07,0,0,0
1411,58.0,-17.0,17.0,1644597806.5,P05,D07,0,0,0
1412,58.0,-16.0,17.0,1644597806.53125,P05,D07,0,0,0
1413,58.0,-17.0,17.0,1644597806.5625,P05,D07,0,0,0
1414,58.0,-17.0,17.0,1644597806.59375,P05,D07,0,0,0
1415,58.0,-16.0,17.0,1644597806.625,P05,D07,0,0,0
1416,58.0,-17.0,17.0,1644597806.65625,P05,D07,0,0,0
1417,58.0,-16.0,17.0,1644597806.6875,P05,D07,0,0,0
1418,57.0,-16.0,17.0,1644597806.71875,P05,D07,0,0,0
1419,58.0,-17.0,17.0,1644597806.75,P05,D07,0,0,0
1420,58.0,-16.0,17.0,1644597806.78125,P05,D07,0,0,0
1421,57.0,-16.0,17.0,1644597806.8125,P05,D07,0,0,0
1422,58.0,-16.0,17.0,1644597806.84375,P05,D07,0,0,0
1423,58.0,-17.0,17.0,1644597806.875,P05,D07,0,0,0
1424,58.0,-17.0,17.0,1644597806.90625,P05,D07,0,0,0
1425,57.0,-16.0,17.0,1644597806.9375,P05,D07,0,0,0
1426,57.0,-17.0,17.0,1644597806.96875,P05,D07,0,0,0
1427,58.0,-16.0,17.0,1644597807.0,P05,D07,0,0,0
1428,58.0,-16.0,17.0,1644597807.03125,P05,D07,0,0,0
1429,58.0,-16.0,17.0,1644597807.0625,P05,D07,0,0,0
1430,58.0,-16.0,17.0,1644597807.09375,P05,D07,0,0,0
1431,57.0,-16.0,17.0,1644597807.125,P05,D07,0,0,0
1432,57.0,-16.0,17.0,1644597807.15625,P05,D07,0,0,0
1433,57.0,-17.0,17.0,1644597807.1875,P05,D07,0,0,0
1434,57.0,-17.0,17.0,1644597807.21875,P05,D07,0,0,0
1435,57.0,-16.0,17.0,1644597807.25,P05,D07,0,0,0
1436,58.0,-17.0,17.0,1644597807.28125,P05,D07,0,0,0
1437,58.0,-17.0,17.0,1644597807.3125,P05,D07,0,0,0
1438,58.0,-16.0,17.0,1644597807.34375,P05,D07,0,0,0
1439,58.0,-16.0,17.0,1644597807.375,P05,D07,0,0,0
1440,58.0,-16.0,17.0,1644597807.40625,P05,D07,0,0,0
1441,57.0,-16.0,17.0,1644597807.4375,P05,D07,0,0,0
1442,58.0,-16.0,17.0,1644597807.46875,P05,D07,0,0,0
1443,58.0,-17.0,17.0,1644597807.5,P05,D07,0,0,0
1444,57.0,-16.0,17.0,1644597807.53125,P05,D07,0,0,0
1445,58.0,-17.0,17.0,1644597807.5625,P05,D07,0,0,0
1446,58.0,-17.0,17.0,1644597807.59375,P05,D07,0,0,0
1447,58.0,-16.0,17.0,1644597807.625,P05,D07,0,0,0
1448,58.0,-16.0,17.0,1644597807.65625,P05,D07,0,0,0
1449,57.0,-16.0,17.0,1644597807.6875,P05,D07,0,0,0
1450,57.0,-16.0,17.0,1644597807.71875,P05,D07,0,0,0
1451,58.0,-16.0,17.0,1644597807.75,P05,D07,0,0,0
1452,57.0,-16.0,17.0,1644597807.78125,P05,D07,0,0,0
1453,58.0,-16.0,17.0,1644597807.8125,P05,D07,0,0,0
1454,58.0,-16.0,17.0,1644597807.84375,P05,D07,0,0,0
1455,58.0,-17.0,17.0,1644597807.875,P05,D07,0,0,0
1456,58.0,-16.0,17.0,1644597807.90625,P05,D07,0,0,0
1457,58.0,-17.0,17.0,1644597807.9375,P05,D07,0,0,0
1458,58.0,-17.0,17.0,1644597807.96875,P05,D07,0,0,0
1459,57.0,-16.0,17.0,1644597808.0,P05,D07,0,0,0
1460,58.0,-17.0,17.0,1644597808.03125,P05,D07,0,0,0
1461,57.0,-17.0,17.0,1644597808.0625,P05,D07,0,0,0
1462,57.0,-17.0,17.0,1644597808.09375,P05,D07,0,0,0
1463,57.0,-17.0,17.0,1644597808.125,P05,D07,0,0,0
1464,58.0,-17.0,17.0,1644597808.15625,P05,D07,0,0,0
1465,58.0,-16.0,16.0,1644597808.1875,P05,D07,0,0,0
1466,57.0,-16.0,17.0,1644597808.21875,P05,D07,0,0,0
1467,58.0,-17.0,17.0,1644597808.25,P05,D07,0,0,0
1468,57.0,-17.0,17.0,1644597808.28125,P05,D07,0,0,0
1469,58.0,-16.0,17.0,1644597808.3125,P05,D07,0,0,0
1470,58.0,-16.0,17.0,1644597808.34375,P05,D07,0,0,0
1471,57.0,-17.0,17.0,1644597808.375,P05,D07,0,0,0
1472,57.0,-17.0,17.0,1644597808.40625,P05,D07,0,0,0
1473,57.0,-17.0,17.0,1644597808.4375,P05,D07,0,0,0
1474,57.0,-17.0,17.0,1644597808.46875,P05,D07,0,0,0
1475,58.0,-16.0,17.0,1644597808.5,P05,D07,0,0,0
1476,58.0,-16.0,17.0,1644597808.53125,P05,D07,0,0,0
1477,58.0,-16.0,17.0,1644597808.5625,P05,D07,0,0,0
1478,57.0,-17.0,17.0,1644597808.59375,P05,D07,0,0,0
1479,58.0,-17.0,17.0,1644597808.625,P05,D07,0,0,0
1480,58.0,-17.0,17.0,1644597808.65625,P05,D07,0,0,0
1481,57.0,-17.0,17.0,1644597808.6875,P05,D07,0,0,0
1482,57.0,-17.0,17.0,1644597808.71875,P05,D07,0,0,0
1483,57.0,-17.0,17.0,1644597808.75,P05,D07,0,0,0
1484,57.0,-17.0,17.0,1644597808.78125,P05,D07,0,0,0
1485,58.0,-17.0,17.0,1644597808.8125,P05,D07,0,0,0
1486,57.0,-17.0,17.0,1644597808.84375,P05,D07,0,0,0
1487,58.0,-17.0,17.0,1644597808.875,P05,D07,0,0,0
1488,58.0,-17.0,17.0,1644597808.90625,P05,D07,0,0,0
1489,58.0,-17.0,17.0,1644597808.9375,P05,D07,0,0,0
1490,58.0,-17.0,17.0,1644597808.96875,P05,D07,0,0,0
1491,58.0,-17.0,17.0,1644597809.0,P05,D07,0,0,0
1492,57.0,-17.0,17.0,1644597809.03125,P05,D07,0,0,0
1493,58.0,-17.0,16.0,1644597809.0625,P05,D07,0,0,0
1494,58.0,-17.0,16.0,1644597809.09375,P05,D07,0,0,0
1495,57.0,-17.0,17.0,1644597809.125,P05,D07,0,0,0
1496,57.0,-17.0,17.0,1644597809.15625,P05,D07,0,0,0
1497,58.0,-17.0,17.0,1644597809.1875,P05,D07,0,0,0
1498,58.0,-17.0,17.0,1644597809.21875,P05,D07,0,0,0
1499,57.0,-16.0,17.0,1644597809.25,P05,D07,0,0,0
1500,57.0,-16.0,17.0,1644597809.28125,P05,D07,0,0,0
1501,57.0,-16.0,17.0,1644597809.3125,P05,D07,0,0,0
1502,58.0,-17.0,17.0,1644597809.34375,P05,D07,0,0,0
1503,57.0,-17.0,17.0,1644597809.375,P05,D07,0,0,0
1504,57.0,-17.0,17.0,1644597809.40625,P05,D07,0,0,0
1505,58.0,-17.0,17.0,1644597809.4375,P05,D07,0,0,0
1506,58.0,-17.0,17.0,1644597809.46875,P05,D07,0,0,0
1507,57.0,-17.0,17.0,1644597809.5,P05,D07,0,0,0
1508,58.0,-17.0,17.0,1644597809.53125,P05,D07,0,0,0
1509,58.0,-17.0,17.0,1644597809.5625,P05,D07,0,0,0
1510,57.0,-16.0,17.0,1644597809.59375,P05,D07,0,0,0
1511,58.0,-17.0,17.0,1644597809.625,P05,D07,0,0,0
1512,58.0,-16.0,17.0,1644597809.65625,P05,D07,0,0,0
1513,57.0,-16.0,17.0,1644597809.6875,P05,D07,0,0,0
1514,58.0,-16.0,17.0,1644597809.71875,P05,D07,0,0,0
1515,58.0,-16.0,17.0,1644597809.75,P05,D07,0,0,0
1516,58.0,-16.0,17.0,1644597809.78125,P05,D07,0,0,0
1517,57.0,-17.0,17.0,1644597809.8125,P05,D07,0,0,0
1518,58.0,-16.0,17.0,1644597809.84375,P05,D07,0,0,0
1519,58.0,-16.0,17.0,1644597809.875,P05,D07,0,0,0
1520,58.0,-16.0,17.0,1644597809.90625,P05,D07,0,0,0
1521,57.0,-16.0,17.0,1644597809.9375,P05,D07,0,0,0
1522,58.0,-16.0,17.0,1644597809.96875,P05,D07,0,0,0
1523,58.0,-16.0,17.0,1644597810.0,P05,D07,0,0,0
1524,58.0,-16.0,17.0,1644597810.03125,P05,D07,0,0,0
1525,58.0,-16.0,17.0,1644597810.0625,P05,D07,0,0,0
1526,57.0,-16.0,17.0,1644597810.09375,P05,D07,0,0,0
1527,58.0,-16.0,17.0,1644597810.125,P05,D07,0,0,0
1528,58.0,-16.0,17.0,1644597810.15625,P05,D07,0,0,0
1529,58.0,-16.0,17.0,1644597810.1875,P05,D07,0,0,0
1530,57.0,-17.0,17.0,1644597810.21875,P05,D07,0,0,0
1531,58.0,-16.0,17.0,1644597810.25,P05,D07,0,0,0
1532,58.0,-16.0,17.0,1644597810.28125,P05,D07,0,0,0
1533,58.0,-16.0,17.0,1644597810.3125,P05,D07,0,0,0
1534,58.0,-16.0,17.0,1644597810.34375,P05,D07,0,0,0
1535,58.0,-16.0,17.0,1644597810.375,P05,D07,0,0,0
1536,58.0,-16.0,17.0,1644597810.40625,P05,D07,0,0,0
1537,58.0,-16.0,17.0,1644597810.4375,P05,D07,0,0,0
1538,58.0,-16.0,17.0,1644597810.46875,P05,D07,0,0,0
1539,58.0,-16.0,17.0,1644597810.5,P05,D07,0,0,0
1540,58.0,-17.0,17.0,1644597810.53125,P05,D07,0,0,0
1541,58.0,-17.0,17.0,1644597810.5625,P05,D07,0,0,0
1542,58.0,-16.0,17.0,1644597810.59375,P05,D07,0,0,0
1543,57.0,-17.0,17.0,1644597810.625,P05,D07,0,0,0
1544,58.0,-17.0,17.0,1644597810.65625,P05,D07,0,0,0
1545,58.0,-16.0,17.0,1644597810.6875,P05,D07,0,0,0
1546,57.0,-16.0,17.0,1644597810.71875,P05,D07,0,0,0
1547,58.0,-16.0,17.0,1644597810.75,P05,D07,0,0,0
1548,58.0,-16.0,17.0,1644597810.78125,P05,D07,0,0,0
1549,58.0,-16.0,17.0,1644597810.8125,P05,D07,0,0,0
1550,58.0,-16.0,17.0,1644597810.84375,P05,D07,0,0,0
1551,58.0,-17.0,17.0,1644597810.875,P05,D07,0,0,0
1552,58.0,-17.0,17.0,1644597810.90625,P05,D07,0,0,0
1553,58.0,-17.0,17.0,1644597810.9375,P05,D07,0,0,0
1554,58.0,-16.0,17.0,1644597810.96875,P05,D07,0,0,0
1555,58.0,-17.0,17.0,1644597811.0,P05,D07,0,0,0
1556,57.0,-16.0,17.0,1644597811.03125,P05,D07,0,0,0
1557,58.0,-17.0,17.0,1644597811.0625,P05,D07,0,0,0
1558,58.0,-16.0,17.0,1644597811.09375,P05,D07,0,0,0
1559,57.0,-17.0,17.0,1644597811.125,P05,D07,0,0,0
1560,58.0,-17.0,17.0,1644597811.15625,P05,D07,0,0,0
1561,58.0,-16.0,17.0,1644597811.1875,P05,D07,0,0,0
1562,58.0,-17.0,17.0,1644597811.21875,P05,D07,0,0,0
1563,58.0,-17.0,17.0,1644597811.25,P05,D07,0,0,0
1564,58.0,-16.0,17.0,1644597811.28125,P05,D07,0,0,0
1565,57.0,-17.0,17.0,1644597811.3125,P05,D07,0,0,0
1566,57.0,-17.0,17.0,1644597811.34375,P05,D07,0,0,0
1567,58.0,-17.0,17.0,1644597811.375,P05,D07,0,0,0
1568,58.0,-17.0,17.0,1644597811.40625,P05,D07,0,0,0
1569,58.0,-17.0,17.0,1644597811.4375,P05,D07,0,0,0
1570,58.0,-17.0,17.0,1644597811.46875,P05,D07,0,0,0
1571,58.0,-17.0,17.0,1644597811.5,P05,D07,0,0,0
1572,58.0,-17.0,17.0,1644597811.53125,P05,D07,0,0,0
1573,57.0,-17.0,17.0,1644597811.5625,P05,D07,0,0,0
1574,58.0,-17.0,17.0,1644597811.59375,P05,D07,0,0,0
1575,58.0,-17.0,16.0,1644597811.625,P05,D07,0,0,0
1576,57.0,-17.0,17.0,1644597811.65625,P05,D07,0,0,0
1577,57.0,-17.0,17.0,1644597811.6875,P05,D07,0,0,0
1578,57.0,-17.0,17.0,1644597811.71875,P05,D07,0,0,0
1579,58.0,-17.0,17.0,1644597811.75,P05,D07,0,0,0
1580,57.0,-17.0,17.0,1644597811.78125,P05,D07,0,0,0
1581,57.0,-17.0,17.0,1644597811.8125,P05,D07,0,0,0
1582,58.0,-16.0,17.0,1644597811.84375,P05,D07,0,0,0
1583,58.0,-16.0,17.0,1644597811.875,P05,D07,0,0,0
1584,58.0,-17.0,17.0,1644597811.90625,P05,D07,0,0,0
1585,58.0,-16.0,17.0,1644597811.9375,P05,D07,0,0,0
1586,58.0,-17.0,17.0,1644597811.96875,P05,D07,0,0,0
1587,58.0,-17.0,17.0,1644597812.0,P05,D07,0,0,0
1588,58.0,-17.0,17.0,1644597812.03125,P05,D07,0,0,0
1589,57.0,-17.0,17.0,1644597812.0625,P05,D07,0,0,0
1590,58.0,-17.0,17.0,1644597812.09375,P05,D07,0,0,0
1591,58.0,-17.0,17.0,1644597812.125,P05,D07,0,0,0
1592,57.0,-17.0,17.0,1644597812.15625,P05,D07,0,0,0
1593,58.0,-16.0,17.0,1644597812.1875,P05,D07,0,0,0
1594,58.0,-16.0,17.0,1644597812.21875,P05,D07,0,0,0
1595,58.0,-17.0,17.0,1644597812.25,P05,D07,0,0,0
1596,58.0,-17.0,17.0,1644597812.28125,P05,D07,0,0,0
1597,57.0,-17.0,17.0,1644597812.3125,P05,D07,0,0,0
1598,58.0,-17.0,17.0,1644597812.34375,P05,D07,0,0,0
1599,58.0,-17.0,17.0,1644597812.375,P05,D07,0,0,0
1600,58.0,-17.0,17.0,1644597812.40625,P05,D07,0,0,0
1601,58.0,-17.0,17.0,1644597812.4375,P05,D07,0,0,0
1602,58.0,-17.0,17.0,1644597812.46875,P05,D07,0,0,0
1603,57.0,-17.0,17.0,1644597812.5,P05,D07,0,0,0
1604,58.0,-17.0,17.0,1644597812.53125,P05,D07,0,0,0
1605,58.0,-17.0,17.0,1644597812.5625,P05,D07,0,0,0
1606,58.0,-17.0,17.0,1644597812.59375,P05,D07,0,0,0
1607,58.0,-16.0,17.0,1644597812.625,P05,D07,0,0,0
1608,58.0,-16.0,17.0,1644597812.65625,P05,D07,0,0,0
1609,58.0,-16.0,17.0,1644597812.6875,P05,D07,0,0,0
1610,58.0,-16.0,17.0,1644597812.71875,P05,D07,0,0,0
1611,58.0,-17.0,17.0,1644597812.75,P05,D07,0,0,0
1612,58.0,-16.0,17.0,1644597812.78125,P05,D07,0,0,0
1613,58.0,-16.0,17.0,1644597812.8125,P05,D07,0,0,0
1614,57.0,-16.0,17.0,1644597812.84375,P05,D07,0,0,0
1615,57.0,-16.0,17.0,1644597812.875,P05,D07,0,0,0
1616,58.0,-16.0,17.0,1644597812.90625,P05,D07,0,0,0
1617,58.0,-16.0,17.0,1644597812.9375,P05,D07,0,0,0
1618,58.0,-16.0,17.0,1644597812.96875,P05,D07,0,0,0
1619,58.0,-16.0,17.0,1644597813.0,P05,D07,0,0,0
1620,58.0,-16.0,17.0,1644597813.03125,P05,D07,0,0,0
1621,58.0,-16.0,17.0,1644597813.0625,P05,D07,0,0,0
1622,57.0,-16.0,17.0,1644597813.09375,P05,D07,0,0,0
1623,58.0,-16.0,17.0,1644597813.125,P05,D07,0,0,0
1624,57.0,-16.0,17.0,1644597813.15625,P05,D07,0,0,0
1625,58.0,-17.0,17.0,1644597813.1875,P05,D07,0,0,0
1626,57.0,-16.0,17.0,1644597813.21875,P05,D07,0,0,0
1627,58.0,-16.0,17.0,1644597813.25,P05,D07,0,0,0
1628,58.0,-16.0,17.0,1644597813.28125,P05,D07,0,0,0
1629,58.0,-16.0,17.0,1644597813.3125,P05,D07,0,0,0
1630,57.0,-17.0,17.0,1644597813.34375,P05,D07,0,0,0
1631,57.0,-16.0,17.0,1644597813.375,P05,D07,0,0,0
1632,57.0,-17.0,17.0,1644597813.40625,P05,D07,0,0,0
1633,57.0,-16.0,17.0,1644597813.4375,P05,D07,0,0,0
1634,58.0,-16.0,17.0,1644597813.46875,P05,D07,0,0,0
1635,58.0,-16.0,17.0,1644597813.5,P05,D07,0,0,0
1636,58.0,-16.0,17.0,1644597813.53125,P05,D07,0,0,0
1637,58.0,-16.0,17.0,1644597813.5625,P05,D07,0,0,0
1638,58.0,-16.0,17.0,1644597813.59375,P05,D07,0,0,0
1639,57.0,-17.0,17.0,1644597813.625,P05,D07,0,0,0
1640,58.0,-16.0,17.0,1644597813.65625,P05,D07,0,0,0
1641,58.0,-16.0,17.0,1644597813.6875,P05,D07,0,0,0
1642,58.0,-16.0,17.0,1644597813.71875,P05,D07,0,0,0
1643,58.0,-16.0,17.0,1644597813.75,P05,D07,0,0,0
1644,58.0,-16.0,17.0,1644597813.78125,P05,D07,0,0,0
1645,57.0,-17.0,17.0,1644597813.8125,P05,D07,0,0,0
1646,58.0,-17.0,17.0,1644597813.84375,P05,D07,0,0,0
1647,57.0,-17.0,17.0,1644597813.875,P05,D07,0,0,0
1648,58.0,-17.0,17.0,1644597813.90625,P05,D07,0,0,0
1649,57.0,-17.0,17.0,1644597813.9375,P05,D07,0,0,0
1650,57.0,-16.0,17.0,1644597813.96875,P05,D07,0,0,0
1651,57.0,-17.0,17.0,1644597814.0,P05,D07,0,0,0
1652,58.0,-17.0,17.0,1644597814.03125,P05,D07,0,0,0
1653,58.0,-17.0,17.0,1644597814.0625,P05,D07,0,0,0
1654,57.0,-17.0,17.0,1644597814.09375,P05,D07,0,0,0
1655,58.0,-17.0,17.0,1644597814.125,P05,D07,0,0,0
1656,57.0,-17.0,17.0,1644597814.15625,P05,D07,0,0,0
1657,57.0,-17.0,17.0,1644597814.1875,P05,D07,0,0,0
1658,58.0,-17.0,17.0,1644597814.21875,P05,D07,0,0,0
1659,58.0,-17.0,17.0,1644597814.25,P05,D07,0,0,0
1660,57.0,-17.0,17.0,1644597814.28125,P05,D07,0,0,0
1661,57.0,-17.0,16.0,1644597814.3125,P05,D07,0,0,0
1662,57.0,-17.0,16.0,1644597814.34375,P05,D07,0,0,0
1663,58.0,-17.0,16.0,1644597814.375,P05,D07,0,0,0
1664,58.0,-17.0,16.0,1644597814.40625,P05,D07,0,0,0
1665,57.0,-16.0,17.0,1644597814.4375,P05,D07,0,0,0
1666,58.0,-16.0,16.0,1644597814.46875,P05,D07,0,0,0
1667,58.0,-16.0,17.0,1644597814.5,P05,D07,0,0,0
1668,58.0,-17.0,17.0,1644597814.53125,P05,D07,0,0,0
1669,58.0,-16.0,16.0,1644597814.5625,P05,D07,0,0,0
1670,58.0,-16.0,16.0,1644597814.59375,P05,D07,0,0,0
1671,58.0,-16.0,16.0,1644597814.625,P05,D07,0,0,0
1672,58.0,-17.0,16.0,1644597814.65625,P05,D07,0,0,0
1673,58.0,-17.0,16.0,1644597814.6875,P05,D07,0,0,0
1674,58.0,-17.0,16.0,1644597814.71875,P05,D07,0,0,0
1675,58.0,-17.0,16.0,1644597814.75,P05,D07,0,0,0
1676,58.0,-17.0,15.0,1644597814.78125,P05,D07,0,0,0
1677,58.0,-17.0,15.0,1644597814.8125,P05,D07,0,0,0
1678,58.0,-17.0,15.0,1644597814.84375,P05,D07,0,0,0
1679,58.0,-17.0,15.0,1644597814.875,P05,D07,0,0,0
1680,58.0,-17.0,15.0,1644597814.90625,P05,D07,0,0,0
1681,57.0,-17.0,15.0,1644597814.9375,P05,D07,0,0,0
1682,58.0,-17.0,15.0,1644597814.96875,P05,D07,0,0,0
1683,58.0,-17.0,15.0,1644597815.0,P05,D07,0,0,0
1684,58.0,-17.0,15.0,1644597815.03125,P05,D07,0,0,0
1685,58.0,-17.0,15.0,1644597815.0625,P05,D07,0,0,0
1686,58.0,-17.0,15.0,1644597815.09375,P05,D07,0,0,0
1687,58.0,-16.0,15.0,1644597815.125,P05,D07,0,0,0
1688,58.0,-16.0,15.0,1644597815.15625,P05,D07,0,0,0
1689,58.0,-17.0,15.0,1644597815.1875,P05,D07,0,0,0
1690,58.0,-16.0,15.0,1644597815.21875,P05,D07,0,0,0
1691,58.0,-17.0,15.0,1644597815.25,P05,D07,0,0,0
1692,58.0,-17.0,15.0,1644597815.28125,P05,D07,0,0,0
1693,58.0,-17.0,15.0,1644597815.3125,P05,D07,0,0,0
1694,58.0,-16.0,15.0,1644597815.34375,P05,D07,0,0,0
1695,58.0,-16.0,15.0,1644597815.375,P05,D07,0,0,0
1696,58.0,-16.0,15.0,1644597815.40625,P05,D07,0,0,0
1697,58.0,-16.0,15.0,1644597815.4375,P05,D07,0,0,0
1698,58.0,-16.0,15.0,1644597815.46875,P05,D07,0,0,0
1699,59.0,-16.0,15.0,1644597815.5,P05,D07,0,0,0
1700,58.0,-16.0,15.0,1644597815.53125,P05,D07,0,0,0
1701,58.0,-16.0,16.0,1644597815.5625,P05,D07,0,0,0
1702,58.0,-16.0,15.0,1644597815.59375,P05,D07,0,0,0
1703,58.0,-16.0,15.0,1644597815.625,P05,D07,0,0,0
1704,58.0,-16.0,15.0,1644597815.65625,P05,D07,0,0,0
1705,58.0,-16.0,15.0,1644597815.6875,P05,D07,0,0,0
1706,58.0,-16.0,15.0,1644597815.71875,P05,D07,0,0,0
1707,58.0,-16.0,15.0,1644597815.75,P05,D07,0,0,0
1708,58.0,-16.0,15.0,1644597815.78125,P05,D07,0,0,0
1709,58.0,-16.0,15.0,1644597815.8125,P05,D07,0,0,0
1710,58.0,-16.0,15.0,1644597815.84375,P05,D07,0,0,0
1711,58.0,-16.0,16.0,1644597815.875,P05,D07,0,0,0
1712,58.0,-16.0,16.0,1644597815.90625,P05,D07,0,0,0
1713,58.0,-16.0,15.0,1644597815.9375,P05,D07,0,0,0
1714,58.0,-16.0,16.0,1644597815.96875,P05,D07,0,0,0
1715,58.0,-16.0,15.0,1644597816.0,P05,D07,0,0,0
1716,58.0,-16.0,16.0,1644597816.03125,P05,D07,0,0,0
1717,58.0,-16.0,16.0,1644597816.0625,P05,D07,0,0,0
1718,58.0,-16.0,16.0,1644597816.09375,P05,D07,0,0,0
1719,59.0,-16.0,16.0,1644597816.125,P05,D07,0,0,0
1720,58.0,-16.0,16.0,1644597816.15625,P05,D07,0,0,0
1721,58.0,-15.0,16.0,1644597816.1875,P05,D07,0,0,0
1722,58.0,-16.0,16.0,1644597816.21875,P05,D07,0,0,0
1723,58.0,-16.0,16.0,1644597816.25,P05,D07,0,0,0
1724,58.0,-16.0,16.0,1644597816.28125,P05,D07,0,0,0
1725,58.0,-16.0,16.0,1644597816.3125,P05,D07,0,0,0
1726,58.0,-16.0,16.0,1644597816.34375,P05,D07,0,0,0
1727,58.0,-16.0,16.0,1644597816.375,P05,D07,0,0,0
1728,58.0,-16.0,16.0,1644597816.40625,P05,D07,0,0,0
1729,58.0,-16.0,16.0,1644597816.4375,P05,D07,0,0,0
1730,58.0,-16.0,16.0,1644597816.46875,P05,D07,0,0,0
1731,58.0,-16.0,16.0,1644597816.5,P05,D07,0,0,0
1732,58.0,-16.0,16.0,1644597816.53125,P05,D07,0,0,0
1733,58.0,-16.0,16.0,1644597816.5625,P05,D07,0,0,0
1734,58.0,-16.0,16.0,1644597816.59375,P05,D07,0,0,0
1735,58.0,-16.0,16.0,1644597816.625,P05,D07,0,0,0
1736,58.0,-16.0,16.0,1644597816.65625,P05,D07,0,0,0
1737,58.0,-16.0,16.0,1644597816.6875,P05,D07,0,0,0
1738,58.0,-16.0,16.0,1644597816.71875,P05,D07,0,0,0
1739,58.0,-16.0,16.0,1644597816.75,P05,D07,0,0,0
1740,58.0,-16.0,16.0,1644597816.78125,P05,D07,0,0,0
1741,58.0,-16.0,16.0,1644597816.8125,P05,D07,0,0,0
1742,58.0,-16.0,16.0,1644597816.84375,P05,D07,0,0,0
1743,58.0,-16.0,16.0,1644597816.875,P05,D07,0,0,0
1744,58.0,-16.0,16.0,1644597816.90625,P05,D07,0,0,0
1745,58.0,-16.0,16.0,1644597816.9375,P05,D07,0,0,0
1746,58.0,-16.0,16.0,1644597816.96875,P05,D07,0,0,0
1747,58.0,-16.0,16.0,1644597817.0,P05,D07,0,0,0
1748,58.0,-16.0,16.0,1644597817.03125,P05,D07,0,0,0
1749,58.0,-16.0,16.0,1644597817.0625,P05,D07,0,0,0
1750,58.0,-16.0,16.0,1644597817.09375,P05,D07,0,0,0
1751,58.0,-16.0,16.0,1644597817.125,P05,D07,0,0,0
1752,58.0,-16.0,16.0,1644597817.15625,P05,D07,0,0,0
1753,58.0,-16.0,16.0,1644597817.1875,P05,D07,0,0,0
1754,58.0,-16.0,16.0,1644597817.21875,P05,D07,0,0,0
1755,58.0,-16.0,16.0,1644597817.25,P05,D07,0,0,0
1756,58.0,-16.0,16.0,1644597817.28125,P05,D07,0,0,0
1757,58.0,-16.0,16.0,1644597817.3125,P05,D07,0,0,0
1758,58.0,-16.0,16.0,1644597817.34375,P05,D07,0,0,0
1759,58.0,-16.0,16.0,1644597817.375,P05,D07,0,0,0
1760,58.0,-16.0,16.0,1644597817.40625,P05,D07,0,0,0
1761,58.0,-16.0,16.0,1644597817.4375,P05,D07,0,0,0
1762,58.0,-16.0,16.0,1644597817.46875,P05,D07,0,0,0
1763,58.0,-16.0,16.0,1644597817.5,P05,D07,0,0,0
1764,58.0,-16.0,16.0,1644597817.53125,P05,D07,0,0,0
1765,58.0,-16.0,16.0,1644597817.5625,P05,D07,0,0,0
1766,58.0,-16.0,16.0,1644597817.59375,P05,D07,0,0,0
1767,58.0,-16.0,16.0,1644597817.625,P05,D07,0,0,0
1768,58.0,-16.0,16.0,1644597817.65625,P05,D07,0,0,0
1769,58.0,-16.0,16.0,1644597817.6875,P05,D07,0,0,0
1770,58.0,-16.0,16.0,1644597817.71875,P05,D07,0,0,0
1771,58.0,-16.0,16.0,1644597817.75,P05,D07,0,0,0
1772,58.0,-16.0,16.0,1644597817.78125,P05,D07,0,0,0
1773,58.0,-16.0,16.0,1644597817.8125,P05,D07,0,0,0
1774,58.0,-16.0,16.0,1644597817.84375,P05,D07,0,0,0
1775,58.0,-16.0,16.0,1644597817.875,P05,D07,0,0,0
1776,58.0,-16.0,16.0,1644597817.90625,P05,D07,0,0,0
1777,58.0,-16.0,16.0,1644597817.9375,P05,D07,0,0,0
1778,58.0,-16.0,16.0,1644597817.96875,P05,D07,0,0,0
1779,58.0,-16.0,16.0,1644597818.0,P05,D07,0,0,0
1780,58.0,-16.0,16.0,1644597818.03125,P05,D07,0,0,0
1781,58.0,-16.0,16.0,1644597818.0625,P05,D07,0,0,0
1782,58.0,-16.0,16.0,1644597818.09375,P05,D07,0,0,0
1783,58.0,-16.0,16.0,1644597818.125,P05,D07,0,0,0
1784,58.0,-16.0,16.0,1644597818.15625,P05,D07,0,0,0
1785,58.0,-16.0,16.0,1644597818.1875,P05,D07,0,0,0
1786,58.0,-16.0,16.0,1644597818.21875,P05,D07,0,0,0
1787,58.0,-16.0,16.0,1644597818.25,P05,D07,0,0,0
1788,58.0,-16.0,16.0,1644597818.28125,P05,D07,0,0,0
1789,58.0,-16.0,16.0,1644597818.3125,P05,D07,0,0,0
1790,58.0,-16.0,16.0,1644597818.34375,P05,D07,0,0,0
1791,58.0,-16.0,16.0,1644597818.375,P05,D07,0,0,0
1792,58.0,-16.0,16.0,1644597818.40625,P05,D07,0,0,0
1793,58.0,-16.0,16.0,1644597818.4375,P05,D07,0,0,0
1794,58.0,-16.0,17.0,1644597818.46875,P05,D07,0,0,0
1795,58.0,-16.0,16.0,1644597818.5,P05,D07,0,0,0
1796,58.0,-16.0,16.0,1644597818.53125,P05,D07,0,0,0
1797,58.0,-16.0,16.0,1644597818.5625,P05,D07,0,0,0
1798,57.0,-16.0,16.0,1644597818.59375,P05,D07,0,0,0
1799,58.0,-16.0,16.0,1644597818.625,P05,D07,0,0,0
1800,58.0,-16.0,16.0,1644597818.65625,P05,D07,0,0,0
1801,58.0,-16.0,16.0,1644597818.6875,P05,D07,0,0,0
1802,58.0,-16.0,16.0,1644597818.71875,P05,D07,0,0,0
1803,58.0,-16.0,16.0,1644597818.75,P05,D07,0,0,0
1804,58.0,-16.0,16.0,1644597818.78125,P05,D07,0,0,0
1805,58.0,-16.0,16.0,1644597818.8125,P05,D07,0,0,0
1806,58.0,-16.0,16.0,1644597818.84375,P05,D07,0,0,0
1807,58.0,-16.0,16.0,1644597818.875,P05,D07,0,0,0
1808,58.0,-16.0,16.0,1644597818.90625,P05,D07,0,0,0
1809,58.0,-16.0,16.0,1644597818.9375,P05,D07,0,0,0
1810,58.0,-16.0,16.0,1644597818.96875,P05,D07,0,0,0
1811,58.0,-16.0,16.0,1644597819.0,P05,D07,0,0,0
1812,58.0,-16.0,16.0,1644597819.03125,P05,D07,0,0,0
1813,58.0,-16.0,16.0,1644597819.0625,P05,D07,0,0,0
1814,58.0,-16.0,16.0,1644597819.09375,P05,D07,0,0,0
1815,58.0,-16.0,16.0,1644597819.125,P05,D07,0,0,0
1816,58.0,-16.0,16.0,1644597819.15625,P05,D07,0,0,0
1817,58.0,-16.0,16.0,1644597819.1875,P05,D07,0,0,0
1818,58.0,-16.0,16.0,1644597819.21875,P05,D07,0,0,0
1819,58.0,-16.0,16.0,1644597819.25,P05,D07,0,0,0
1820,58.0,-16.0,16.0,1644597819.28125,P05,D07,0,0,0
1821,58.0,-16.0,16.0,1644597819.3125,P05,D07,0,0,0
1822,58.0,-16.0,16.0,1644597819.34375,P05,D07,0,0,0
1823,58.0,-16.0,16.0,1644597819.375,P05,D07,0,0,0
1824,58.0,-16.0,16.0,1644597819.40625,P05,D07,0,0,0
1825,58.0,-16.0,16.0,1644597819.4375,P05,D07,0,0,0
1826,58.0,-16.0,16.0,1644597819.46875,P05,D07,0,0,0
1827,58.0,-16.0,16.0,1644597819.5,P05,D07,0,0,0
1828,58.0,-16.0,16.0,1644597819.53125,P05,D07,0,0,0
1829,58.0,-16.0,16.0,1644597819.5625,P05,D07,0,0,0
1830,58.0,-16.0,16.0,1644597819.59375,P05,D07,0,0,0
1831,58.0,-16.0,16.0,1644597819.625,P05,D07,0,0,0
1832,58.0,-16.0,16.0,1644597819.65625,P05,D07,0,0,0
1833,58.0,-16.0,16.0,1644597819.6875,P05,D07,0,0,0
1834,58.0,-16.0,16.0,1644597819.71875,P05,D07,0,0,0
1835,58.0,-16.0,16.0,1644597819.75,P05,D07,0,0,0
1836,58.0,-16.0,16.0,1644597819.78125,P05,D07,0,0,0
1837,58.0,-16.0,16.0,1644597819.8125,P05,D07,0,0,0
1838,58.0,-16.0,16.0,1644597819.84375,P05,D07,0,0,0
1839,58.0,-16.0,16.0,1644597819.875,P05,D07,0,0,0
1840,58.0,-16.0,16.0,1644597819.90625,P05,D07,0,0,0
1841,58.0,-16.0,16.0,1644597819.9375,P05,D07,0,0,0
1842,58.0,-16.0,16.0,1644597819.96875,P05,D07,0,0,0
1843,58.0,-16.0,16.0,1644597820.0,P05,D07,0,0,0
1844,58.0,-16.0,16.0,1644597820.03125,P05,D07,0,0,0
1845,58.0,-16.0,16.0,1644597820.0625,P05,D07,0,0,0
1846,58.0,-16.0,16.0,1644597820.09375,P05,D07,0,0,0
1847,58.0,-16.0,16.0,1644597820.125,P05,D07,0,0,0
1848,58.0,-16.0,16.0,1644597820.15625,P05,D07,0,0,0
1849,58.0,-16.0,16.0,1644597820.1875,P05,D07,0,0,0
1850,58.0,-16.0,16.0,1644597820.21875,P05,D07,0,0,0
1851,58.0,-16.0,16.0,1644597820.25,P05,D07,0,0,0
1852,58.0,-16.0,16.0,1644597820.28125,P05,D07,0,0,0
1853,58.0,-16.0,16.0,1644597820.3125,P05,D07,0,0,0
1854,58.0,-16.0,16.0,1644597820.34375,P05,D07,0,0,0
1855,58.0,-16.0,16.0,1644597820.375,P05,D07,0,0,0
1856,58.0,-16.0,16.0,1644597820.40625,P05,D07,0,0,0
1857,58.0,-16.0,16.0,1644597820.4375,P05,D07,0,0,0
1858,58.0,-16.0,16.0,1644597820.46875,P05,D07,0,0,0
1859,58.0,-16.0,17.0,1644597820.5,P05,D07,0,0,0
1860,58.0,-16.0,16.0,1644597820.53125,P05,D07,0,0,0
1861,58.0,-16.0,16.0,1644597820.5625,P05,D07,0,0,0
1862,58.0,-16.0,16.0,1644597820.59375,P05,D07,0,0,0
1863,58.0,-16.0,16.0,1644597820.625,P05,D07,0,0,0
1864,58.0,-16.0,16.0,1644597820.65625,P05,D07,0,0,0
1865,58.0,-16.0,16.0,1644597820.6875,P05,D07,0,0,0
1866,58.0,-16.0,16.0,1644597820.71875,P05,D07,0,0,0
1867,58.0,-16.0,16.0,1644597820.75,P05,D07,0,0,0
1868,58.0,-16.0,16.0,1644597820.78125,P05,D07,0,0,0
1869,58.0,-16.0,16.0,1644597820.8125,P05,D07,0,0,0
1870,58.0,-16.0,16.0,1644597820.84375,P05,D07,0,0,0
1871,58.0,-16.0,16.0,1644597820.875,P05,D07,0,0,0
1872,58.0,-16.0,16.0,1644597820.90625,P05,D07,0,0,0
1873,58.0,-16.0,16.0,1644597820.9375,P05,D07,0,0,0
1874,58.0,-16.0,16.0,1644597820.96875,P05,D07,0,0,0
1875,58.0,-16.0,16.0,1644597821.0,P05,D07,0,0,0
1876,57.0,-16.0,16.0,1644597821.03125,P05,D07,0,0,0
1877,58.0,-16.0,16.0,1644597821.0625,P05,D07,0,0,0
1878,58.0,-16.0,16.0,1644597821.09375,P05,D07,0,0,0
1879,58.0,-16.0,16.0,1644597821.125,P05,D07,0,0,0
1880,58.0,-16.0,16.0,1644597821.15625,P05,D07,0,0,0
1881,58.0,-16.0,16.0,1644597821.1875,P05,D07,0,0,0
1882,58.0,-16.0,16.0,1644597821.21875,P05,D07,0,0,0
1883,58.0,-16.0,16.0,1644597821.25,P05,D07,0,0,0
1884,58.0,-16.0,16.0,1644597821.28125,P05,D07,0,0,0
1885,58.0,-16.0,16.0,1644597821.3125,P05,D07,0,0,0
1886,58.0,-16.0,16.0,1644597821.34375,P05,D07,0,0,0
1887,58.0,-16.0,16.0,1644597821.375,P05,D07,0,0,0
1888,58.0,-16.0,16.0,1644597821.40625,P05,D07,0,0,0
1889,58.0,-16.0,17.0,1644597821.4375,P05,D07,0,0,0
1890,58.0,-16.0,16.0,1644597821.46875,P05,D07,0,0,0
1891,58.0,-16.0,16.0,1644597821.5,P05,D07,0,0,0
1892,58.0,-16.0,16.0,1644597821.53125,P05,D07,0,0,0
1893,58.0,-16.0,16.0,1644597821.5625,P05,D07,0,0,0
1894,58.0,-16.0,16.0,1644597821.59375,P05,D07,0,0,0
1895,58.0,-16.0,16.0,1644597821.625,P05,D07,0,0,0
1896,58.0,-16.0,16.0,1644597821.65625,P05,D07,0,0,0
1897,57.0,-16.0,16.0,1644597821.6875,P05,D07,0,0,0
1898,58.0,-16.0,16.0,1644597821.71875,P05,D07,0,0,0
1899,58.0,-16.0,16.0,1644597821.75,P05,D07,0,0,0
1900,58.0,-16.0,16.0,1644597821.78125,P05,D07,0,0,0
1901,58.0,-16.0,16.0,1644597821.8125,P05,D07,0,0,0
1902,58.0,-16.0,16.0,1644597821.84375,P05,D07,0,0,0
1903,58.0,-16.0,16.0,1644597821.875,P05,D07,0,0,0
1904,58.0,-16.0,16.0,1644597821.90625,P05,D07,0,0,0
1905,58.0,-16.0,16.0,1644597821.9375,P05,D07,0,0,0
1906,58.0,-16.0,16.0,1644597821.96875,P05,D07,0,0,0
1907,58.0,-16.0,16.0,1644597822.0,P05,D07,0,0,0
1908,58.0,-16.0,16.0,1644597822.03125,P05,D07,0,0,0
1909,58.0,-16.0,16.0,1644597822.0625,P05,D07,0,0,0
1910,58.0,-16.0,16.0,1644597822.09375,P05,D07,0,0,0
1911,58.0,-16.0,16.0,1644597822.125,P05,D07,0,0,0
1912,58.0,-16.0,16.0,1644597822.15625,P05,D07,0,0,0
1913,58.0,-16.0,16.0,1644597822.1875,P05,D07,0,0,0
1914,58.0,-16.0,17.0,1644597822.21875,P05,D07,0,0,0
1915,58.0,-16.0,16.0,1644597822.25,P05,D07,0,0,0
1916,58.0,-16.0,16.0,1644597822.28125,P05,D07,0,0,0
1917,58.0,-16.0,16.0,1644597822.3125,P05,D07,0,0,0
1918,58.0,-16.0,16.0,1644597822.34375,P05,D07,0,0,0
1919,58.0,-16.0,16.0,1644597822.375,P05,D07,0,0,0
1920,58.0,-16.0,17.0,1644597822.40625,P05,D07,0,0,0
1921,58.0,-16.0,16.0,1644597822.4375,P05,D07,0,0,0
1922,58.0,-16.0,16.0,1644597822.46875,P05,D07,0,0,0
1923,58.0,-16.0,16.0,1644597822.5,P05,D07,0,0,0
1924,58.0,-16.0,16.0,1644597822.53125,P05,D07,0,0,0
1925,58.0,-16.0,16.0,1644597822.5625,P05,D07,0,0,0
1926,58.0,-16.0,16.0,1644597822.59375,P05,D07,0,0,0
1927,58.0,-16.0,16.0,1644597822.625,P05,D07,0,0,0
1928,58.0,-16.0,16.0,1644597822.65625,P05,D07,0,0,0
1929,58.0,-16.0,16.0,1644597822.6875,P05,D07,0,0,0
1930,58.0,-16.0,16.0,1644597822.71875,P05,D07,0,0,0
1931,58.0,-16.0,16.0,1644597822.75,P05,D07,0,0,0
1932,58.0,-16.0,16.0,1644597822.78125,P05,D07,0,0,0
1933,58.0,-16.0,16.0,1644597822.8125,P05,D07,0,0,0
1934,58.0,-16.0,16.0,1644597822.84375,P05,D07,0,0,0
1935,58.0,-16.0,17.0,1644597822.875,P05,D07,0,0,0
1936,58.0,-16.0,16.0,1644597822.90625,P05,D07,0,0,0
1937,58.0,-16.0,16.0,1644597822.9375,P05,D07,0,0,0
1938,58.0,-16.0,16.0,1644597822.96875,P05,D07,0,0,0
1939,58.0,-16.0,16.0,1644597823.0,P05,D07,0,0,0
1940,58.0,-16.0,16.0,1644597823.03125,P05,D07,0,0,0
1941,58.0,-16.0,16.0,1644597823.0625,P05,D07,0,0,0
1942,58.0,-16.0,16.0,1644597823.09375,P05,D07,0,0,0
1943,58.0,-17.0,16.0,1644597823.125,P05,D07,0,0,0
1944,58.0,-16.0,16.0,1644597823.15625,P05,D07,0,0,0
1945,58.0,-16.0,16.0,1644597823.1875,P05,D07,0,0,0
1946,58.0,-16.0,16.0,1644597823.21875,P05,D07,0,0,0
1947,58.0,-16.0,16.0,1644597823.25,P05,D07,0,0,0
1948,58.0,-16.0,16.0,1644597823.28125,P05,D07,0,0,0
1949,58.0,-16.0,16.0,1644597823.3125,P05,D07,0,0,0
1950,58.0,-16.0,16.0,1644597823.34375,P05,D07,0,0,0
1951,58.0,-16.0,16.0,1644597823.375,P05,D07,0,0,0
1952,58.0,-16.0,16.0,1644597823.40625,P05,D07,0,0,0
1953,58.0,-16.0,16.0,1644597823.4375,P05,D07,0,0,0
1954,58.0,-16.0,16.0,1644597823.46875,P05,D07,0,0,0
1955,58.0,-16.0,16.0,1644597823.5,P05,D07,0,0,0
1956,58.0,-16.0,16.0,1644597823.53125,P05,D07,0,0,0
1957,58.0,-16.0,16.0,1644597823.5625,P05,D07,0,0,0
1958,58.0,-16.0,16.0,1644597823.59375,P05,D07,0,0,0
1959,58.0,-16.0,16.0,1644597823.625,P05,D07,0,0,0
1960,58.0,-16.0,16.0,1644597823.65625,P05,D07,0,0,0
1961,58.0,-16.0,16.0,1644597823.6875,P05,D07,0,0,0
1962,58.0,-16.0,16.0,1644597823.71875,P05,D07,0,0,0
1963,58.0,-16.0,16.0,1644597823.75,P05,D07,0,0,0
1964,58.0,-16.0,16.0,1644597823.78125,P05,D07,0,0,0
1965,58.0,-16.0,16.0,1644597823.8125,P05,D07,0,0,0
1966,58.0,-16.0,17.0,1644597823.84375,P05,D07,0,0,0
1967,58.0,-16.0,16.0,1644597823.875,P05,D07,0,0,0
1968,58.0,-16.0,16.0,1644597823.90625,P05,D07,0,0,0
1969,58.0,-16.0,16.0,1644597823.9375,P05,D07,0,0,0
1970,58.0,-16.0,16.0,1644597823.96875,P05,D07,0,0,0
1971,58.0,-16.0,16.0,1644597824.0,P05,D07,0,0,0
1972,58.0,-16.0,16.0,1644597824.03125,P05,D07,0,0,0
1973,58.0,-16.0,16.0,1644597824.0625,P05,D07,0,0,0
1974,58.0,-16.0,16.0,1644597824.09375,P05,D07,0,0,0
1975,58.0,-16.0,17.0,1644597824.125,P05,D07,0,0,0
1976,58.0,-16.0,16.0,1644597824.15625,P05,D07,0,0,0
1977,58.0,-16.0,16.0,1644597824.1875,P05,D07,0,0,0
1978,57.0,-16.0,16.0,1644597824.21875,P05,D07,0,0,0
1979,57.0,-16.0,16.0,1644597824.25,P05,D07,0,0,0
1980,58.0,-16.0,16.0,1644597824.28125,P05,D07,0,0,0
1981,58.0,-16.0,16.0,1644597824.3125,P05,D07,0,0,0
1982,58.0,-16.0,16.0,1644597824.34375,P05,D07,0,0,0
1983,58.0,-16.0,16.0,1644597824.375,P05,D07,0,0,0
1984,57.0,-16.0,16.0,1644597824.40625,P05,D07,0,0,0
1985,58.0,-16.0,16.0,1644597824.4375,P05,D07,0,0,0
1986,58.0,-16.0,16.0,1644597824.46875,P05,D07,0,0,0
1987,58.0,-16.0,16.0,1644597824.5,P05,D07,0,0,0
1988,58.0,-16.0,16.0,1644597824.53125,P05,D07,0,0,0
1989,58.0,-16.0,16.0,1644597824.5625,P05,D07,0,0,0
1990,58.0,-17.0,17.0,1644597824.59375,P05,D07,0,0,0
1991,58.0,-16.0,17.0,1644597824.625,P05,D07,0,0,0
1992,58.0,-16.0,16.0,1644597824.65625,P05,D07,0,0,0
1993,58.0,-16.0,17.0,1644597824.6875,P05,D07,0,0,0
1994,58.0,-16.0,16.0,1644597824.71875,P05,D07,0,0,0
1995,58.0,-16.0,16.0,1644597824.75,P05,D07,0,0,0
1996,58.0,-16.0,16.0,1644597824.78125,P05,D07,0,0,0
1997,58.0,-16.0,17.0,1644597824.8125,P05,D07,0,0,0
1998,58.0,-16.0,17.0,1644597824.84375,P05,D07,0,0,0
1999,58.0,-16.0,17.0,1644597824.875,P05,D07,0,0,0
2000,58.0,-16.0,16.0,1644597824.90625,P05,D07,0,0,0
2001,58.0,-16.0,16.0,1644597824.9375,P05,D07,0,0,0
2002,58.0,-16.0,16.0,1644597824.96875,P05,D07,0,0,0
2003,58.0,-16.0,16.0,1644597825.0,P05,D07,0,0,0
2004,58.0,-16.0,17.0,1644597825.03125,P05,D07,0,0,0
2005,58.0,-16.0,17.0,1644597825.0625,P05,D07,0,0,0
2006,58.0,-16.0,16.0,1644597825.09375,P05,D07,0,0,0
2007,58.0,-16.0,16.0,1644597825.125,P05,D07,0,0,0
2008,58.0,-16.0,17.0,1644597825.15625,P05,D07,0,0,0
2009,58.0,-16.0,16.0,1644597825.1875,P05,D07,0,0,0
2010,58.0,-16.0,16.0,1644597825.21875,P05,D07,0,0,0
2011,58.0,-16.0,16.0,1644597825.25,P05,D07,0,0,0
2012,58.0,-16.0,16.0,1644597825.28125,P05,D07,0,0,0
2013,58.0,-16.0,16.0,1644597825.3125,P05,D07,0,0,0
2014,58.0,-16.0,16.0,1644597825.34375,P05,D07,0,0,0
2015,58.0,-16.0,16.0,1644597825.375,P05,D07,0,0,0
2016,58.0,-16.0,16.0,1644597825.40625,P05,D07,0,0,0
2017,58.0,-16.0,16.0,1644597825.4375,P05,D07,0,0,0
2018,58.0,-16.0,16.0,1644597825.46875,P05,D07,0,0,0
2019,58.0,-16.0,16.0,1644597825.5,P05,D07,0,0,0
2020,58.0,-16.0,16.0,1644597825.53125,P05,D07,0,0,0
2021,58.0,-16.0,16.0,1644597825.5625,P05,D07,0,0,0
2022,58.0,-16.0,16.0,1644597825.59375,P05,D07,0,0,0
2023,58.0,-16.0,16.0,1644597825.625,P05,D07,0,0,0
2024,58.0,-16.0,16.0,1644597825.65625,P05,D07,0,0,0
2025,58.0,-16.0,16.0,1644597825.6875,P05,D07,0,0,0
2026,58.0,-16.0,16.0,1644597825.71875,P05,D07,0,0,0
2027,58.0,-16.0,16.0,1644597825.75,P05,D07,0,0,0
2028,58.0,-16.0,16.0,1644597825.78125,P05,D07,0,0,0
2029,58.0,-16.0,16.0,1644597825.8125,P05,D07,0,0,0
2030,58.0,-16.0,17.0,1644597825.84375,P05,D07,0,0,0
2031,58.0,-16.0,16.0,1644597825.875,P05,D07,0,0,0
2032,58.0,-16.0,16.0,1644597825.90625,P05,D07,0,0,0
2033,58.0,-16.0,16.0,1644597825.9375,P05,D07,0,0,0
2034,58.0,-16.0,16.0,1644597825.96875,P05,D07,0,0,0
2035,58.0,-16.0,17.0,1644597826.0,P05,D07,0,0,0
2036,58.0,-16.0,16.0,1644597826.03125,P05,D07,0,0,0
2037,58.0,-16.0,16.0,1644597826.0625,P05,D07,0,0,0
2038,58.0,-16.0,16.0,1644597826.09375,P05,D07,0,0,0
2039,58.0,-16.0,16.0,1644597826.125,P05,D07,0,0,0
2040,58.0,-16.0,16.0,1644597826.15625,P05,D07,0,0,0
2041,58.0,-16.0,16.0,1644597826.1875,P05,D07,0,0,0
2042,58.0,-16.0,16.0,1644597826.21875,P05,D07,0,0,0
2043,58.0,-16.0,17.0,1644597826.25,P05,D07,0,0,0
2044,58.0,-16.0,17.0,1644597826.28125,P05,D07,0,0,0
2045,58.0,-16.0,16.0,1644597826.3125,P05,D07,0,0,0
2046,58.0,-16.0,16.0,1644597826.34375,P05,D07,0,0,0
2047,58.0,-16.0,16.0,1644597826.375,P05,D07,0,0,0
2048,58.0,-16.0,16.0,1644597826.40625,P05,D07,0,0,0
2049,58.0,-16.0,16.0,1644597826.4375,P05,D07,0,0,0
2050,58.0,-16.0,17.0,1644597826.46875,P05,D07,0,0,0
2051,58.0,-16.0,16.0,1644597826.5,P05,D07,0,0,0
2052,58.0,-16.0,16.0,1644597826.53125,P05,D07,0,0,0
2053,58.0,-16.0,16.0,1644597826.5625,P05,D07,0,0,0
2054,58.0,-16.0,17.0,1644597826.59375,P05,D07,0,0,0
2055,58.0,-16.0,17.0,1644597826.625,P05,D07,0,0,0
2056,58.0,-16.0,16.0,1644597826.65625,P05,D07,0,0,0
2057,58.0,-16.0,16.0,1644597826.6875,P05,D07,0,0,0
2058,58.0,-16.0,17.0,1644597826.71875,P05,D07,0,0,0
2059,58.0,-16.0,17.0,1644597826.75,P05,D07,0,0,0
2060,58.0,-16.0,16.0,1644597826.78125,P05,D07,0,0,0
2061,58.0,-16.0,16.0,1644597826.8125,P05,D07,0,0,0
2062,58.0,-16.0,17.0,1644597826.84375,P05,D07,0,0,0
2063,58.0,-16.0,16.0,1644597826.875,P05,D07,0,0,0
2064,58.0,-16.0,16.0,1644597826.90625,P05,D07,0,0,0
2065,58.0,-16.0,17.0,1644597826.9375,P05,D07,0,0,0
2066,58.0,-16.0,16.0,1644597826.96875,P05,D07,0,0,0
2067,58.0,-16.0,16.0,1644597827.0,P05,D07,0,0,0
2068,58.0,-16.0,16.0,1644597827.03125,P05,D07,0,0,0
2069,58.0,-16.0,17.0,1644597827.0625,P05,D07,0,0,0
2070,58.0,-16.0,17.0,1644597827.09375,P05,D07,0,0,0
2071,58.0,-16.0,16.0,1644597827.125,P05,D07,0,0,0
2072,58.0,-16.0,17.0,1644597827.15625,P05,D07,0,0,0
2073,58.0,-16.0,16.0,1644597827.1875,P05,D07,0,0,0
2074,58.0,-16.0,17.0,1644597827.21875,P05,D07,0,0,0
2075,58.0,-16.0,17.0,1644597827.25,P05,D07,0,0,0
2076,58.0,-16.0,17.0,1644597827.28125,P05,D07,0,0,0
2077,58.0,-16.0,17.0,1644597827.3125,P05,D07,0,0,0
2078,58.0,-16.0,17.0,1644597827.34375,P05,D07,0,0,0
2079,58.0,-16.0,16.0,1644597827.375,P05,D07,0,0,0
2080,58.0,-16.0,16.0,1644597827.40625,P05,D07,0,0,0
2081,58.0,-16.0,16.0,1644597827.4375,P05,D07,0,0,0
2082,58.0,-16.0,17.0,1644597827.46875,P05,D07,0,0,0
2083,58.0,-16.0,17.0,1644597827.5,P05,D07,0,0,0
2084,58.0,-16.0,17.0,1644597827.53125,P05,D07,0,0,0
2085,58.0,-16.0,16.0,1644597827.5625,P05,D07,0,0,0
2086,58.0,-16.0,17.0,1644597827.59375,P05,D07,0,0,0
2087,58.0,-16.0,16.0,1644597827.625,P05,D07,0,0,0
2088,58.0,-16.0,16.0,1644597827.65625,P05,D07,0,0,0
2089,58.0,-16.0,16.0,1644597827.6875,P05,D07,0,0,0
2090,58.0,-16.0,16.0,1644597827.71875,P05,D07,0,0,0
2091,58.0,-16.0,16.0,1644597827.75,P05,D07,0,0,0
2092,58.0,-16.0,16.0,1644597827.78125,P05,D07,0,0,0
2093,57.0,-16.0,16.0,1644597827.8125,P05,D07,0,0,0
2094,58.0,-16.0,16.0,1644597827.84375,P05,D07,0,0,0
2095,58.0,-16.0,16.0,1644597827.875,P05,D07,0,0,0
2096,58.0,-16.0,16.0,1644597827.90625,P05,D07,0,0,0
2097,58.0,-16.0,16.0,1644597827.9375,P05,D07,0,0,0
2098,58.0,-16.0,17.0,1644597827.96875,P05,D07,0,0,0
2099,58.0,-16.0,16.0,1644597828.0,P05,D07,0,0,0
2100,58.0,-16.0,16.0,1644597828.03125,P05,D07,0,0,0
2101,58.0,-16.0,16.0,1644597828.0625,P05,D07,0,0,0
2102,58.0,-16.0,16.0,1644597828.09375,P05,D07,0,0,0
2103,58.0,-16.0,16.0,1644597828.125,P05,D07,0,0,0
2104,58.0,-16.0,16.0,1644597828.15625,P05,D07,0,0,0
2105,58.0,-16.0,17.0,1644597828.1875,P05,D07,0,0,0
2106,57.0,-16.0,16.0,1644597828.21875,P05,D07,0,0,0
2107,58.0,-16.0,16.0,1644597828.25,P05,D07,0,0,0
2108,58.0,-16.0,16.0,1644597828.28125,P05,D07,0,0,0
2109,58.0,-16.0,16.0,1644597828.3125,P05,D07,0,0,0
2110,58.0,-16.0,16.0,1644597828.34375,P05,D07,0,0,0
2111,58.0,-16.0,16.0,1644597828.375,P05,D07,0,0,0
2112,58.0,-16.0,16.0,1644597828.40625,P05,D07,0,0,0
2113,58.0,-16.0,16.0,1644597828.4375,P05,D07,0,0,0
2114,58.0,-16.0,16.0,1644597828.46875,P05,D07,0,0,0
2115,58.0,-16.0,16.0,1644597828.5,P05,D07,0,0,0
2116,58.0,-16.0,16.0,1644597828.53125,P05,D07,0,0,0
2117,58.0,-16.0,16.0,1644597828.5625,P05,D07,0,0,0
2118,58.0,-16.0,16.0,1644597828.59375,P05,D07,0,0,0
2119,58.0,-16.0,16.0,1644597828.625,P05,D07,0,0,0
2120,58.0,-16.0,16.0,1644597828.65625,P05,D07,0,0,0
2121,58.0,-16.0,16.0,1644597828.6875,P05,D07,0,0,0
2122,58.0,-16.0,16.0,1644597828.71875,P05,D07,0,0,0
2123,58.0,-16.0,17.0,1644597828.75,P05,D07,0,0,0
2124,58.0,-16.0,17.0,1644597828.78125,P05,D07,0,0,0
2125,58.0,-16.0,17.0,1644597828.8125,P05,D07,0,0,0
2126,58.0,-16.0,17.0,1644597828.84375,P05,D07,0,0,0
2127,58.0,-16.0,16.0,1644597828.875,P05,D07,0,0,0
2128,58.0,-16.0,16.0,1644597828.90625,P05,D07,0,0,0
2129,58.0,-16.0,17.0,1644597828.9375,P05,D07,0,0,0
2130,58.0,-16.0,17.0,1644597828.96875,P05,D07,0,0,0
2131,58.0,-16.0,16.0,1644597829.0,P05,D07,0,0,0
2132,58.0,-16.0,16.0,1644597829.03125,P05,D07,0,0,0
2133,58.0,-16.0,16.0,1644597829.0625,P05,D07,0,0,0
2134,58.0,-16.0,16.0,1644597829.09375,P05,D07,0,0,0
2135,58.0,-16.0,17.0,1644597829.125,P05,D07,0,0,0
2136,58.0,-16.0,16.0,1644597829.15625,P05,D07,0,0,0
2137,58.0,-16.0,17.0,1644597829.1875,P05,D07,0,0,0
2138,58.0,-16.0,16.0,1644597829.21875,P05,D07,0,0,0
2139,58.0,-16.0,17.0,1644597829.25,P05,D07,0,0,0
2140,58.0,-16.0,16.0,1644597829.28125,P05,D07,0,0,0
2141,58.0,-16.0,16.0,1644597829.3125,P05,D07,0,0,0
2142,58.0,-16.0,17.0,1644597829.34375,P05,D07,0,0,0
2143,58.0,-16.0,17.0,1644597829.375,P05,D07,0,0,0
2144,58.0,-16.0,16.0,1644597829.40625,P05,D07,0,0,0
2145,58.0,-16.0,16.0,1644597829.4375,P05,D07,0,0,0
2146,58.0,-16.0,16.0,1644597829.46875,P05,D07,0,0,0
2147,58.0,-16.0,16.0,1644597829.5,P05,D07,0,0,0
2148,58.0,-16.0,17.0,1644597829.53125,P05,D07,0,0,0
2149,58.0,-16.0,16.0,1644597829.5625,P05,D07,0,0,0
2150,58.0,-16.0,16.0,1644597829.59375,P05,D07,0,0,0
2151,58.0,-16.0,17.0,1644597829.625,P05,D07,0,0,0
2152,58.0,-16.0,16.0,1644597829.65625,P05,D07,0,0,0
2153,58.0,-16.0,16.0,1644597829.6875,P05,D07,0,0,0
2154,58.0,-16.0,16.0,1644597829.71875,P05,D07,0,0,0
2155,58.0,-16.0,16.0,1644597829.75,P05,D07,0,0,0
2156,58.0,-16.0,16.0,1644597829.78125,P05,D07,0,0,0
2157,58.0,-16.0,16.0,1644597829.8125,P05,D07,0,0,0
2158,58.0,-16.0,16.0,1644597829.84375,P05,D07,0,0,0
2159,58.0,-16.0,17.0,1644597829.875,P05,D07,0,0,0
2160,58.0,-16.0,16.0,1644597829.90625,P05,D07,0,0,0
2161,58.0,-16.0,16.0,1644597829.9375,P05,D07,0,0,0
2162,58.0,-16.0,17.0,1644597829.96875,P05,D07,0,0,0
2163,58.0,-16.0,16.0,1644597830.0,P05,D07,0,0,0
2164,58.0,-16.0,16.0,1644597830.03125,P05,D07,0,0,0
2165,58.0,-16.0,16.0,1644597830.0625,P05,D07,0,0,0
2166,58.0,-16.0,16.0,1644597830.09375,P05,D07,0,0,0
2167,58.0,-16.0,16.0,1644597830.125,P05,D07,0,0,0
2168,58.0,-16.0,16.0,1644597830.15625,P05,D07,0,0,0
2169,58.0,-16.0,16.0,1644597830.1875,P05,D07,0,0,0
2170,58.0,-16.0,16.0,1644597830.21875,P05,D07,0,0,0
2171,58.0,-16.0,16.0,1644597830.25,P05,D07,0,0,0
2172,58.0,-16.0,17.0,1644597830.28125,P05,D07,0,0,0
2173,58.0,-16.0,16.0,1644597830.3125,P05,D07,0,0,0
2174,58.0,-16.0,16.0,1644597830.34375,P05,D07,0,0,0
2175,58.0,-16.0,16.0,1644597830.375,P05,D07,0,0,0
2176,58.0,-16.0,16.0,1644597830.40625,P05,D07,0,0,0
2177,58.0,-16.0,16.0,1644597830.4375,P05,D07,0,0,0
2178,58.0,-16.0,16.0,1644597830.46875,P05,D07,0,0,0
2179,58.0,-16.0,16.0,1644597830.5,P05,D07,0,0,0
2180,58.0,-16.0,16.0,1644597830.53125,P05,D07,0,0,0
2181,58.0,-16.0,16.0,1644597830.5625,P05,D07,0,0,0
2182,58.0,-16.0,16.0,1644597830.59375,P05,D07,0,0,0
2183,58.0,-16.0,17.0,1644597830.625,P05,D07,0,0,0
2184,58.0,-16.0,16.0,1644597830.65625,P05,D07,0,0,0
2185,58.0,-16.0,17.0,1644597830.6875,P05,D07,0,0,0
2186,58.0,-16.0,17.0,1644597830.71875,P05,D07,0,0,0
2187,58.0,-16.0,17.0,1644597830.75,P05,D07,0,0,0
2188,58.0,-16.0,16.0,1644597830.78125,P05,D07,0,0,0
2189,58.0,-16.0,16.0,1644597830.8125,P05,D07,0,0,0
2190,58.0,-16.0,16.0,1644597830.84375,P05,D07,0,0,0
2191,58.0,-16.0,16.0,1644597830.875,P05,D07,0,0,0
2192,58.0,-16.0,16.0,1644597830.90625,P05,D07,0,0,0
2193,58.0,-16.0,17.0,1644597830.9375,P05,D07,0,0,0
2194,58.0,-16.0,17.0,1644597830.96875,P05,D07,0,0,0
2195,58.0,-16.0,16.0,1644597831.0,P05,D07,0,0,0
2196,58.0,-16.0,16.0,1644597831.03125,P05,D07,0,0,0
2197,58.0,-16.0,16.0,1644597831.0625,P05,D07,0,0,0
2198,58.0,-16.0,16.0,1644597831.09375,P05,D07,0,0,0
2199,58.0,-16.0,16.0,1644597831.125,P05,D07,0,0,0
2200,58.0,-16.0,16.0,1644597831.15625,P05,D07,0,0,0
2201,58.0,-16.0,16.0,1644597831.1875,P05,D07,0,0,0
2202,58.0,-16.0,17.0,1644597831.21875,P05,D07,0,0,0
2203,58.0,-16.0,17.0,1644597831.25,P05,D07,0,0,0
2204,58.0,-16.0,16.0,1644597831.28125,P05,D07,0,0,0
2205,58.0,-16.0,16.0,1644597831.3125,P05,D07,0,0,0
2206,58.0,-16.0,16.0,1644597831.34375,P05,D07,0,0,0
2207,58.0,-16.0,16.0,1644597831.375,P05,D07,0,0,0
2208,58.0,-16.0,16.0,1644597831.40625,P05,D07,0,0,0
2209,58.0,-16.0,16.0,1644597831.4375,P05,D07,0,0,0
2210,58.0,-16.0,16.0,1644597831.46875,P05,D07,0,0,0
2211,58.0,-16.0,16.0,1644597831.5,P05,D07,0,0,0
2212,58.0,-16.0,16.0,1644597831.53125,P05,D07,0,0,0
2213,58.0,-16.0,16.0,1644597831.5625,P05,D07,0,0,0
2214,58.0,-16.0,16.0,1644597831.59375,P05,D07,0,0,0
2215,58.0,-16.0,16.0,1644597831.625,P05,D07,0,0,0
2216,58.0,-16.0,16.0,1644597831.65625,P05,D07,0,0,0
2217,58.0,-16.0,16.0,1644597831.6875,P05,D07,0,0,0
2218,58.0,-16.0,16.0,1644597831.71875,P05,D07,0,0,0
2219,58.0,-16.0,16.0,1644597831.75,P05,D07,0,0,0
2220,58.0,-16.0,16.0,1644597831.78125,P05,D07,0,0,0
2221,58.0,-16.0,16.0,1644597831.8125,P05,D07,0,0,0
2222,58.0,-16.0,17.0,1644597831.84375,P05,D07,0,0,0
2223,58.0,-16.0,16.0,1644597831.875,P05,D07,0,0,0
2224,58.0,-16.0,16.0,1644597831.90625,P05,D07,0,0,0
2225,58.0,-16.0,16.0,1644597831.9375,P05,D07,0,0,0
2226,58.0,-16.0,16.0,1644597831.96875,P05,D07,0,0,0
2227,58.0,-16.0,16.0,1644597832.0,P05,D07,0,0,0
2228,58.0,-16.0,17.0,1644597832.03125,P05,D07,0,0,0
2229,58.0,-16.0,17.0,1644597832.0625,P05,D07,0,0,0
2230,58.0,-16.0,16.0,1644597832.09375,P05,D07,0,0,0
2231,58.0,-16.0,16.0,1644597832.125,P05,D07,0,0,0
2232,58.0,-16.0,16.0,1644597832.15625,P05,D07,0,0,0
2233,58.0,-16.0,17.0,1644597832.1875,P05,D07,0,0,0
2234,58.0,-16.0,16.0,1644597832.21875,P05,D07,0,0,0
2235,58.0,-16.0,16.0,1644597832.25,P05,D07,0,0,0
2236,58.0,-16.0,16.0,1644597832.28125,P05,D07,0,0,0
2237,58.0,-16.0,16.0,1644597832.3125,P05,D07,0,0,0
2238,58.0,-16.0,16.0,1644597832.34375,P05,D07,0,0,0
2239,58.0,-16.0,17.0,1644597832.375,P05,D07,0,0,0
2240,58.0,-16.0,16.0,1644597832.40625,P05,D07,0,0,0
2241,58.0,-16.0,16.0,1644597832.4375,P05,D07,0,0,0
2242,58.0,-16.0,16.0,1644597832.46875,P05,D07,0,0,0
2243,58.0,-16.0,17.0,1644597832.5,P05,D07,0,0,0
2244,58.0,-16.0,16.0,1644597832.53125,P05,D07,0,0,0
2245,58.0,-16.0,16.0,1644597832.5625,P05,D07,0,0,0
2246,58.0,-16.0,16.0,1644597832.59375,P05,D07,0,0,0
2247,58.0,-16.0,17.0,1644597832.625,P05,D07,0,0,0
2248,58.0,-16.0,17.0,1644597832.65625,P05,D07,0,0,0
2249,58.0,-16.0,16.0,1644597832.6875,P05,D07,0,0,0
2250,58.0,-16.0,17.0,1644597832.71875,P05,D07,0,0,0
2251,58.0,-16.0,16.0,1644597832.75,P05,D07,0,0,0
2252,58.0,-16.0,16.0,1644597832.78125,P05,D07,0,0,0
2253,58.0,-16.0,16.0,1644597832.8125,P05,D07,0,0,0
2254,58.0,-16.0,16.0,1644597832.84375,P05,D07,0,0,0
2255,58.0,-16.0,17.0,1644597832.875,P05,D07,0,0,0
2256,58.0,-16.0,17.0,1644597832.90625,P05,D07,0,0,0
2257,58.0,-16.0,17.0,1644597832.9375,P05,D07,0,0,0
2258,58.0,-16.0,16.0,1644597832.96875,P05,D07,0,0,0
2259,58.0,-16.0,16.0,1644597833.0,P05,D07,0,0,0
2260,58.0,-16.0,16.0,1644597833.03125,P05,D07,0,0,0
2261,58.0,-16.0,16.0,1644597833.0625,P05,D07,0,0,0
2262,58.0,-16.0,16.0,1644597833.09375,P05,D07,0,0,0
2263,58.0,-16.0,16.0,1644597833.125,P05,D07,0,0,0
2264,58.0,-16.0,17.0,1644597833.15625,P05,D07,0,0,0
2265,58.0,-16.0,17.0,1644597833.1875,P05,D07,0,0,0
2266,58.0,-16.0,17.0,1644597833.21875,P05,D07,0,0,0
2267,58.0,-16.0,17.0,1644597833.25,P05,D07,0,0,0
2268,58.0,-16.0,17.0,1644597833.28125,P05,D07,0,0,0
2269,58.0,-16.0,16.0,1644597833.3125,P05,D07,0,0,0
2270,58.0,-16.0,16.0,1644597833.34375,P05,D07,0,0,0
2271,58.0,-16.0,16.0,1644597833.375,P05,D07,0,0,0
2272,58.0,-16.0,17.0,1644597833.40625,P05,D07,0,0,0
2273,58.0,-16.0,17.0,1644597833.4375,P05,D07,0,0,0
2274,58.0,-16.0,16.0,1644597833.46875,P05,D07,0,0,0
2275,58.0,-16.0,17.0,1644597833.5,P05,D07,0,0,0
2276,58.0,-16.0,17.0,1644597833.53125,P05,D07,0,0,0
2277,58.0,-16.0,16.0,1644597833.5625,P05,D07,0,0,0
2278,58.0,-16.0,16.0,1644597833.59375,P05,D07,0,0,0
2279,58.0,-16.0,16.0,1644597833.625,P05,D07,0,0,0
2280,58.0,-16.0,17.0,1644597833.65625,P05,D07,0,0,0
2281,58.0,-16.0,17.0,1644597833.6875,P05,D07,0,0,0
2282,58.0,-16.0,16.0,1644597833.71875,P05,D07,0,0,0
2283,58.0,-16.0,16.0,1644597833.75,P05,D07,0,0,0
2284,58.0,-16.0,16.0,1644597833.78125,P05,D07,0,0,0
2285,58.0,-16.0,17.0,1644597833.8125,P05,D07,0,0,0
2286,58.0,-16.0,16.0,1644597833.84375,P05,D07,0,0,0
2287,58.0,-16.0,16.0,1644597833.875,P05,D07,0,0,0
2288,58.0,-16.0,16.0,1644597833.90625,P05,D07,0,0,0
2289,58.0,-16.0,17.0,1644597833.9375,P05,D07,0,0,0
2290,58.0,-16.0,16.0,1644597833.96875,P05,D07,0,0,0
2291,58.0,-16.0,16.0,1644597834.0,P05,D07,0,0,0
2292,58.0,-16.0,16.0,1644597834.03125,P05,D07,0,0,0
2293,58.0,-16.0,16.0,1644597834.0625,P05,D07,0,0,0
2294,58.0,-16.0,16.0,1644597834.09375,P05,D07,0,0,0
2295,58.0,-16.0,16.0,1644597834.125,P05,D07,0,0,0
2296,58.0,-16.0,16.0,1644597834.15625,P05,D07,0,0,0
2297,58.0,-16.0,16.0,1644597834.1875,P05,D07,0,0,0
2298,58.0,-16.0,16.0,1644597834.21875,P05,D07,0,0,0
2299,58.0,-16.0,16.0,1644597834.25,P05,D07,0,0,0
2300,58.0,-16.0,16.0,1644597834.28125,P05,D07,0,0,0
2301,58.0,-16.0,16.0,1644597834.3125,P05,D07,0,0,0
2302,58.0,-16.0,16.0,1644597834.34375,P05,D07,0,0,0
2303,58.0,-16.0,16.0,1644597834.375,P05,D07,0,0,0
2304,58.0,-16.0,17.0,1644597834.40625,P05,D07,0,0,0
2305,58.0,-16.0,16.0,1644597834.4375,P05,D07,0,0,0
2306,58.0,-16.0,16.0,1644597834.46875,P05,D07,0,0,0
2307,58.0,-16.0,16.0,1644597834.5,P05,D07,0,0,0
2308,58.0,-16.0,16.0,1644597834.53125,P05,D07,0,0,0
2309,58.0,-16.0,16.0,1644597834.5625,P05,D07,0,0,0
2310,58.0,-16.0,16.0,1644597834.59375,P05,D07,0,0,0
2311,58.0,-16.0,16.0,1644597834.625,P05,D07,0,0,0
2312,58.0,-16.0,16.0,1644597834.65625,P05,D07,0,0,0
2313,58.0,-16.0,17.0,1644597834.6875,P05,D07,0,0,0
2314,58.0,-16.0,17.0,1644597834.71875,P05,D07,0,0,0
2315,58.0,-16.0,17.0,1644597834.75,P05,D07,0,0,0
2316,58.0,-16.0,16.0,1644597834.78125,P05,D07,0,0,0
2317,58.0,-16.0,16.0,1644597834.8125,P05,D07,0,0,0
2318,58.0,-16.0,16.0,1644597834.84375,P05,D07,0,0,0
2319,58.0,-16.0,17.0,1644597834.875,P05,D07,0,0,0
2320,58.0,-16.0,16.0,1644597834.90625,P05,D07,0,0,0
2321,58.0,-16.0,16.0,1644597834.9375,P05,D07,0,0,0
2322,58.0,-16.0,16.0,1644597834.96875,P05,D07,0,0,0
2323,58.0,-16.0,17.0,1644597835.0,P05,D07,0,0,0
2324,58.0,-16.0,16.0,1644597835.03125,P05,D07,0,0,0
2325,58.0,-16.0,16.0,1644597835.0625,P05,D07,0,0,0
2326,58.0,-16.0,17.0,1644597835.09375,P05,D07,0,0,0
2327,58.0,-16.0,16.0,1644597835.125,P05,D07,0,0,0
2328,58.0,-16.0,17.0,1644597835.15625,P05,D07,0,0,0
2329,58.0,-16.0,16.0,1644597835.1875,P05,D07,0,0,0
2330,58.0,-16.0,16.0,1644597835.21875,P05,D07,0,0,0
2331,58.0,-16.0,16.0,1644597835.25,P05,D07,0,0,0
2332,58.0,-16.0,16.0,1644597835.28125,P05,D07,0,0,0
2333,58.0,-16.0,16.0,1644597835.3125,P05,D07,0,0,0
2334,58.0,-16.0,16.0,1644597835.34375,P05,D07,0,0,0
2335,58.0,-16.0,17.0,1644597835.375,P05,D07,0,0,0
2336,58.0,-16.0,17.0,1644597835.40625,P05,D07,0,0,0
2337,58.0,-16.0,17.0,1644597835.4375,P05,D07,0,0,0
2338,58.0,-16.0,17.0,1644597835.46875,P05,D07,0,0,0
2339,58.0,-16.0,17.0,1644597835.5,P05,D07,0,0,0
2340,58.0,-16.0,16.0,1644597835.53125,P05,D07,0,0,0
2341,58.0,-16.0,17.0,1644597835.5625,P05,D07,0,0,0
2342,58.0,-16.0,16.0,1644597835.59375,P05,D07,0,0,0
2343,58.0,-16.0,17.0,1644597835.625,P05,D07,0,0,0
2344,58.0,-16.0,16.0,1644597835.65625,P05,D07,0,0,0
2345,58.0,-16.0,17.0,1644597835.6875,P05,D07,0,0,0
2346,58.0,-16.0,17.0,1644597835.71875,P05,D07,0,0,0
2347,58.0,-16.0,16.0,1644597835.75,P05,D07,0,0,0
2348,58.0,-16.0,17.0,1644597835.78125,P05,D07,0,0,0
2349,58.0,-16.0,17.0,1644597835.8125,P05,D07,0,0,0
2350,58.0,-16.0,17.0,1644597835.84375,P05,D07,0,0,0
2351,58.0,-16.0,16.0,1644597835.875,P05,D07,0,0,0
2352,58.0,-16.0,17.0,1644597835.90625,P05,D07,0,0,0
2353,58.0,-16.0,17.0,1644597835.9375,P05,D07,0,0,0
2354,58.0,-16.0,17.0,1644597835.96875,P05,D07,0,0,0
2355,58.0,-16.0,17.0,1644597836.0,P05,D07,0,0,0
2356,58.0,-16.0,16.0,1644597836.03125,P05,D07,0,0,0
2357,58.0,-16.0,16.0,1644597836.0625,P05,D07,0,0,0
2358,58.0,-16.0,16.0,1644597836.09375,P05,D07,0,0,0
2359,58.0,-16.0,17.0,1644597836.125,P05,D07,0,0,0
2360,58.0,-16.0,17.0,1644597836.15625,P05,D07,0,0,0
2361,58.0,-16.0,17.0,1644597836.1875,P05,D07,0,0,0
2362,58.0,-16.0,16.0,1644597836.21875,P05,D07,0,0,0
2363,58.0,-16.0,17.0,1644597836.25,P05,D07,0,0,0
2364,58.0,-16.0,16.0,1644597836.28125,P05,D07,0,0,0
2365,58.0,-16.0,17.0,1644597836.3125,P05,D07,0,0,0
2366,58.0,-16.0,16.0,1644597836.34375,P05,D07,0,0,0
2367,58.0,-16.0,17.0,1644597836.375,P05,D07,0,0,0
2368,58.0,-16.0,17.0,1644597836.40625,P05,D07,0,0,0
2369,58.0,-16.0,17.0,1644597836.4375,P05,D07,0,0,0
2370,58.0,-16.0,16.0,1644597836.46875,P05,D07,0,0,0
