,acc_x,acc_y,acc_z,timestamp,participant,document,val,arou,eng
0,38.0,-11.0,47.0,1644596089.03125,P05,D00,0,1,1
1,39.0,-11.0,48.0,1644596089.0625,P05,D00,0,1,1
2,38.0,-11.0,48.0,1644596089.09375,P05,D00,0,1,1
3,38.0,-11.0,47.0,1644596089.125,P05,D00,0,1,1
4,38.0,-11.0,47.0,1644596089.15625,P05,D00,0,1,1
5,38.0,-11.0,47.0,1644596089.1875,P05,D00,0,1,1
6,39.0,-11.0,48.0,1644596089.21875,P05,D00,0,1,1
7,38.0,-11.0,47.0,1644596089.25,P05,D00,0,1,1
8,38.0,-11.0,48.0,1644596089.28125,P05,D00,0,1,1
9,38.0,-11.0,48.0,1644596089.3125,P05,D00,0,1,1
10,39.0,-11.0,47.0,1644596089.34375,P05,D00,0,1,1
11,38.0,-11.0,47.0,1644596089.375,P05,D00,0,1,1
12,38.0,-11.0,47.0,1644596089.40625,P05,D00,0,1,1
13,38.0,-11.0,48.0,1644596089.4375,P05,D00,0,1,1
14,38.0,-11.0,48.0,1644596089.46875,P05,D00,0,1,1
15,38.0,-11.0,47.0,1644596089.5,P05,D00,0,1,1
16,38.0,-11.0,48.0,1644596089.53125,P05,D00,0,1,1
17,38.0,-11.0,48.0,1644596089.5625,P05,D00,0,1,1
18,38.0,-11.0,48.0,1644596089.59375,P05,D00,0,1,1
19,38.0,-11.0,48.0,1644596089.625,P05,D00,0,1,1
20,38.0,-11.0,47.0,1644596089.65625,P05,D00,0,1,1
21,38.0,-11.0,48.0,1644596089.6875,P05,D00,0,1,1
22,38.0,-11.0,48.0,1644596089.71875,P05,D00,0,1,1
23,38.0,-11.0,48.0,1644596089.75,P05,D00,0,1,1
24,38.0,-11.0,48.0,1644596089.78125,P05,D00,0,1,1
25,38.0,-11.0,48.0,1644596089.8125,P05,D00,0,1,1
26,38.0,-11.0,48.0,1644596089.84375,P05,D00,0,1,1
27,39.0,-11.0,48.0,1644596089.875,P05,D00,0,1,1
28,38.0,-11.0,48.0,1644596089.90625,P05,D00,0,1,1
29,38.0,-11.0,47.0,1644596089.9375,P05,D00,0,1,1
30,38.0,-11.0,47.0,1644596089.96875,P05,D00,0,1,1
31,38.0,-11.0,48.0,1644596090.0,P05,D00,0,1,1
32,38.0,-11.0,48.0,1644596090.03125,P05,D00,0,1,1
33,38.0,-11.0,48.0,1644596090.0625,P05,D00,0,1,1
34,38.0,-11.0,47.0,1644596090.09375,P05,D00,0,1,1
35,38.0,-11.0,47.0,1644596090.125,P05,D00,0,1,1
36,38.0,-11.0,48.0,1644596090.15625,P05,D00,0,1,1
37,38.0,-11.0,48.0,1644596090.1875,P05,D00,0,1,1
38,38.0,-11.0,47.0,1644596090.21875,P05,D00,0,1,1
39,39.0,-11.0,48.0,1644596090.25,P05,D00,0,1,1
40,37.0,-11.0,48.0,1644596090.28125,P05,D00,0,1,1
41,37.0,-11.0,47.0,1644596090.3125,P05,D00,0,1,1
42,39.0,-11.0,47.0,1644596090.34375,P05,D00,0,1,1
43,39.0,-10.0,47.0,1644596090.375,P05,D00,0,1,1
44,37.0,-11.0,47.0,1644596090.40625,P05,D00,0,1,1
45,38.0,-11.0,47.0,1644596090.4375,P05,D00,0,1,1
46,39.0,-11.0,47.0,1644596090.46875,P05,D00,0,1,1
47,38.0,-11.0,47.0,1644596090.5,P05,D00,0,1,1
48,39.0,-11.0,47.0,1644596090.53125,P05,D00,0,1,1
49,39.0,-11.0,47.0,1644596090.5625,P05,D00,0,1,1
50,39.0,-10.0,47.0,1644596090.59375,P05,D00,0,1,1
51,39.0,-11.0,47.0,1644596090.625,P05,D00,0,1,1
52,38.0,-11.0,47.0,1644596090.65625,P05,D00,0,1,1
53,39.0,-11.0,47.0,1644596090.6875,P05,D00,0,1,1
54,39.0,-11.0,47.0,1644596090.71875,P05,D00,0,1,1
55,40.0,-10.0,47.0,1644596090.75,P05,D00,0,1,1
56,39.0,-10.0,46.0,1644596090.78125,P05,D00,0,1,1
57,39.0,-10.0,47.0,1644596090.8125,P05,D00,0,1,1
58,40.0,-10.0,47.0,1644596090.84375,P05,D00,0,1,1
59,40.0,-10.0,47.0,1644596090.875,P05,D00,0,1,1
60,39.0,-10.0,46.0,1644596090.90625,P05,D00,0,1,1
61,39.0,-10.0,47.0,1644596090.9375,P05,D00,0,1,1
62,40.0,-10.0,47.0,1644596090.96875,P05,D00,0,1,1
63,40.0,-10.0,46.0,1644596091.0,P05,D00,0,1,1
64,39.0,-10.0,46.0,1644596091.03125,P05,D00,0,1,1
65,40.0,-10.0,46.0,1644596091.0625,P05,D00,0,1,1
66,40.0,-10.0,46.0,1644596091.09375,P05,D00,0,1,1
67,40.0,-10.0,46.0,1644596091.125,P05,D00,0,1,1
68,40.0,-10.0,46.0,1644596091.15625,P05,D00,0,1,1
69,40.0,-9.0,46.0,1644596091.1875,P05,D00,0,1,1
70,42.0,-9.0,46.0,1644596091.21875,P05,D00,0,1,1
71,42.0,-9.0,46.0,1644596091.25,P05,D00,0,1,1
72,40.0,-10.0,46.0,1644596091.28125,P05,D00,0,1,1
73,40.0,-10.0,46.0,1644596091.3125,P05,D00,0,1,1
74,41.0,-10.0,46.0,1644596091.34375,P05,D00,0,1,1
75,41.0,-10.0,46.0,1644596091.375,P05,D00,0,1,1
76,40.0,-10.0,46.0,1644596091.40625,P05,D00,0,1,1
77,40.0,-10.0,46.0,1644596091.4375,P05,D00,0,1,1
78,41.0,-10.0,46.0,1644596091.46875,P05,D00,0,1,1
79,40.0,-10.0,46.0,1644596091.5,P05,D00,0,1,1
80,39.0,-10.0,47.0,1644596091.53125,P05,D00,0,1,1
81,40.0,-10.0,47.0,1644596091.5625,P05,D00,0,1,1
82,40.0,-10.0,46.0,1644596091.59375,P05,D00,0,1,1
83,40.0,-10.0,46.0,1644596091.625,P05,D00,0,1,1
84,40.0,-10.0,47.0,1644596091.65625,P05,D00,0,1,1
85,40.0,-10.0,46.0,1644596091.6875,P05,D00,0,1,1
86,40.0,-10.0,47.0,1644596091.71875,P05,D00,0,1,1
87,40.0,-10.0,47.0,1644596091.75,P05,D00,0,1,1
88,39.0,-10.0,47.0,1644596091.78125,P05,D00,0,1,1
89,39.0,-10.0,47.0,1644596091.8125,P05,D00,0,1,1
90,40.0,-10.0,46.0,1644596091.84375,P05,D00,0,1,1
91,41.0,-10.0,47.0,1644596091.875,P05,D00,0,1,1
92,40.0,-9.0,46.0,1644596091.90625,P05,D00,0,1,1
93,39.0,-10.0,47.0,1644596091.9375,P05,D00,0,1,1
94,39.0,-10.0,47.0,1644596091.96875,P05,D00,0,1,1
95,41.0,-10.0,47.0,1644596092.0,P05,D00,0,1,1
96,40.0,-10.0,46.0,1644596092.03125,P05,D00,0,1,1
97,40.0,-10.0,47.0,1644596092.0625,P05,D00,0,1,1
98,40.0,-10.0,47.0,1644596092.09375,P05,D00,0,1,1
99,40.0,-10.0,47.0,1644596092.125,P05,D00,0,1,1
100,40.0,-9.0,47.0,1644596092.15625,P05,D00,0,1,1
101,40.0,-10.0,47.0,1644596092.1875,P05,D00,0,1,1
102,39.0,-10.0,46.0,1644596092.21875,P05,D00,0,1,1
103,40.0,-10.0,46.0,1644596092.25,P05,D00,0,1,1
104,40.0,-9.0,47.0,1644596092.28125,P05,D00,0,1,1
105,39.0,-10.0,46.0,1644596092.3125,P05,D00,0,1,1
106,40.0,-10.0,47.0,1644596092.34375,P05,D00,0,1,1
107,40.0,-10.0,47.0,1644596092.375,P05,D00,0,1,1
108,40.0,-10.0,47.0,1644596092.40625,P05,D00,0,1,1
109,40.0,-10.0,47.0,1644596092.4375,P05,D00,0,1,1
110,40.0,-10.0,47.0,1644596092.46875,P05,D00,0,1,1
111,40.0,-10.0,46.0,1644596092.5,P05,D00,0,1,1
112,40.0,-9.0,47.0,1644596092.53125,P05,D00,0,1,1
113,39.0,-10.0,47.0,1644596092.5625,P05,D00,0,1,1
114,40.0,-10.0,46.0,1644596092.59375,P05,D00,0,1,1
115,40.0,-10.0,47.0,1644596092.625,P05,D00,0,1,1
116,40.0,-10.0,46.0,1644596092.65625,P05,D00,0,1,1
117,40.0,-9.0,47.0,1644596092.6875,P05,D00,0,1,1
118,40.0,-10.0,46.0,1644596092.71875,P05,D00,0,1,1
119,40.0,-10.0,47.0,1644596092.75,P05,D00,0,1,1
120,40.0,-10.0,47.0,1644596092.78125,P05,D00,0,1,1
121,40.0,-10.0,47.0,1644596092.8125,P05,D00,0,1,1
122,40.0,-10.0,46.0,1644596092.84375,P05,D00,0,1,1
123,40.0,-10.0,47.0,1644596092.875,P05,D00,0,1,1
124,40.0,-10.0,47.0,1644596092.90625,P05,D00,0,1,1
125,40.0,-10.0,46.0,1644596092.9375,P05,D00,0,1,1
126,40.0,-10.0,46.0,1644596092.96875,P05,D00,0,1,1
127,40.0,-10.0,46.0,1644596093.0,P05,D00,0,1,1
128,40.0,-10.0,46.0,1644596093.03125,P05,D00,0,1,1
129,40.0,-10.0,47.0,1644596093.0625,P05,D00,0,1,1
130,40.0,-9.0,47.0,1644596093.09375,P05,D00,0,1,1
131,40.0,-10.0,47.0,1644596093.125,P05,D00,0,1,1
132,40.0,-10.0,46.0,1644596093.15625,P05,D00,0,1,1
133,40.0,-10.0,47.0,1644596093.1875,P05,D00,0,1,1
134,39.0,-10.0,47.0,1644596093.21875,P05,D00,0,1,1
135,39.0,-10.0,47.0,1644596093.25,P05,D00,0,1,1
136,40.0,-10.0,46.0,1644596093.28125,P05,D00,0,1,1
137,40.0,-10.0,46.0,1644596093.3125,P05,D00,0,1,1
138,40.0,-10.0,47.0,1644596093.34375,P05,D00,0,1,1
139,40.0,-10.0,47.0,1644596093.375,P05,D00,0,1,1
140,40.0,-10.0,47.0,1644596093.40625,P05,D00,0,1,1
141,40.0,-10.0,46.0,1644596093.4375,P05,D00,0,1,1
142,40.0,-10.0,47.0,1644596093.46875,P05,D00,0,1,1
143,40.0,-10.0,47.0,1644596093.5,P05,D00,0,1,1
144,40.0,-10.0,46.0,1644596093.53125,P05,D00,0,1,1
145,39.0,-10.0,47.0,1644596093.5625,P05,D00,0,1,1
146,40.0,-10.0,47.0,1644596093.59375,P05,D00,0,1,1
147,40.0,-10.0,46.0,1644596093.625,P05,D00,0,1,1
148,40.0,-10.0,46.0,1644596093.65625,P05,D00,0,1,1
149,40.0,-10.0,46.0,1644596093.6875,P05,D00,0,1,1
150,40.0,-10.0,47.0,1644596093.71875,P05,D00,0,1,1
151,40.0,-10.0,47.0,1644596093.75,P05,D00,0,1,1
152,40.0,-10.0,47.0,1644596093.78125,P05,D00,0,1,1
153,40.0,-10.0,46.0,1644596093.8125,P05,D00,0,1,1
154,40.0,-10.0,46.0,1644596093.84375,P05,D00,0,1,1
155,40.0,-10.0,47.0,1644596093.875,P05,D00,0,1,1
156,39.0,-10.0,47.0,1644596093.90625,P05,D00,0,1,1
157,40.0,-10.0,47.0,1644596093.9375,P05,D00,0,1,1
158,40.0,-10.0,46.0,1644596093.96875,P05,D00,0,1,1
159,40.0,-10.0,47.0,1644596094.0,P05,D00,0,1,1
160,39.0,-10.0,46.0,1644596094.03125,P05,D00,0,1,1
161,40.0,-10.0,46.0,1644596094.0625,P05,D00,0,1,1
162,41.0,-10.0,46.0,1644596094.09375,P05,D00,0,1,1
163,39.0,-10.0,46.0,1644596094.125,P05,D00,0,1,1
164,39.0,-10.0,47.0,1644596094.15625,P05,D00,0,1,1
165,40.0,-10.0,47.0,1644596094.1875,P05,D00,0,1,1
166,41.0,-10.0,46.0,1644596094.21875,P05,D00,0,1,1
167,39.0,-10.0,46.0,1644596094.25,P05,D00,0,1,1
168,39.0,-10.0,46.0,1644596094.28125,P05,D00,0,1,1
169,40.0,-10.0,46.0,1644596094.3125,P05,D00,0,1,1
170,40.0,-10.0,46.0,1644596094.34375,P05,D00,0,1,1
171,39.0,-10.0,47.0,1644596094.375,P05,D00,0,1,1
172,40.0,-10.0,47.0,1644596094.40625,P05,D00,0,1,1
173,40.0,-10.0,47.0,1644596094.4375,P05,D00,0,1,1
174,40.0,-10.0,46.0,1644596094.46875,P05,D00,0,1,1
175,40.0,-10.0,46.0,1644596094.5,P05,D00,0,1,1
176,40.0,-10.0,46.0,1644596094.53125,P05,D00,0,1,1
177,40.0,-10.0,47.0,1644596094.5625,P05,D00,0,1,1
178,39.0,-10.0,46.0,1644596094.59375,P05,D00,0,1,1
179,40.0,-10.0,46.0,1644596094.625,P05,D00,0,1,1
180,40.0,-10.0,46.0,1644596094.65625,P05,D00,0,1,1
181,40.0,-10.0,46.0,1644596094.6875,P05,D00,0,1,1
182,39.0,-10.0,47.0,1644596094.71875,P05,D00,0,1,1
183,40.0,-10.0,46.0,1644596094.75,P05,D00,0,1,1
184,40.0,-10.0,46.0,1644596094.78125,P05,D00,0,1,1
185,39.0,-10.0,47.0,1644596094.8125,P05,D00,0,1,1
186,39.0,-10.0,47.0,1644596094.84375,P05,D00,0,1,1
187,40.0,-10.0,46.0,1644596094.875,P05,D00,0,1,1
188,40.0,-10.0,47.0,1644596094.90625,P05,D00,0,1,1
189,39.0,-10.0,47.0,1644596094.9375,P05,D00,0,1,1
190,40.0,-10.0,47.0,1644596094.96875,P05,D00,0,1,1
191,40.0,-10.0,46.0,1644596095.0,P05,D00,0,1,1
192,40.0,-10.0,47.0,1644596095.03125,P05,D00,0,1,1
193,39.0,-10.0,47.0,1644596095.0625,P05,D00,0,1,1
194,40.0,-10.0,47.0,1644596095.09375,P05,D00,0,1,1
195,40.0,-10.0,46.0,1644596095.125,P05,D00,0,1,1
196,39.0,-10.0,47.0,1644596095.15625,P05,D00,0,1,1
197,40.0,-10.0,47.0,1644596095.1875,P05,D00,0,1,1
198,40.0,-10.0,47.0,1644596095.21875,P05,D00,0,1,1
199,40.0,-10.0,46.0,1644596095.25,P05,D00,0,1,1
200,40.0,-10.0,46.0,1644596095.28125,P05,D00,0,1,1
201,40.0,-10.0,47.0,1644596095.3125,P05,D00,0,1,1
202,40.0,-10.0,46.0,1644596095.34375,P05,D00,0,1,1
203,39.0,-10.0,47.0,1644596095.375,P05,D00,0,1,1
204,40.0,-10.0,47.0,1644596095.40625,P05,D00,0,1,1
205,40.0,-10.0,46.0,1644596095.4375,P05,D00,0,1,1
206,40.0,-10.0,47.0,1644596095.46875,P05,D00,0,1,1
207,40.0,-10.0,47.0,1644596095.5,P05,D00,0,1,1
208,40.0,-10.0,46.0,1644596095.53125,P05,D00,0,1,1
209,40.0,-10.0,46.0,1644596095.5625,P05,D00,0,1,1
210,40.0,-10.0,46.0,1644596095.59375,P05,D00,0,1,1
211,40.0,-10.0,47.0,1644596095.625,P05,D00,0,1,1
212,40.0,-10.0,47.0,1644596095.65625,P05,D00,0,1,1
213,40.0,-10.0,46.0,1644596095.6875,P05,D00,0,1,1
214,40.0,-10.0,47.0,1644596095.71875,P05,D00,0,1,1
215,40.0,-10.0,47.0,1644596095.75,P05,D00,0,1,1
216,40.0,-10.0,46.0,1644596095.78125,P05,D00,0,1,1
217,40.0,-10.0,47.0,1644596095.8125,P05,D00,0,1,1
218,40.0,-10.0,47.0,1644596095.84375,P05,D00,0,1,1
219,40.0,-10.0,47.0,1644596095.875,P05,D00,0,1,1
220,39.0,-10.0,47.0,1644596095.90625,P05,D00,0,1,1
221,40.0,-10.0,46.0,1644596095.9375,P05,D00,0,1,1
222,40.0,-10.0,47.0,1644596095.96875,P05,D00,0,1,1
223,39.0,-10.0,46.0,1644596096.0,P05,D00,0,1,1
224,40.0,-10.0,47.0,1644596096.03125,P05,D00,0,1,1
225,40.0,-10.0,47.0,1644596096.0625,P05,D00,0,1,1
226,40.0,-10.0,47.0,1644596096.09375,P05,D00,0,1,1
227,40.0,-10.0,46.0,1644596096.125,P05,D00,0,1,1
228,40.0,-10.0,47.0,1644596096.15625,P05,D00,0,1,1
229,39.0,-10.0,47.0,1644596096.1875,P05,D00,0,1,1
230,40.0,-10.0,47.0,1644596096.21875,P05,D00,0,1,1
231,39.0,-10.0,47.0,1644596096.25,P05,D00,0,1,1
232,40.0,-10.0,47.0,1644596096.28125,P05,D00,0,1,1
233,40.0,-10.0,47.0,1644596096.3125,P05,D00,0,1,1
234,39.0,-10.0,47.0,1644596096.34375,P05,D00,0,1,1
235,40.0,-10.0,46.0,1644596096.375,P05,D00,0,1,1
236,40.0,-10.0,47.0,1644596096.40625,P05,D00,0,1,1
237,39.0,-10.0,47.0,1644596096.4375,P05,D00,0,1,1
238,40.0,-10.0,46.0,1644596096.46875,P05,D00,0,1,1
239,40.0,-10.0,47.0,1644596096.5,P05,D00,0,1,1
240,40.0,-10.0,47.0,1644596096.53125,P05,D00,0,1,1
241,40.0,-10.0,47.0,1644596096.5625,P05,D00,0,1,1
242,39.0,-10.0,47.0,1644596096.59375,P05,D00,0,1,1
243,40.0,-10.0,46.0,1644596096.625,P05,D00,0,1,1
244,40.0,-10.0,46.0,1644596096.65625,P05,D00,0,1,1
245,39.0,-10.0,47.0,1644596096.6875,P05,D00,0,1,1
246,40.0,-10.0,47.0,1644596096.71875,P05,D00,0,1,1
247,40.0,-10.0,47.0,1644596096.75,P05,D00,0,1,1
248,40.0,-10.0,47.0,1644596096.78125,P05,D00,0,1,1
249,39.0,-10.0,47.0,1644596096.8125,P05,D00,0,1,1
250,40.0,-10.0,47.0,1644596096.84375,P05,D00,0,1,1
251,40.0,-10.0,47.0,1644596096.875,P05,D00,0,1,1
252,40.0,-10.0,47.0,1644596096.90625,P05,D00,0,1,1
253,40.0,-10.0,46.0,1644596096.9375,P05,D00,0,1,1
254,40.0,-10.0,46.0,1644596096.96875,P05,D00,0,1,1
255,40.0,-10.0,46.0,1644596097.0,P05,D00,0,1,1
256,39.0,-10.0,46.0,1644596097.03125,P05,D00,0,1,1
257,40.0,-10.0,47.0,1644596097.0625,P05,D00,0,1,1
258,39.0,-10.0,46.0,1644596097.09375,P05,D00,0,1,1
259,40.0,-10.0,46.0,1644596097.125,P05,D00,0,1,1
260,40.0,-10.0,47.0,1644596097.15625,P05,D00,0,1,1
261,39.0,-10.0,46.0,1644596097.1875,P05,D00,0,1,1
262,40.0,-10.0,46.0,1644596097.21875,P05,D00,0,1,1
263,40.0,-10.0,46.0,1644596097.25,P05,D00,0,1,1
264,40.0,-10.0,46.0,1644596097.28125,P05,D00,0,1,1
265,40.0,-10.0,46.0,1644596097.3125,P05,D00,0,1,1
266,40.0,-10.0,46.0,1644596097.34375,P05,D00,0,1,1
267,40.0,-10.0,46.0,1644596097.375,P05,D00,0,1,1
268,40.0,-10.0,46.0,1644596097.40625,P05,D00,0,1,1
269,39.0,-10.0,47.0,1644596097.4375,P05,D00,0,1,1
270,40.0,-10.0,47.0,1644596097.46875,P05,D00,0,1,1
271,40.0,-10.0,46.0,1644596097.5,P05,D00,0,1,1
272,40.0,-10.0,46.0,1644596097.53125,P05,D00,0,1,1
273,40.0,-10.0,46.0,1644596097.5625,P05,D00,0,1,1
274,40.0,-10.0,46.0,1644596097.59375,P05,D00,0,1,1
275,40.0,-10.0,47.0,1644596097.625,P05,D00,0,1,1
276,40.0,-10.0,46.0,1644596097.65625,P05,D00,0,1,1
277,40.0,-10.0,46.0,1644596097.6875,P05,D00,0,1,1
278,40.0,-10.0,46.0,1644596097.71875,P05,D00,0,1,1
279,40.0,-10.0,46.0,1644596097.75,P05,D00,0,1,1
280,40.0,-10.0,47.0,1644596097.78125,P05,D00,0,1,1
281,40.0,-10.0,46.0,1644596097.8125,P05,D00,0,1,1
282,39.0,-10.0,46.0,1644596097.84375,P05,D00,0,1,1
283,40.0,-10.0,47.0,1644596097.875,P05,D00,0,1,1
284,40.0,-10.0,46.0,1644596097.90625,P05,D00,0,1,1
285,40.0,-10.0,46.0,1644596097.9375,P05,D00,0,1,1
286,40.0,-10.0,47.0,1644596097.96875,P05,D00,0,1,1
287,40.0,-10.0,46.0,1644596098.0,P05,D00,0,1,1
288,40.0,-10.0,47.0,1644596098.03125,P05,D00,0,1,1
289,40.0,-10.0,47.0,1644596098.0625,P05,D00,0,1,1
290,39.0,-10.0,47.0,1644596098.09375,P05,D00,0,1,1
291,40.0,-10.0,46.0,1644596098.125,P05,D00,0,1,1
292,40.0,-10.0,47.0,1644596098.15625,P05,D00,0,1,1
293,40.0,-10.0,46.0,1644596098.1875,P05,D00,0,1,1
294,40.0,-10.0,47.0,1644596098.21875,P05,D00,0,1,1
295,40.0,-10.0,47.0,1644596098.25,P05,D00,0,1,1
296,40.0,-10.0,47.0,1644596098.28125,P05,D00,0,1,1
297,39.0,-10.0,47.0,1644596098.3125,P05,D00,0,1,1
298,40.0,-10.0,47.0,1644596098.34375,P05,D00,0,1,1
299,40.0,-10.0,47.0,1644596098.375,P05,D00,0,1,1
300,40.0,-10.0,47.0,1644596098.40625,P05,D00,0,1,1
301,40.0,-10.0,46.0,1644596098.4375,P05,D00,0,1,1
302,39.0,-10.0,46.0,1644596098.46875,P05,D00,0,1,1
303,40.0,-10.0,46.0,1644596098.5,P05,D00,0,1,1
304,40.0,-10.0,46.0,1644596098.53125,P05,D00,0,1,1
305,40.0,-10.0,47.0,1644596098.5625,P05,D00,0,1,1
306,40.0,-10.0,47.0,1644596098.59375,P05,D00,0,1,1
307,40.0,-10.0,46.0,1644596098.625,P05,D00,0,1,1
308,40.0,-10.0,47.0,1644596098.65625,P05,D00,0,1,1
309,40.0,-10.0,47.0,1644596098.6875,P05,D00,0,1,1
310,40.0,-10.0,47.0,1644596098.71875,P05,D00,0,1,1
311,39.0,-10.0,46.0,1644596098.75,P05,D00,0,1,1
312,39.0,-10.0,46.0,1644596098.78125,P05,D00,0,1,1
313,40.0,-10.0,47.0,1644596098.8125,P05,D00,0,1,1
314,40.0,-10.0,47.0,1644596098.84375,P05,D00,0,1,1
315,39.0,-10.0,46.0,1644596098.875,P05,D00,0,1,1
316,40.0,-10.0,46.0,1644596098.90625,P05,D00,0,1,1
317,40.0,-10.0,47.0,1644596098.9375,P05,D00,0,1,1
318,39.0,-10.0,46.0,1644596098.96875,P05,D00,0,1,1
319,39.0,-10.0,47.0,1644596099.0,P05,D00,0,1,1
320,41.0,-10.0,47.0,1644596099.03125,P05,D00,0,1,1
321,40.0,-10.0,47.0,1644596099.0625,P05,D00,0,1,1
322,39.0,-10.0,46.0,1644596099.09375,P05,D00,0,1,1
323,40.0,-10.0,46.0,1644596099.125,P05,D00,0,1,1
324,40.0,-10.0,46.0,1644596099.15625,P05,D00,0,1,1
325,39.0,-10.0,46.0,1644596099.1875,P05,D00,0,1,1
326,40.0,-10.0,47.0,1644596099.21875,P05,D00,0,1,1
327,40.0,-10.0,46.0,1644596099.25,P05,D00,0,1,1
328,40.0,-10.0,46.0,1644596099.28125,P05,D00,0,1,1
329,40.0,-10.0,47.0,1644596099.3125,P05,D00,0,1,1
330,39.0,-10.0,47.0,1644596099.34375,P05,D00,0,1,1
331,40.0,-10.0,47.0,1644596099.375,P05,D00,0,1,1
332,40.0,-10.0,47.0,1644596099.40625,P05,D00,0,1,1
333,40.0,-10.0,46.0,1644596099.4375,P05,D00,0,1,1
334,40.0,-10.0,46.0,1644596099.46875,P05,D00,0,1,1
335,40.0,-10.0,47.0,1644596099.5,P05,D00,0,1,1
336,39.0,-10.0,47.0,1644596099.53125,P05,D00,0,1,1
337,40.0,-10.0,47.0,1644596099.5625,P05,D00,0,1,1
338,40.0,-10.0,46.0,1644596099.59375,P05,D00,0,1,1
339,40.0,-10.0,47.0,1644596099.625,P05,D00,0,1,1
340,40.0,-10.0,47.0,1644596099.65625,P05,D00,0,1,1
341,40.0,-10.0,47.0,1644596099.6875,P05,D00,0,1,1
342,40.0,-10.0,47.0,1644596099.71875,P05,D00,0,1,1
343,40.0,-10.0,47.0,1644596099.75,P05,D00,0,1,1
344,40.0,-10.0,46.0,1644596099.78125,P05,D00,0,1,1
345,40.0,-10.0,46.0,1644596099.8125,P05,D00,0,1,1
346,40.0,-10.0,46.0,1644596099.84375,P05,D00,0,1,1
347,40.0,-10.0,46.0,1644596099.875,P05,D00,0,1,1
348,40.0,-10.0,47.0,1644596099.90625,P05,D00,0,1,1
349,40.0,-10.0,46.0,1644596099.9375,P05,D00,0,1,1
350,40.0,-10.0,47.0,1644596099.96875,P05,D00,0,1,1
351,40.0,-10.0,47.0,1644596100.0,P05,D00,0,1,1
352,40.0,-10.0,46.0,1644596100.03125,P05,D00,0,1,1
353,40.0,-10.0,47.0,1644596100.0625,P05,D00,0,1,1
354,39.0,-10.0,46.0,1644596100.09375,P05,D00,0,1,1
355,40.0,-10.0,46.0,1644596100.125,P05,D00,0,1,1
356,40.0,-10.0,47.0,1644596100.15625,P05,D00,0,1,1
357,40.0,-10.0,46.0,1644596100.1875,P05,D00,0,1,1
358,40.0,-10.0,46.0,1644596100.21875,P05,D00,0,1,1
359,40.0,-10.0,47.0,1644596100.25,P05,D00,0,1,1
360,40.0,-10.0,47.0,1644596100.28125,P05,D00,0,1,1
361,40.0,-10.0,47.0,1644596100.3125,P05,D00,0,1,1
362,40.0,-10.0,47.0,1644596100.34375,P05,D00,0,1,1
363,40.0,-10.0,47.0,1644596100.375,P05,D00,0,1,1
364,39.0,-10.0,47.0,1644596100.40625,P05,D00,0,1,1
365,39.0,-10.0,46.0,1644596100.4375,P05,D00,0,1,1
366,40.0,-10.0,47.0,1644596100.46875,P05,D00,0,1,1
367,40.0,-10.0,47.0,1644596100.5,P05,D00,0,1,1
368,40.0,-10.0,46.0,1644596100.53125,P05,D00,0,1,1
369,39.0,-10.0,47.0,1644596100.5625,P05,D00,0,1,1
370,40.0,-10.0,47.0,1644596100.59375,P05,D00,0,1,1
371,40.0,-10.0,47.0,1644596100.625,P05,D00,0,1,1
372,39.0,-10.0,46.0,1644596100.65625,P05,D00,0,1,1
373,39.0,-10.0,46.0,1644596100.6875,P05,D00,0,1,1
374,40.0,-10.0,46.0,1644596100.71875,P05,D00,0,1,1
375,40.0,-10.0,47.0,1644596100.75,P05,D00,0,1,1
376,40.0,-10.0,47.0,1644596100.78125,P05,D00,0,1,1
377,40.0,-10.0,47.0,1644596100.8125,P05,D00,0,1,1
378,40.0,-10.0,46.0,1644596100.84375,P05,D00,0,1,1
379,40.0,-10.0,47.0,1644596100.875,P05,D00,0,1,1
380,40.0,-10.0,46.0,1644596100.90625,P05,D00,0,1,1
381,40.0,-10.0,46.0,1644596100.9375,P05,D00,0,1,1
382,40.0,-10.0,47.0,1644596100.96875,P05,D00,0,1,1
383,40.0,-10.0,47.0,1644596101.0,P05,D00,0,1,1
384,40.0,-10.0,47.0,1644596101.03125,P05,D00,0,1,1
385,40.0,-10.0,46.0,1644596101.0625,P05,D00,0,1,1
386,40.0,-10.0,47.0,1644596101.09375,P05,D00,0,1,1
387,40.0,-10.0,46.0,1644596101.125,P05,D00,0,1,1
388,40.0,-10.0,46.0,1644596101.15625,P05,D00,0,1,1
389,40.0,-10.0,46.0,1644596101.1875,P05,D00,0,1,1
390,40.0,-10.0,46.0,1644596101.21875,P05,D00,0,1,1
391,40.0,-10.0,46.0,1644596101.25,P05,D00,0,1,1
392,40.0,-10.0,46.0,1644596101.28125,P05,D00,0,1,1
393,40.0,-10.0,46.0,1644596101.3125,P05,D00,0,1,1
394,40.0,-10.0,46.0,1644596101.34375,P05,D00,0,1,1
395,40.0,-10.0,47.0,1644596101.375,P05,D00,0,1,1
396,40.0,-10.0,46.0,1644596101.40625,P05,D00,0,1,1
397,40.0,-10.0,46.0,1644596101.4375,P05,D00,0,1,1
398,39.0,-10.0,47.0,1644596101.46875,P05,D00,0,1,1
399,40.0,-10.0,46.0,1644596101.5,P05,D00,0,1,1
400,40.0,-10.0,46.0,1644596101.53125,P05,D00,0,1,1
401,39.0,-10.0,46.0,1644596101.5625,P05,D00,0,1,1
402,40.0,-10.0,47.0,1644596101.59375,P05,D00,0,1,1
403,40.0,-10.0,47.0,1644596101.625,P05,D00,0,1,1
404,39.0,-10.0,46.0,1644596101.65625,P05,D00,0,1,1
405,40.0,-10.0,47.0,1644596101.6875,P05,D00,0,1,1
406,40.0,-10.0,46.0,1644596101.71875,P05,D00,0,1,1
407,39.0,-10.0,46.0,1644596101.75,P05,D00,0,1,1
408,40.0,-10.0,47.0,1644596101.78125,P05,D00,0,1,1
409,40.0,-10.0,46.0,1644596101.8125,P05,D00,0,1,1
410,39.0,-10.0,47.0,1644596101.84375,P05,D00,0,1,1
411,40.0,-10.0,47.0,1644596101.875,P05,D00,0,1,1
412,40.0,-10.0,46.0,1644596101.90625,P05,D00,0,1,1
413,39.0,-10.0,46.0,1644596101.9375,P05,D00,0,1,1
414,39.0,-10.0,46.0,1644596101.96875,P05,D00,0,1,1
415,40.0,-10.0,47.0,1644596102.0,P05,D00,0,1,1
416,40.0,-10.0,46.0,1644596102.03125,P05,D00,0,1,1
417,39.0,-10.0,47.0,1644596102.0625,P05,D00,0,1,1
418,40.0,-10.0,47.0,1644596102.09375,P05,D00,0,1,1
419,40.0,-10.0,46.0,1644596102.125,P05,D00,0,1,1
420,39.0,-10.0,46.0,1644596102.15625,P05,D00,0,1,1
421,40.0,-10.0,46.0,1644596102.1875,P05,D00,0,1,1
422,40.0,-10.0,47.0,1644596102.21875,P05,D00,0,1,1
423,40.0,-10.0,47.0,1644596102.25,P05,D00,0,1,1
424,40.0,-10.0,46.0,1644596102.28125,P05,D00,0,1,1
425,39.0,-10.0,46.0,1644596102.3125,P05,D00,0,1,1
426,40.0,-10.0,47.0,1644596102.34375,P05,D00,0,1,1
427,40.0,-10.0,46.0,1644596102.375,P05,D00,0,1,1
428,40.0,-10.0,47.0,1644596102.40625,P05,D00,0,1,1
429,40.0,-10.0,47.0,1644596102.4375,P05,D00,0,1,1
430,40.0,-10.0,47.0,1644596102.46875,P05,D00,0,1,1
431,40.0,-10.0,47.0,1644596102.5,P05,D00,0,1,1
432,40.0,-10.0,46.0,1644596102.53125,P05,D00,0,1,1
433,40.0,-10.0,47.0,1644596102.5625,P05,D00,0,1,1
434,40.0,-10.0,47.0,1644596102.59375,P05,D00,0,1,1
435,40.0,-10.0,47.0,1644596102.625,P05,D00,0,1,1
436,40.0,-10.0,47.0,1644596102.65625,P05,D00,0,1,1
437,40.0,-10.0,47.0,1644596102.6875,P05,D00,0,1,1
438,40.0,-10.0,47.0,1644596102.71875,P05,D00,0,1,1
439,40.0,-10.0,47.0,1644596102.75,P05,D00,0,1,1
440,39.0,-10.0,46.0,1644596102.78125,P05,D00,0,1,1
441,39.0,-10.0,47.0,1644596102.8125,P05,D00,0,1,1
442,40.0,-10.0,47.0,1644596102.84375,P05,D00,0,1,1
443,39.0,-10.0,47.0,1644596102.875,P05,D00,0,1,1
444,39.0,-10.0,46.0,1644596102.90625,P05,D00,0,1,1
445,40.0,-10.0,47.0,1644596102.9375,P05,D00,0,1,1
446,40.0,-10.0,47.0,1644596102.96875,P05,D00,0,1,1
447,40.0,-10.0,47.0,1644596103.0,P05,D00,0,1,1
448,39.0,-10.0,47.0,1644596103.03125,P05,D00,0,1,1
449,40.0,-10.0,47.0,1644596103.0625,P05,D00,0,1,1
450,40.0,-10.0,47.0,1644596103.09375,P05,D00,0,1,1
451,40.0,-10.0,47.0,1644596103.125,P05,D00,0,1,1
452,39.0,-10.0,47.0,1644596103.15625,P05,D00,0,1,1
453,39.0,-10.0,47.0,1644596103.1875,P05,D00,0,1,1
454,39.0,-10.0,46.0,1644596103.21875,P05,D00,0,1,1
455,39.0,-10.0,47.0,1644596103.25,P05,D00,0,1,1
456,40.0,-10.0,47.0,1644596103.28125,P05,D00,0,1,1
457,39.0,-10.0,47.0,1644596103.3125,P05,D00,0,1,1
458,39.0,-10.0,47.0,1644596103.34375,P05,D00,0,1,1
459,39.0,-10.0,47.0,1644596103.375,P05,D00,0,1,1
460,40.0,-10.0,47.0,1644596103.40625,P05,D00,0,1,1
461,40.0,-10.0,47.0,1644596103.4375,P05,D00,0,1,1
462,40.0,-10.0,47.0,1644596103.46875,P05,D00,0,1,1
463,39.0,-10.0,46.0,1644596103.5,P05,D00,0,1,1
464,40.0,-10.0,47.0,1644596103.53125,P05,D00,0,1,1
465,39.0,-10.0,47.0,1644596103.5625,P05,D00,0,1,1
466,39.0,-10.0,47.0,1644596103.59375,P05,D00,0,1,1
467,40.0,-10.0,47.0,1644596103.625,P05,D00,0,1,1
468,39.0,-10.0,46.0,1644596103.65625,P05,D00,0,1,1
469,40.0,-10.0,47.0,1644596103.6875,P05,D00,0,1,1
470,40.0,-10.0,47.0,1644596103.71875,P05,D00,0,1,1
471,40.0,-10.0,46.0,1644596103.75,P05,D00,0,1,1
472,40.0,-10.0,46.0,1644596103.78125,P05,D00,0,1,1
473,40.0,-10.0,47.0,1644596103.8125,P05,D00,0,1,1
474,40.0,-10.0,47.0,1644596103.84375,P05,D00,0,1,1
475,40.0,-10.0,46.0,1644596103.875,P05,D00,0,1,1
476,40.0,-10.0,46.0,1644596103.90625,P05,D00,0,1,1
477,40.0,-10.0,47.0,1644596103.9375,P05,D00,0,1,1
478,39.0,-10.0,46.0,1644596103.96875,P05,D00,0,1,1
479,39.0,-10.0,46.0,1644596104.0,P05,D00,0,1,1
480,40.0,-10.0,46.0,1644596104.03125,P05,D00,0,1,1
481,40.0,-10.0,47.0,1644596104.0625,P05,D00,0,1,1
482,39.0,-10.0,47.0,1644596104.09375,P05,D00,0,1,1
483,40.0,-10.0,46.0,1644596104.125,P05,D00,0,1,1
484,40.0,-10.0,46.0,1644596104.15625,P05,D00,0,1,1
485,40.0,-10.0,47.0,1644596104.1875,P05,D00,0,1,1
486,40.0,-10.0,46.0,1644596104.21875,P05,D00,0,1,1
487,40.0,-10.0,47.0,1644596104.25,P05,D00,0,1,1
488,40.0,-10.0,47.0,1644596104.28125,P05,D00,0,1,1
489,39.0,-10.0,47.0,1644596104.3125,P05,D00,0,1,1
490,40.0,-10.0,46.0,1644596104.34375,P05,D00,0,1,1
491,40.0,-10.0,47.0,1644596104.375,P05,D00,0,1,1
492,40.0,-10.0,47.0,1644596104.40625,P05,D00,0,1,1
493,39.0,-10.0,46.0,1644596104.4375,P05,D00,0,1,1
494,40.0,-10.0,47.0,1644596104.46875,P05,D00,0,1,1
495,40.0,-10.0,46.0,1644596104.5,P05,D00,0,1,1
496,40.0,-10.0,46.0,1644596104.53125,P05,D00,0,1,1
497,40.0,-10.0,46.0,1644596104.5625,P05,D00,0,1,1
498,40.0,-10.0,47.0,1644596104.59375,P05,D00,0,1,1
499,40.0,-10.0,47.0,1644596104.625,P05,D00,0,1,1
500,39.0,-10.0,46.0,1644596104.65625,P05,D00,0,1,1
501,40.0,-10.0,46.0,1644596104.6875,P05,D00,0,1,1
502,39.0,-10.0,47.0,1644596104.71875,P05,D00,0,1,1
503,40.0,-10.0,46.0,1644596104.75,P05,D00,0,1,1
504,40.0,-10.0,46.0,1644596104.78125,P05,D00,0,1,1
505,39.0,-10.0,47.0,1644596104.8125,P05,D00,0,1,1
506,39.0,-10.0,47.0,1644596104.84375,P05,D00,0,1,1
507,40.0,-10.0,47.0,1644596104.875,P05,D00,0,1,1
508,39.0,-10.0,47.0,1644596104.90625,P05,D00,0,1,1
509,39.0,-10.0,47.0,1644596104.9375,P05,D00,0,1,1
510,40.0,-10.0,46.0,1644596104.96875,P05,D00,0,1,1
511,39.0,-10.0,47.0,1644596105.0,P05,D00,0,1,1
512,40.0,-10.0,47.0,1644596105.03125,P05,D00,0,1,1
513,39.0,-10.0,46.0,1644596105.0625,P05,D00,0,1,1
514,39.0,-10.0,46.0,1644596105.09375,P05,D00,0,1,1
515,40.0,-10.0,47.0,1644596105.125,P05,D00,0,1,1
516,40.0,-10.0,47.0,1644596105.15625,P05,D00,0,1,1
517,40.0,-10.0,47.0,1644596105.1875,P05,D00,0,1,1
518,40.0,-10.0,47.0,1644596105.21875,P05,D00,0,1,1
519,39.0,-10.0,46.0,1644596105.25,P05,D00,0,1,1
520,39.0,-10.0,47.0,1644596105.28125,P05,D00,0,1,1
521,40.0,-10.0,47.0,1644596105.3125,P05,D00,0,1,1
522,39.0,-10.0,47.0,1644596105.34375,P05,D00,0,1,1
523,40.0,-10.0,47.0,1644596105.375,P05,D00,0,1,1
524,40.0,-10.0,46.0,1644596105.40625,P05,D00,0,1,1
525,39.0,-10.0,47.0,1644596105.4375,P05,D00,0,1,1
526,40.0,-10.0,47.0,1644596105.46875,P05,D00,0,1,1
527,39.0,-10.0,47.0,1644596105.5,P05,D00,0,1,1
528,40.0,-10.0,47.0,1644596105.53125,P05,D00,0,1,1
529,40.0,-10.0,47.0,1644596105.5625,P05,D00,0,1,1
530,40.0,-10.0,47.0,1644596105.59375,P05,D00,0,1,1
531,40.0,-10.0,46.0,1644596105.625,P05,D00,0,1,1
532,39.0,-10.0,47.0,1644596105.65625,P05,D00,0,1,1
533,39.0,-10.0,46.0,1644596105.6875,P05,D00,0,1,1
534,40.0,-10.0,47.0,1644596105.71875,P05,D00,0,1,1
535,39.0,-10.0,47.0,1644596105.75,P05,D00,0,1,1
536,40.0,-10.0,47.0,1644596105.78125,P05,D00,0,1,1
537,40.0,-10.0,47.0,1644596105.8125,P05,D00,0,1,1
538,39.0,-10.0,46.0,1644596105.84375,P05,D00,0,1,1
539,39.0,-10.0,47.0,1644596105.875,P05,D00,0,1,1
540,40.0,-10.0,46.0,1644596105.90625,P05,D00,0,1,1
541,40.0,-10.0,47.0,1644596105.9375,P05,D00,0,1,1
542,40.0,-10.0,47.0,1644596105.96875,P05,D00,0,1,1
543,40.0,-10.0,47.0,1644596106.0,P05,D00,0,1,1
544,40.0,-10.0,47.0,1644596106.03125,P05,D00,0,1,1
545,40.0,-10.0,47.0,1644596106.0625,P05,D00,0,1,1
546,39.0,-10.0,47.0,1644596106.09375,P05,D00,0,1,1
547,40.0,-10.0,46.0,1644596106.125,P05,D00,0,1,1
548,39.0,-10.0,47.0,1644596106.15625,P05,D00,0,1,1
549,39.0,-10.0,47.0,1644596106.1875,P05,D00,0,1,1
550,40.0,-10.0,47.0,1644596106.21875,P05,D00,0,1,1
551,39.0,-10.0,47.0,1644596106.25,P05,D00,0,1,1
552,40.0,-10.0,47.0,1644596106.28125,P05,D00,0,1,1
553,40.0,-10.0,47.0,1644596106.3125,P05,D00,0,1,1
554,39.0,-10.0,47.0,1644596106.34375,P05,D00,0,1,1
555,40.0,-10.0,47.0,1644596106.375,P05,D00,0,1,1
556,40.0,-10.0,47.0,1644596106.40625,P05,D00,0,1,1
557,40.0,-10.0,47.0,1644596106.4375,P05,D00,0,1,1
558,40.0,-10.0,47.0,1644596106.46875,P05,D00,0,1,1
559,39.0,-10.0,47.0,1644596106.5,P05,D00,0,1,1
560,40.0,-10.0,46.0,1644596106.53125,P05,D00,0,1,1
561,40.0,-10.0,47.0,1644596106.5625,P05,D00,0,1,1
562,39.0,-10.0,47.0,1644596106.59375,P05,D00,0,1,1
563,40.0,-10.0,47.0,1644596106.625,P05,D00,0,1,1
564,40.0,-10.0,46.0,1644596106.65625,P05,D00,0,1,1
565,40.0,-10.0,47.0,1644596106.6875,P05,D00,0,1,1
566,40.0,-10.0,47.0,1644596106.71875,P05,D00,0,1,1
567,39.0,-10.0,46.0,1644596106.75,P05,D00,0,1,1
568,40.0,-10.0,47.0,1644596106.78125,P05,D00,0,1,1
569,40.0,-10.0,47.0,1644596106.8125,P05,D00,0,1,1
570,40.0,-10.0,46.0,1644596106.84375,P05,D00,0,1,1
571,40.0,-11.0,46.0,1644596106.875,P05,D00,0,1,1
572,40.0,-11.0,46.0,1644596106.90625,P05,D00,0,1,1
573,39.0,-11.0,47.0,1644596106.9375,P05,D00,0,1,1
574,39.0,-11.0,47.0,1644596106.96875,P05,D00,0,1,1
575,40.0,-10.0,47.0,1644596107.0,P05,D00,0,1,1
576,40.0,-10.0,47.0,1644596107.03125,P05,D00,0,1,1
577,39.0,-10.0,47.0,1644596107.0625,P05,D00,0,1,1
578,39.0,-10.0,46.0,1644596107.09375,P05,D00,0,1,1
579,40.0,-10.0,47.0,1644596107.125,P05,D00,0,1,1
580,40.0,-10.0,46.0,1644596107.15625,P05,D00,0,1,1
581,39.0,-10.0,47.0,1644596107.1875,P05,D00,0,1,1
582,39.0,-10.0,46.0,1644596107.21875,P05,D00,0,1,1
583,40.0,-10.0,47.0,1644596107.25,P05,D00,0,1,1
584,39.0,-10.0,47.0,1644596107.28125,P05,D00,0,1,1
585,39.0,-10.0,47.0,1644596107.3125,P05,D00,0,1,1
586,40.0,-10.0,47.0,1644596107.34375,P05,D00,0,1,1
587,39.0,-11.0,47.0,1644596107.375,P05,D00,0,1,1
588,39.0,-11.0,46.0,1644596107.40625,P05,D00,0,1,1
589,39.0,-10.0,47.0,1644596107.4375,P05,D00,0,1,1
590,40.0,-10.0,47.0,1644596107.46875,P05,D00,0,1,1
591,40.0,-10.0,46.0,1644596107.5,P05,D00,0,1,1
592,39.0,-10.0,47.0,1644596107.53125,P05,D00,0,1,1
593,40.0,-10.0,47.0,1644596107.5625,P05,D00,0,1,1
594,40.0,-10.0,46.0,1644596107.59375,P05,D00,0,1,1
595,40.0,-10.0,47.0,1644596107.625,P05,D00,0,1,1
596,39.0,-10.0,47.0,1644596107.65625,P05,D00,0,1,1
597,40.0,-10.0,47.0,1644596107.6875,P05,D00,0,1,1
598,39.0,-10.0,46.0,1644596107.71875,P05,D00,0,1,1
599,39.0,-10.0,47.0,1644596107.75,P05,D00,0,1,1
600,39.0,-10.0,47.0,1644596107.78125,P05,D00,0,1,1
601,39.0,-10.0,47.0,1644596107.8125,P05,D00,0,1,1
602,38.0,-10.0,47.0,1644596107.84375,P05,D00,0,1,1
603,38.0,-11.0,47.0,1644596107.875,P05,D00,0,1,1
604,40.0,-10.0,47.0,1644596107.90625,P05,D00,0,1,1
605,39.0,-11.0,47.0,1644596107.9375,P05,D00,0,1,1
606,39.0,-11.0,47.0,1644596107.96875,P05,D00,0,1,1
607,39.0,-10.0,47.0,1644596108.0,P05,D00,0,1,1
608,40.0,-11.0,47.0,1644596108.03125,P05,D00,0,1,1
609,39.0,-11.0,47.0,1644596108.0625,P05,D00,0,1,1
610,39.0,-11.0,47.0,1644596108.09375,P05,D00,0,1,1
611,39.0,-11.0,46.0,1644596108.125,P05,D00,0,1,1
612,39.0,-10.0,47.0,1644596108.15625,P05,D00,0,1,1
613,40.0,-10.0,47.0,1644596108.1875,P05,D00,0,1,1
614,39.0,-10.0,47.0,1644596108.21875,P05,D00,0,1,1
615,39.0,-10.0,47.0,1644596108.25,P05,D00,0,1,1
616,39.0,-11.0,47.0,1644596108.28125,P05,D00,0,1,1
617,39.0,-10.0,47.0,1644596108.3125,P05,D00,0,1,1
618,39.0,-10.0,47.0,1644596108.34375,P05,D00,0,1,1
619,39.0,-11.0,47.0,1644596108.375,P05,D00,0,1,1
620,40.0,-10.0,47.0,1644596108.40625,P05,D00,0,1,1
621,40.0,-10.0,47.0,1644596108.4375,P05,D00,0,1,1
622,39.0,-11.0,47.0,1644596108.46875,P05,D00,0,1,1
623,39.0,-10.0,47.0,1644596108.5,P05,D00,0,1,1
624,39.0,-10.0,47.0,1644596108.53125,P05,D00,0,1,1
625,39.0,-10.0,47.0,1644596108.5625,P05,D00,0,1,1
626,40.0,-11.0,47.0,1644596108.59375,P05,D00,0,1,1
627,39.0,-11.0,47.0,1644596108.625,P05,D00,0,1,1
628,39.0,-10.0,47.0,1644596108.65625,P05,D00,0,1,1
629,40.0,-10.0,47.0,1644596108.6875,P05,D00,0,1,1
630,39.0,-10.0,47.0,1644596108.71875,P05,D00,0,1,1
631,39.0,-11.0,47.0,1644596108.75,P05,D00,0,1,1
632,40.0,-10.0,47.0,1644596108.78125,P05,D00,0,1,1
633,39.0,-10.0,47.0,1644596108.8125,P05,D00,0,1,1
634,39.0,-10.0,47.0,1644596108.84375,P05,D00,0,1,1
635,39.0,-11.0,47.0,1644596108.875,P05,D00,0,1,1
636,39.0,-10.0,47.0,1644596108.90625,P05,D00,0,1,1
637,39.0,-10.0,47.0,1644596108.9375,P05,D00,0,1,1
638,39.0,-10.0,47.0,1644596108.96875,P05,D00,0,1,1
639,39.0,-10.0,47.0,1644596109.0,P05,D00,0,1,1
640,40.0,-10.0,47.0,1644596109.03125,P05,D00,0,1,1
641,39.0,-10.0,47.0,1644596109.0625,P05,D00,0,1,1
642,39.0,-10.0,47.0,1644596109.09375,P05,D00,0,1,1
643,40.0,-10.0,47.0,1644596109.125,P05,D00,0,1,1
644,39.0,-10.0,46.0,1644596109.15625,P05,D00,0,1,1
645,40.0,-10.0,47.0,1644596109.1875,P05,D00,0,1,1
646,40.0,-10.0,47.0,1644596109.21875,P05,D00,0,1,1
647,40.0,-10.0,47.0,1644596109.25,P05,D00,0,1,1
648,39.0,-11.0,47.0,1644596109.28125,P05,D00,0,1,1
649,39.0,-10.0,47.0,1644596109.3125,P05,D00,0,1,1
650,40.0,-10.0,47.0,1644596109.34375,P05,D00,0,1,1
651,39.0,-10.0,47.0,1644596109.375,P05,D00,0,1,1
652,39.0,-10.0,47.0,1644596109.40625,P05,D00,0,1,1
653,39.0,-11.0,47.0,1644596109.4375,P05,D00,0,1,1
654,40.0,-10.0,47.0,1644596109.46875,P05,D00,0,1,1
655,39.0,-11.0,47.0,1644596109.5,P05,D00,0,1,1
656,39.0,-11.0,46.0,1644596109.53125,P05,D00,0,1,1
657,40.0,-10.0,47.0,1644596109.5625,P05,D00,0,1,1
658,39.0,-11.0,47.0,1644596109.59375,P05,D00,0,1,1
659,39.0,-11.0,47.0,1644596109.625,P05,D00,0,1,1
660,39.0,-10.0,47.0,1644596109.65625,P05,D00,0,1,1
661,39.0,-10.0,47.0,1644596109.6875,P05,D00,0,1,1
662,39.0,-11.0,47.0,1644596109.71875,P05,D00,0,1,1
663,39.0,-11.0,47.0,1644596109.75,P05,D00,0,1,1
664,39.0,-11.0,46.0,1644596109.78125,P05,D00,0,1,1
665,39.0,-11.0,47.0,1644596109.8125,P05,D00,0,1,1
666,39.0,-11.0,47.0,1644596109.84375,P05,D00,0,1,1
667,39.0,-11.0,47.0,1644596109.875,P05,D00,0,1,1
668,40.0,-11.0,47.0,1644596109.90625,P05,D00,0,1,1
669,39.0,-11.0,47.0,1644596109.9375,P05,D00,0,1,1
670,40.0,-11.0,47.0,1644596109.96875,P05,D00,0,1,1
671,39.0,-10.0,47.0,1644596110.0,P05,D00,0,1,1
672,40.0,-10.0,47.0,1644596110.03125,P05,D00,0,1,1
673,40.0,-11.0,47.0,1644596110.0625,P05,D00,0,1,1
674,39.0,-11.0,46.0,1644596110.09375,P05,D00,0,1,1
675,40.0,-11.0,46.0,1644596110.125,P05,D00,0,1,1
676,39.0,-11.0,47.0,1644596110.15625,P05,D00,0,1,1
677,40.0,-10.0,47.0,1644596110.1875,P05,D00,0,1,1
678,40.0,-10.0,47.0,1644596110.21875,P05,D00,0,1,1
679,39.0,-11.0,47.0,1644596110.25,P05,D00,0,1,1
680,39.0,-11.0,47.0,1644596110.28125,P05,D00,0,1,1
681,40.0,-11.0,46.0,1644596110.3125,P05,D00,0,1,1
682,39.0,-11.0,47.0,1644596110.34375,P05,D00,0,1,1
683,39.0,-11.0,46.0,1644596110.375,P05,D00,0,1,1
684,39.0,-11.0,47.0,1644596110.40625,P05,D00,0,1,1
685,40.0,-11.0,47.0,1644596110.4375,P05,D00,0,1,1
686,39.0,-11.0,47.0,1644596110.46875,P05,D00,0,1,1
687,39.0,-10.0,47.0,1644596110.5,P05,D00,0,1,1
688,39.0,-10.0,47.0,1644596110.53125,P05,D00,0,1,1
689,40.0,-10.0,46.0,1644596110.5625,P05,D00,0,1,1
690,40.0,-10.0,47.0,1644596110.59375,P05,D00,0,1,1
691,39.0,-11.0,47.0,1644596110.625,P05,D00,0,1,1
692,39.0,-10.0,47.0,1644596110.65625,P05,D00,0,1,1
693,39.0,-11.0,47.0,1644596110.6875,P05,D00,0,1,1
694,39.0,-11.0,47.0,1644596110.71875,P05,D00,0,1,1
695,39.0,-10.0,47.0,1644596110.75,P05,D00,0,1,1
696,39.0,-11.0,46.0,1644596110.78125,P05,D00,0,1,1
697,39.0,-10.0,47.0,1644596110.8125,P05,D00,0,1,1
698,39.0,-10.0,47.0,1644596110.84375,P05,D00,0,1,1
699,40.0,-10.0,47.0,1644596110.875,P05,D00,0,1,1
700,39.0,-11.0,47.0,1644596110.90625,P05,D00,0,1,1
701,39.0,-11.0,47.0,1644596110.9375,P05,D00,0,1,1
702,40.0,-10.0,47.0,1644596110.96875,P05,D00,0,1,1
703,40.0,-11.0,47.0,1644596111.0,P05,D00,0,1,1
704,39.0,-11.0,47.0,1644596111.03125,P05,D00,0,1,1
705,39.0,-11.0,47.0,1644596111.0625,P05,D00,0,1,1
706,39.0,-11.0,47.0,1644596111.09375,P05,D00,0,1,1
707,39.0,-11.0,47.0,1644596111.125,P05,D00,0,1,1
708,39.0,-11.0,47.0,1644596111.15625,P05,D00,0,1,1
709,39.0,-11.0,47.0,1644596111.1875,P05,D00,0,1,1
710,39.0,-10.0,47.0,1644596111.21875,P05,D00,0,1,1
711,39.0,-11.0,47.0,1644596111.25,P05,D00,0,1,1
712,39.0,-11.0,47.0,1644596111.28125,P05,D00,0,1,1
713,39.0,-11.0,47.0,1644596111.3125,P05,D00,0,1,1
714,39.0,-11.0,47.0,1644596111.34375,P05,D00,0,1,1
715,39.0,-11.0,47.0,1644596111.375,P05,D00,0,1,1
716,39.0,-10.0,47.0,1644596111.40625,P05,D00,0,1,1
717,39.0,-10.0,47.0,1644596111.4375,P05,D00,0,1,1
718,39.0,-11.0,47.0,1644596111.46875,P05,D00,0,1,1
719,39.0,-10.0,47.0,1644596111.5,P05,D00,0,1,1
720,39.0,-10.0,47.0,1644596111.53125,P05,D00,0,1,1
721,39.0,-11.0,47.0,1644596111.5625,P05,D00,0,1,1
722,39.0,-11.0,47.0,1644596111.59375,P05,D00,0,1,1
723,40.0,-11.0,47.0,1644596111.625,P05,D00,0,1,1
724,39.0,-11.0,47.0,1644596111.65625,P05,D00,0,1,1
725,39.0,-10.0,47.0,1644596111.6875,P05,D00,0,1,1
726,39.0,-11.0,47.0,1644596111.71875,P05,D00,0,1,1
727,39.0,-11.0,47.0,1644596111.75,P05,D00,0,1,1
728,40.0,-11.0,47.0,1644596111.78125,P05,D00,0,1,1
729,39.0,-10.0,47.0,1644596111.8125,P05,D00,0,1,1
730,39.0,-10.0,47.0,1644596111.84375,P05,D00,0,1,1
731,39.0,-11.0,47.0,1644596111.875,P05,D00,0,1,1
732,39.0,-11.0,47.0,1644596111.90625,P05,D00,0,1,1
733,39.0,-11.0,47.0,1644596111.9375,P05,D00,0,1,1
734,40.0,-10.0,47.0,1644596111.96875,P05,D00,0,1,1
735,39.0,-11.0,47.0,1644596112.0,P05,D00,0,1,1
736,40.0,-10.0,47.0,1644596112.03125,P05,D00,0,1,1
737,39.0,-10.0,47.0,1644596112.0625,P05,D00,0,1,1
738,39.0,-10.0,47.0,1644596112.09375,P05,D00,0,1,1
739,39.0,-11.0,47.0,1644596112.125,P05,D00,0,1,1
740,39.0,-11.0,47.0,1644596112.15625,P05,D00,0,1,1
741,39.0,-10.0,47.0,1644596112.1875,P05,D00,0,1,1
742,39.0,-11.0,47.0,1644596112.21875,P05,D00,0,1,1
743,39.0,-11.0,47.0,1644596112.25,P05,D00,0,1,1
744,39.0,-11.0,46.0,1644596112.28125,P05,D00,0,1,1
745,39.0,-11.0,47.0,1644596112.3125,P05,D00,0,1,1
746,39.0,-11.0,47.0,1644596112.34375,P05,D00,0,1,1
747,39.0,-11.0,47.0,1644596112.375,P05,D00,0,1,1
748,39.0,-11.0,47.0,1644596112.40625,P05,D00,0,1,1
749,40.0,-11.0,47.0,1644596112.4375,P05,D00,0,1,1
750,39.0,-11.0,47.0,1644596112.46875,P05,D00,0,1,1
751,39.0,-11.0,47.0,1644596112.5,P05,D00,0,1,1
752,39.0,-11.0,46.0,1644596112.53125,P05,D00,0,1,1
753,39.0,-11.0,46.0,1644596112.5625,P05,D00,0,1,1
754,40.0,-11.0,47.0,1644596112.59375,P05,D00,0,1,1
755,41.0,-11.0,47.0,1644596112.625,P05,D00,0,1,1
756,39.0,-11.0,46.0,1644596112.65625,P05,D00,0,1,1
757,39.0,-10.0,47.0,1644596112.6875,P05,D00,0,1,1
758,40.0,-11.0,47.0,1644596112.71875,P05,D00,0,1,1
759,39.0,-11.0,46.0,1644596112.75,P05,D00,0,1,1
760,39.0,-11.0,47.0,1644596112.78125,P05,D00,0,1,1
761,40.0,-11.0,47.0,1644596112.8125,P05,D00,0,1,1
762,39.0,-11.0,47.0,1644596112.84375,P05,D00,0,1,1
763,39.0,-11.0,46.0,1644596112.875,P05,D00,0,1,1
764,39.0,-11.0,47.0,1644596112.90625,P05,D00,0,1,1
765,40.0,-11.0,47.0,1644596112.9375,P05,D00,0,1,1
766,39.0,-11.0,46.0,1644596112.96875,P05,D00,0,1,1
767,39.0,-11.0,47.0,1644596113.0,P05,D00,0,1,1
768,40.0,-11.0,47.0,1644596113.03125,P05,D00,0,1,1
769,39.0,-10.0,47.0,1644596113.0625,P05,D00,0,1,1
770,39.0,-11.0,46.0,1644596113.09375,P05,D00,0,1,1
771,39.0,-11.0,46.0,1644596113.125,P05,D00,0,1,1
772,39.0,-10.0,46.0,1644596113.15625,P05,D00,0,1,1
773,40.0,-10.0,47.0,1644596113.1875,P05,D00,0,1,1
774,40.0,-11.0,46.0,1644596113.21875,P05,D00,0,1,1
775,39.0,-11.0,47.0,1644596113.25,P05,D00,0,1,1
776,39.0,-10.0,46.0,1644596113.28125,P05,D00,0,1,1
777,39.0,-11.0,47.0,1644596113.3125,P05,D00,0,1,1
778,39.0,-11.0,47.0,1644596113.34375,P05,D00,0,1,1
779,39.0,-11.0,46.0,1644596113.375,P05,D00,0,1,1
780,39.0,-11.0,47.0,1644596113.40625,P05,D00,0,1,1
781,40.0,-11.0,47.0,1644596113.4375,P05,D00,0,1,1
782,39.0,-11.0,46.0,1644596113.46875,P05,D00,0,1,1
783,39.0,-11.0,47.0,1644596113.5,P05,D00,0,1,1
784,39.0,-11.0,47.0,1644596113.53125,P05,D00,0,1,1
785,40.0,-11.0,47.0,1644596113.5625,P05,D00,0,1,1
786,39.0,-11.0,47.0,1644596113.59375,P05,D00,0,1,1
787,39.0,-11.0,47.0,1644596113.625,P05,D00,0,1,1
788,39.0,-11.0,47.0,1644596113.65625,P05,D00,0,1,1
789,39.0,-11.0,46.0,1644596113.6875,P05,D00,0,1,1
790,39.0,-11.0,47.0,1644596113.71875,P05,D00,0,1,1
791,39.0,-11.0,46.0,1644596113.75,P05,D00,0,1,1
792,39.0,-11.0,47.0,1644596113.78125,P05,D00,0,1,1
793,40.0,-10.0,47.0,1644596113.8125,P05,D00,0,1,1
794,40.0,-10.0,47.0,1644596113.84375,P05,D00,0,1,1
795,39.0,-11.0,47.0,1644596113.875,P05,D00,0,1,1
796,39.0,-11.0,47.0,1644596113.90625,P05,D00,0,1,1
797,39.0,-11.0,47.0,1644596113.9375,P05,D00,0,1,1
798,39.0,-11.0,47.0,1644596113.96875,P05,D00,0,1,1
799,39.0,-11.0,47.0,1644596114.0,P05,D00,0,1,1
800,39.0,-11.0,47.0,1644596114.03125,P05,D00,0,1,1
801,40.0,-11.0,47.0,1644596114.0625,P05,D00,0,1,1
802,39.0,-11.0,47.0,1644596114.09375,P05,D00,0,1,1
803,39.0,-11.0,47.0,1644596114.125,P05,D00,0,1,1
804,39.0,-11.0,47.0,1644596114.15625,P05,D00,0,1,1
805,39.0,-11.0,46.0,1644596114.1875,P05,D00,0,1,1
806,39.0,-11.0,47.0,1644596114.21875,P05,D00,0,1,1
807,40.0,-11.0,47.0,1644596114.25,P05,D00,0,1,1
808,40.0,-10.0,47.0,1644596114.28125,P05,D00,0,1,1
809,39.0,-10.0,47.0,1644596114.3125,P05,D00,0,1,1
810,39.0,-11.0,46.0,1644596114.34375,P05,D00,0,1,1
811,39.0,-11.0,47.0,1644596114.375,P05,D00,0,1,1
812,39.0,-11.0,47.0,1644596114.40625,P05,D00,0,1,1
813,39.0,-11.0,47.0,1644596114.4375,P05,D00,0,1,1
814,39.0,-10.0,47.0,1644596114.46875,P05,D00,0,1,1
815,39.0,-11.0,47.0,1644596114.5,P05,D00,0,1,1
816,39.0,-11.0,47.0,1644596114.53125,P05,D00,0,1,1
817,39.0,-10.0,46.0,1644596114.5625,P05,D00,0,1,1
818,39.0,-11.0,47.0,1644596114.59375,P05,D00,0,1,1
819,39.0,-11.0,47.0,1644596114.625,P05,D00,0,1,1
820,39.0,-11.0,47.0,1644596114.65625,P05,D00,0,1,1
821,39.0,-11.0,46.0,1644596114.6875,P05,D00,0,1,1
822,39.0,-11.0,47.0,1644596114.71875,P05,D00,0,1,1
823,39.0,-11.0,47.0,1644596114.75,P05,D00,0,1,1
824,39.0,-11.0,47.0,1644596114.78125,P05,D00,0,1,1
825,39.0,-11.0,47.0,1644596114.8125,P05,D00,0,1,1
826,39.0,-10.0,47.0,1644596114.84375,P05,D00,0,1,1
827,40.0,-10.0,47.0,1644596114.875,P05,D00,0,1,1
828,39.0,-11.0,47.0,1644596114.90625,P05,D00,0,1,1
829,39.0,-11.0,47.0,1644596114.9375,P05,D00,0,1,1
830,39.0,-11.0,47.0,1644596114.96875,P05,D00,0,1,1
831,39.0,-11.0,47.0,1644596115.0,P05,D00,0,1,1
832,39.0,-11.0,47.0,1644596115.03125,P05,D00,0,1,1
833,39.0,-11.0,47.0,1644596115.0625,P05,D00,0,1,1
834,39.0,-11.0,47.0,1644596115.09375,P05,D00,0,1,1
835,40.0,-10.0,47.0,1644596115.125,P05,D00,0,1,1
836,40.0,-10.0,47.0,1644596115.15625,P05,D00,0,1,1
837,39.0,-11.0,47.0,1644596115.1875,P05,D00,0,1,1
838,39.0,-11.0,47.0,1644596115.21875,P05,D00,0,1,1
839,40.0,-11.0,47.0,1644596115.25,P05,D00,0,1,1
840,40.0,-11.0,47.0,1644596115.28125,P05,D00,0,1,1
841,39.0,-11.0,47.0,1644596115.3125,P05,D00,0,1,1
842,39.0,-11.0,47.0,1644596115.34375,P05,D00,0,1,1
843,40.0,-11.0,47.0,1644596115.375,P05,D00,0,1,1
844,39.0,-11.0,47.0,1644596115.40625,P05,D00,0,1,1
845,39.0,-11.0,47.0,1644596115.4375,P05,D00,0,1,1
846,39.0,-11.0,47.0,1644596115.46875,P05,D00,0,1,1
847,40.0,-10.0,47.0,1644596115.5,P05,D00,0,1,1
848,39.0,-11.0,46.0,1644596115.53125,P05,D00,0,1,1
849,39.0,-11.0,47.0,1644596115.5625,P05,D00,0,1,1
850,39.0,-11.0,47.0,1644596115.59375,P05,D00,0,1,1
851,39.0,-11.0,47.0,1644596115.625,P05,D00,0,1,1
852,39.0,-11.0,47.0,1644596115.65625,P05,D00,0,1,1
853,39.0,-11.0,47.0,1644596115.6875,P05,D00,0,1,1
854,39.0,-11.0,47.0,1644596115.71875,P05,D00,0,1,1
855,39.0,-11.0,47.0,1644596115.75,P05,D00,0,1,1
856,39.0,-11.0,47.0,1644596115.78125,P05,D00,0,1,1
857,39.0,-11.0,47.0,1644596115.8125,P05,D00,0,1,1
858,39.0,-11.0,47.0,1644596115.84375,P05,D00,0,1,1
859,39.0,-11.0,47.0,1644596115.875,P05,D00,0,1,1
860,39.0,-11.0,47.0,1644596115.90625,P05,D00,0,1,1
861,39.0,-11.0,47.0,1644596115.9375,P05,D00,0,1,1
862,39.0,-11.0,47.0,1644596115.96875,P05,D00,0,1,1
863,39.0,-11.0,47.0,1644596116.0,P05,D00,0,1,1
864,40.0,-11.0,47.0,1644596116.03125,P05,D00,0,1,1
865,39.0,-11.0,47.0,1644596116.0625,P05,D00,0,1,1
866,39.0,-11.0,47.0,1644596116.09375,P05,D00,0,1,1
867,39.0,-11.0,47.0,1644596116.125,P05,D00,0,1,1
868,40.0,-11.0,47.0,1644596116.15625,P05,D00,0,1,1
869,39.0,-11.0,46.0,1644596116.1875,P05,D00,0,1,1
870,39.0,-11.0,47.0,1644596116.21875,P05,D00,0,1,1
871,39.0,-11.0,47.0,1644596116.25,P05,D00,0,1,1
872,39.0,-11.0,47.0,1644596116.28125,P05,D00,0,1,1
873,39.0,-11.0,47.0,1644596116.3125,P05,D00,0,1,1
874,39.0,-11.0,47.0,1644596116.34375,P05,D00,0,1,1
875,39.0,-11.0,47.0,1644596116.375,P05,D00,0,1,1
876,39.0,-11.0,47.0,1644596116.40625,P05,D00,0,1,1
877,39.0,-11.0,47.0,1644596116.4375,P05,D00,0,1,1
878,40.0,-11.0,47.0,1644596116.46875,P05,D00,0,1,1
879,39.0,-11.0,47.0,1644596116.5,P05,D00,0,1,1
880,39.0,-11.0,47.0,1644596116.53125,P05,D00,0,1,1
881,39.0,-11.0,47.0,1644596116.5625,P05,D00,0,1,1
882,39.0,-11.0,47.0,1644596116.59375,P05,D00,0,1,1
883,40.0,-11.0,47.0,1644596116.625,P05,D00,0,1,1
884,39.0,-11.0,47.0,1644596116.65625,P05,D00,0,1,1
885,39.0,-11.0,47.0,1644596116.6875,P05,D00,0,1,1
886,39.0,-11.0,47.0,1644596116.71875,P05,D00,0,1,1
887,39.0,-11.0,47.0,1644596116.75,P05,D00,0,1,1
888,39.0,-11.0,47.0,1644596116.78125,P05,D00,0,1,1
889,39.0,-10.0,47.0,1644596116.8125,P05,D00,0,1,1
890,39.0,-11.0,47.0,1644596116.84375,P05,D00,0,1,1
891,39.0,-11.0,47.0,1644596116.875,P05,D00,0,1,1
892,39.0,-11.0,47.0,1644596116.90625,P05,D00,0,1,1
893,39.0,-11.0,47.0,1644596116.9375,P05,D00,0,1,1
894,39.0,-11.0,47.0,1644596116.96875,P05,D00,0,1,1
895,39.0,-11.0,47.0,1644596117.0,P05,D00,0,1,1
896,39.0,-11.0,47.0,1644596117.03125,P05,D00,0,1,1
897,40.0,-11.0,47.0,1644596117.0625,P05,D00,0,1,1
898,39.0,-11.0,47.0,1644596117.09375,P05,D00,0,1,1
899,39.0,-11.0,47.0,1644596117.125,P05,D00,0,1,1
900,39.0,-11.0,47.0,1644596117.15625,P05,D00,0,1,1
901,40.0,-11.0,46.0,1644596117.1875,P05,D00,0,1,1
902,39.0,-11.0,47.0,1644596117.21875,P05,D00,0,1,1
903,39.0,-11.0,47.0,1644596117.25,P05,D00,0,1,1
904,39.0,-11.0,47.0,1644596117.28125,P05,D00,0,1,1
905,39.0,-11.0,47.0,1644596117.3125,P05,D00,0,1,1
906,39.0,-11.0,47.0,1644596117.34375,P05,D00,0,1,1
907,39.0,-11.0,46.0,1644596117.375,P05,D00,0,1,1
908,39.0,-11.0,47.0,1644596117.40625,P05,D00,0,1,1
909,39.0,-11.0,47.0,1644596117.4375,P05,D00,0,1,1
910,39.0,-11.0,47.0,1644596117.46875,P05,D00,0,1,1
911,39.0,-11.0,47.0,1644596117.5,P05,D00,0,1,1
912,39.0,-11.0,47.0,1644596117.53125,P05,D00,0,1,1
913,39.0,-11.0,47.0,1644596117.5625,P05,D00,0,1,1
914,39.0,-11.0,47.0,1644596117.59375,P05,D00,0,1,1
915,39.0,-11.0,47.0,1644596117.625,P05,D00,0,1,1
916,39.0,-11.0,47.0,1644596117.65625,P05,D00,0,1,1
917,39.0,-11.0,47.0,1644596117.6875,P05,D00,0,1,1
918,39.0,-11.0,47.0,1644596117.71875,P05,D00,0,1,1
919,39.0,-11.0,47.0,1644596117.75,P05,D00,0,1,1
920,39.0,-11.0,47.0,1644596117.78125,P05,D00,0,1,1
921,39.0,-11.0,47.0,1644596117.8125,P05,D00,0,1,1
922,39.0,-11.0,47.0,1644596117.84375,P05,D00,0,1,1
923,39.0,-11.0,47.0,1644596117.875,P05,D00,0,1,1
924,39.0,-11.0,47.0,1644596117.90625,P05,D00,0,1,1
925,39.0,-10.0,47.0,1644596117.9375,P05,D00,0,1,1
926,39.0,-11.0,47.0,1644596117.96875,P05,D00,0,1,1
927,39.0,-11.0,47.0,1644596118.0,P05,D00,0,1,1
928,39.0,-11.0,47.0,1644596118.03125,P05,D00,0,1,1
929,39.0,-11.0,47.0,1644596118.0625,P05,D00,0,1,1
930,39.0,-11.0,47.0,1644596118.09375,P05,D00,0,1,1
931,39.0,-11.0,47.0,1644596118.125,P05,D00,0,1,1
932,39.0,-11.0,47.0,1644596118.15625,P05,D00,0,1,1
933,39.0,-11.0,47.0,1644596118.1875,P05,D00,0,1,1
934,39.0,-11.0,47.0,1644596118.21875,P05,D00,0,1,1
935,39.0,-11.0,47.0,1644596118.25,P05,D00,0,1,1
936,39.0,-11.0,47.0,1644596118.28125,P05,D00,0,1,1
937,39.0,-11.0,47.0,1644596118.3125,P05,D00,0,1,1
938,39.0,-11.0,47.0,1644596118.34375,P05,D00,0,1,1
939,39.0,-11.0,47.0,1644596118.375,P05,D00,0,1,1
940,39.0,-11.0,47.0,1644596118.40625,P05,D00,0,1,1
941,39.0,-11.0,47.0,1644596118.4375,P05,D00,0,1,1
942,39.0,-11.0,47.0,1644596118.46875,P05,D00,0,1,1
943,40.0,-11.0,47.0,1644596118.5,P05,D00,0,1,1
944,40.0,-11.0,47.0,1644596118.53125,P05,D00,0,1,1
945,39.0,-11.0,47.0,1644596118.5625,P05,D00,0,1,1
946,39.0,-11.0,46.0,1644596118.59375,P05,D00,0,1,1
947,39.0,-11.0,47.0,1644596118.625,P05,D00,0,1,1
948,39.0,-11.0,46.0,1644596118.65625,P05,D00,0,1,1
949,39.0,-11.0,47.0,1644596118.6875,P05,D00,0,1,1
950,40.0,-11.0,47.0,1644596118.71875,P05,D00,0,1,1
951,39.0,-11.0,47.0,1644596118.75,P05,D00,0,1,1
952,39.0,-11.0,47.0,1644596118.78125,P05,D00,0,1,1
953,39.0,-11.0,47.0,1644596118.8125,P05,D00,0,1,1
954,39.0,-11.0,47.0,1644596118.84375,P05,D00,0,1,1
955,39.0,-11.0,47.0,1644596118.875,P05,D00,0,1,1
956,39.0,-11.0,47.0,1644596118.90625,P05,D00,0,1,1
957,39.0,-11.0,47.0,1644596118.9375,P05,D00,0,1,1
958,39.0,-11.0,47.0,1644596118.96875,P05,D00,0,1,1
959,39.0,-11.0,47.0,1644596119.0,P05,D00,0,1,1
960,39.0,-11.0,47.0,1644596119.03125,P05,D00,0,1,1
961,39.0,-11.0,47.0,1644596119.0625,P05,D00,0,1,1
962,39.0,-11.0,47.0,1644596119.09375,P05,D00,0,1,1
963,40.0,-11.0,47.0,1644596119.125,P05,D00,0,1,1
964,39.0,-11.0,47.0,1644596119.15625,P05,D00,0,1,1
965,39.0,-11.0,47.0,1644596119.1875,P05,D00,0,1,1
966,39.0,-11.0,47.0,1644596119.21875,P05,D00,0,1,1
967,39.0,-11.0,47.0,1644596119.25,P05,D00,0,1,1
968,39.0,-11.0,47.0,1644596119.28125,P05,D00,0,1,1
969,39.0,-11.0,47.0,1644596119.3125,P05,D00,0,1,1
970,39.0,-11.0,47.0,1644596119.34375,P05,D00,0,1,1
971,39.0,-11.0,47.0,1644596119.375,P05,D00,0,1,1
972,39.0,-11.0,47.0,1644596119.40625,P05,D00,0,1,1
973,39.0,-11.0,47.0,1644596119.4375,P05,D00,0,1,1
974,39.0,-11.0,47.0,1644596119.46875,P05,D00,0,1,1
975,39.0,-11.0,47.0,1644596119.5,P05,D00,0,1,1
976,39.0,-11.0,47.0,1644596119.53125,P05,D00,0,1,1
977,39.0,-11.0,47.0,1644596119.5625,P05,D00,0,1,1
978,39.0,-11.0,47.0,1644596119.59375,P05,D00,0,1,1
979,39.0,-11.0,47.0,1644596119.625,P05,D00,0,1,1
980,39.0,-11.0,47.0,1644596119.65625,P05,D00,0,1,1
981,39.0,-11.0,47.0,1644596119.6875,P05,D00,0,1,1
982,39.0,-11.0,47.0,1644596119.71875,P05,D00,0,1,1
983,40.0,-11.0,47.0,1644596119.75,P05,D00,0,1,1
984,40.0,-11.0,47.0,1644596119.78125,P05,D00,0,1,1
985,38.0,-11.0,47.0,1644596119.8125,P05,D00,0,1,1
986,39.0,-11.0,47.0,1644596119.84375,P05,D00,0,1,1
987,39.0,-11.0,47.0,1644596119.875,P05,D00,0,1,1
988,39.0,-11.0,47.0,1644596119.90625,P05,D00,0,1,1
989,39.0,-11.0,47.0,1644596119.9375,P05,D00,0,1,1
990,39.0,-11.0,47.0,1644596119.96875,P05,D00,0,1,1
991,39.0,-11.0,47.0,1644596120.0,P05,D00,0,1,1
992,39.0,-11.0,47.0,1644596120.03125,P05,D00,0,1,1
993,39.0,-11.0,47.0,1644596120.0625,P05,D00,0,1,1
994,39.0,-11.0,47.0,1644596120.09375,P05,D00,0,1,1
995,39.0,-11.0,47.0,1644596120.125,P05,D00,0,1,1
996,40.0,-11.0,47.0,1644596120.15625,P05,D00,0,1,1
997,39.0,-11.0,47.0,1644596120.1875,P05,D00,0,1,1
998,39.0,-11.0,47.0,1644596120.21875,P05,D00,0,1,1
999,39.0,-11.0,47.0,1644596120.25,P05,D00,0,1,1
1000,39.0,-10.0,47.0,1644596120.28125,P05,D00,0,1,1
1001,38.0,-11.0,47.0,1644596120.3125,P05,D00,0,1,1
1002,39.0,-11.0,47.0,1644596120.34375,P05,D00,0,1,1
1003,39.0,-11.0,47.0,1644596120.375,P05,D00,0,1,1
1004,39.0,-11.0,47.0,1644596120.40625,P05,D00,0,1,1
1005,39.0,-11.0,47.0,1644596120.4375,P05,D00,0,1,1
1006,39.0,-11.0,47.0,1644596120.46875,P05,D00,0,1,1
1007,39.0,-11.0,47.0,1644596120.5,P05,D00,0,1,1
1008,39.0,-11.0,47.0,1644596120.53125,P05,D00,0,1,1
1009,39.0,-11.0,47.0,1644596120.5625,P05,D00,0,1,1
1010,39.0,-11.0,47.0,1644596120.59375,P05,D00,0,1,1
1011,39.0,-11.0,47.0,1644596120.625,P05,D00,0,1,1
1012,38.0,-11.0,47.0,1644596120.65625,P05,D00,0,1,1
1013,39.0,-11.0,47.0,1644596120.6875,P05,D00,0,1,1
1014,39.0,-10.0,47.0,1644596120.71875,P05,D00,0,1,1
1015,39.0,-11.0,47.0,1644596120.75,P05,D00,0,1,1
1016,39.0,-11.0,47.0,1644596120.78125,P05,D00,0,1,1
1017,39.0,-11.0,47.0,1644596120.8125,P05,D00,0,1,1
1018,39.0,-10.0,47.0,1644596120.84375,P05,D00,0,1,1
1019,39.0,-11.0,47.0,1644596120.875,P05,D00,0,1,1
1020,39.0,-11.0,47.0,1644596120.90625,P05,D00,0,1,1
1021,40.0,-11.0,47.0,1644596120.9375,P05,D00,0,1,1
1022,39.0,-11.0,47.0,1644596120.96875,P05,D00,0,1,1
1023,38.0,-11.0,47.0,1644596121.0,P05,D00,0,1,1
1024,38.0,-11.0,47.0,1644596121.03125,P05,D00,0,1,1
1025,39.0,-11.0,47.0,1644596121.0625,P05,D00,0,1,1
1026,39.0,-11.0,47.0,1644596121.09375,P05,D00,0,1,1
1027,39.0,-11.0,47.0,1644596121.125,P05,D00,0,1,1
1028,39.0,-11.0,47.0,1644596121.15625,P05,D00,0,1,1
1029,39.0,-11.0,47.0,1644596121.1875,P05,D00,0,1,1
1030,39.0,-11.0,47.0,1644596121.21875,P05,D00,0,1,1
1031,39.0,-11.0,47.0,1644596121.25,P05,D00,0,1,1
1032,39.0,-11.0,47.0,1644596121.28125,P05,D00,0,1,1
1033,39.0,-11.0,47.0,1644596121.3125,P05,D00,0,1,1
1034,39.0,-11.0,47.0,1644596121.34375,P05,D00,0,1,1
1035,39.0,-11.0,47.0,1644596121.375,P05,D00,0,1,1
1036,39.0,-11.0,47.0,1644596121.40625,P05,D00,0,1,1
1037,39.0,-11.0,47.0,1644596121.4375,P05,D00,0,1,1
1038,39.0,-11.0,47.0,1644596121.46875,P05,D00,0,1,1
1039,39.0,-11.0,47.0,1644596121.5,P05,D00,0,1,1
1040,39.0,-11.0,47.0,1644596121.53125,P05,D00,0,1,1
1041,39.0,-11.0,47.0,1644596121.5625,P05,D00,0,1,1
1042,39.0,-11.0,47.0,1644596121.59375,P05,D00,0,1,1
1043,39.0,-11.0,47.0,1644596121.625,P05,D00,0,1,1
1044,39.0,-11.0,47.0,1644596121.65625,P05,D00,0,1,1
1045,39.0,-11.0,47.0,1644596121.6875,P05,D00,0,1,1
1046,39.0,-11.0,47.0,1644596121.71875,P05,D00,0,1,1
1047,39.0,-11.0,47.0,1644596121.75,P05,D00,0,1,1
1048,39.0,-11.0,47.0,1644596121.78125,P05,D00,0,1,1
1049,39.0,-11.0,47.0,1644596121.8125,P05,D00,0,1,1
1050,39.0,-11.0,47.0,1644596121.84375,P05,D00,0,1,1
1051,39.0,-11.0,47.0,1644596121.875,P05,D00,0,1,1
1052,39.0,-11.0,47.0,1644596121.90625,P05,D00,0,1,1
1053,39.0,-11.0,47.0,1644596121.9375,P05,D00,0,1,1
1054,39.0,-11.0,47.0,1644596121.96875,P05,D00,0,1,1
1055,39.0,-11.0,47.0,1644596122.0,P05,D00,0,1,1
1056,39.0,-11.0,47.0,1644596122.03125,P05,D00,0,1,1
1057,39.0,-11.0,47.0,1644596122.0625,P05,D00,0,1,1
1058,39.0,-11.0,47.0,1644596122.09375,P05,D00,0,1,1
1059,38.0,-11.0,47.0,1644596122.125,P05,D00,0,1,1
1060,39.0,-11.0,47.0,1644596122.15625,P05,D00,0,1,1
1061,40.0,-11.0,47.0,1644596122.1875,P05,D00,0,1,1
1062,40.0,-11.0,47.0,1644596122.21875,P05,D00,0,1,1
1063,39.0,-11.0,47.0,1644596122.25,P05,D00,0,1,1
1064,38.0,-11.0,47.0,1644596122.28125,P05,D00,0,1,1
1065,39.0,-11.0,47.0,1644596122.3125,P05,D00,0,1,1
1066,39.0,-11.0,47.0,1644596122.34375,P05,D00,0,1,1
1067,38.0,-11.0,47.0,1644596122.375,P05,D00,0,1,1
1068,38.0,-11.0,47.0,1644596122.40625,P05,D00,0,1,1
1069,39.0,-11.0,47.0,1644596122.4375,P05,D00,0,1,1
1070,39.0,-11.0,47.0,1644596122.46875,P05,D00,0,1,1
1071,39.0,-11.0,47.0,1644596122.5,P05,D00,0,1,1
1072,38.0,-11.0,47.0,1644596122.53125,P05,D00,0,1,1
1073,39.0,-11.0,47.0,1644596122.5625,P05,D00,0,1,1
1074,39.0,-11.0,47.0,1644596122.59375,P05,D00,0,1,1
1075,39.0,-11.0,47.0,1644596122.625,P05,D00,0,1,1
1076,39.0,-11.0,47.0,1644596122.65625,P05,D00,0,1,1
1077,39.0,-11.0,47.0,1644596122.6875,P05,D00,0,1,1
1078,38.0,-11.0,47.0,1644596122.71875,P05,D00,0,1,1
1079,38.0,-11.0,47.0,1644596122.75,P05,D00,0,1,1
1080,39.0,-11.0,47.0,1644596122.78125,P05,D00,0,1,1
1081,39.0,-11.0,47.0,1644596122.8125,P05,D00,0,1,1
1082,39.0,-11.0,47.0,1644596122.84375,P05,D00,0,1,1
1083,39.0,-11.0,47.0,1644596122.875,P05,D00,0,1,1
1084,38.0,-11.0,47.0,1644596122.90625,P05,D00,0,1,1
1085,39.0,-11.0,47.0,1644596122.9375,P05,D00,0,1,1
1086,39.0,-11.0,47.0,1644596122.96875,P05,D00,0,1,1
1087,38.0,-11.0,47.0,1644596123.0,P05,D00,0,1,1
1088,39.0,-11.0,47.0,1644596123.03125,P05,D00,0,1,1
1089,39.0,-11.0,47.0,1644596123.0625,P05,D00,0,1,1
1090,39.0,-11.0,47.0,1644596123.09375,P05,D00,0,1,1
1091,39.0,-11.0,47.0,1644596123.125,P05,D00,0,1,1
1092,39.0,-11.0,47.0,1644596123.15625,P05,D00,0,1,1
1093,39.0,-11.0,47.0,1644596123.1875,P05,D00,0,1,1
1094,39.0,-11.0,47.0,1644596123.21875,P05,D00,0,1,1
1095,39.0,-11.0,47.0,1644596123.25,P05,D00,0,1,1
1096,39.0,-11.0,47.0,1644596123.28125,P05,D00,0,1,1
1097,39.0,-11.0,47.0,1644596123.3125,P05,D00,0,1,1
1098,38.0,-11.0,47.0,1644596123.34375,P05,D00,0,1,1
1099,39.0,-11.0,47.0,1644596123.375,P05,D00,0,1,1
1100,39.0,-11.0,47.0,1644596123.40625,P05,D00,0,1,1
1101,39.0,-11.0,47.0,1644596123.4375,P05,D00,0,1,1
1102,39.0,-11.0,47.0,1644596123.46875,P05,D00,0,1,1
1103,39.0,-11.0,47.0,1644596123.5,P05,D00,0,1,1
1104,39.0,-11.0,47.0,1644596123.53125,P05,D00,0,1,1
1105,39.0,-11.0,47.0,1644596123.5625,P05,D00,0,1,1
1106,38.0,-11.0,47.0,1644596123.59375,P05,D00,0,1,1
1107,39.0,-11.0,47.0,1644596123.625,P05,D00,0,1,1
1108,39.0,-11.0,47.0,1644596123.65625,P05,D00,0,1,1
1109,39.0,-11.0,47.0,1644596123.6875,P05,D00,0,1,1
1110,39.0,-11.0,47.0,1644596123.71875,P05,D00,0,1,1
1111,39.0,-11.0,47.0,1644596123.75,P05,D00,0,1,1
1112,39.0,-11.0,47.0,1644596123.78125,P05,D00,0,1,1
1113,39.0,-11.0,47.0,1644596123.8125,P05,D00,0,1,1
1114,39.0,-11.0,47.0,1644596123.84375,P05,D00,0,1,1
1115,39.0,-11.0,47.0,1644596123.875,P05,D00,0,1,1
1116,39.0,-11.0,47.0,1644596123.90625,P05,D00,0,1,1
1117,39.0,-11.0,47.0,1644596123.9375,P05,D00,0,1,1
1118,39.0,-11.0,47.0,1644596123.96875,P05,D00,0,1,1
1119,39.0,-12.0,47.0,1644596124.0,P05,D00,0,1,1
1120,38.0,-11.0,47.0,1644596124.03125,P05,D00,0,1,1
1121,39.0,-11.0,47.0,1644596124.0625,P05,D00,0,1,1
1122,39.0,-11.0,47.0,1644596124.09375,P05,D00,0,1,1
1123,39.0,-11.0,47.0,1644596124.125,P05,D00,0,1,1
1124,39.0,-11.0,47.0,1644596124.15625,P05,D00,0,1,1
1125,39.0,-11.0,47.0,1644596124.1875,P05,D00,0,1,1
1126,39.0,-11.0,47.0,1644596124.21875,P05,D00,0,1,1
1127,38.0,-11.0,47.0,1644596124.25,P05,D00,0,1,1
1128,39.0,-11.0,47.0,1644596124.28125,P05,D00,0,1,1
1129,39.0,-11.0,47.0,1644596124.3125,P05,D00,0,1,1
1130,39.0,-11.0,47.0,1644596124.34375,P05,D00,0,1,1
1131,39.0,-11.0,47.0,1644596124.375,P05,D00,0,1,1
1132,39.0,-11.0,47.0,1644596124.40625,P05,D00,0,1,1
1133,39.0,-11.0,47.0,1644596124.4375,P05,D00,0,1,1
1134,39.0,-11.0,47.0,1644596124.46875,P05,D00,0,1,1
1135,39.0,-11.0,47.0,1644596124.5,P05,D00,0,1,1
1136,39.0,-11.0,47.0,1644596124.53125,P05,D00,0,1,1
1137,39.0,-11.0,47.0,1644596124.5625,P05,D00,0,1,1
1138,39.0,-11.0,47.0,1644596124.59375,P05,D00,0,1,1
1139,39.0,-11.0,47.0,1644596124.625,P05,D00,0,1,1
1140,39.0,-11.0,47.0,1644596124.65625,P05,D00,0,1,1
1141,39.0,-11.0,47.0,1644596124.6875,P05,D00,0,1,1
1142,39.0,-11.0,47.0,1644596124.71875,P05,D00,0,1,1
1143,39.0,-11.0,47.0,1644596124.75,P05,D00,0,1,1
1144,39.0,-11.0,47.0,1644596124.78125,P05,D00,0,1,1
1145,39.0,-11.0,47.0,1644596124.8125,P05,D00,0,1,1
1146,39.0,-11.0,47.0,1644596124.84375,P05,D00,0,1,1
1147,39.0,-11.0,47.0,1644596124.875,P05,D00,0,1,1
1148,39.0,-11.0,47.0,1644596124.90625,P05,D00,0,1,1
1149,39.0,-11.0,47.0,1644596124.9375,P05,D00,0,1,1
1150,39.0,-11.0,47.0,1644596124.96875,P05,D00,0,1,1
1151,39.0,-11.0,47.0,1644596125.0,P05,D00,0,1,1
1152,39.0,-11.0,47.0,1644596125.03125,P05,D00,0,1,1
1153,39.0,-11.0,47.0,1644596125.0625,P05,D00,0,1,1
1154,39.0,-11.0,47.0,1644596125.09375,P05,D00,0,1,1
1155,39.0,-11.0,47.0,1644596125.125,P05,D00,0,1,1
1156,39.0,-11.0,47.0,1644596125.15625,P05,D00,0,1,1
1157,39.0,-11.0,47.0,1644596125.1875,P05,D00,0,1,1
1158,38.0,-11.0,47.0,1644596125.21875,P05,D00,0,1,1
1159,39.0,-11.0,47.0,1644596125.25,P05,D00,0,1,1
1160,39.0,-11.0,47.0,1644596125.28125,P05,D00,0,1,1
1161,39.0,-11.0,47.0,1644596125.3125,P05,D00,0,1,1
1162,39.0,-11.0,47.0,1644596125.34375,P05,D00,0,1,1
1163,39.0,-11.0,47.0,1644596125.375,P05,D00,0,1,1
1164,38.0,-11.0,47.0,1644596125.40625,P05,D00,0,1,1
1165,39.0,-11.0,47.0,1644596125.4375,P05,D00,0,1,1
1166,39.0,-11.0,47.0,1644596125.46875,P05,D00,0,1,1
1167,39.0,-11.0,47.0,1644596125.5,P05,D00,0,1,1
1168,39.0,-11.0,47.0,1644596125.53125,P05,D00,0,1,1
1169,39.0,-11.0,47.0,1644596125.5625,P05,D00,0,1,1
1170,39.0,-11.0,47.0,1644596125.59375,P05,D00,0,1,1
1171,39.0,-11.0,47.0,1644596125.625,P05,D00,0,1,1
1172,39.0,-11.0,47.0,1644596125.65625,P05,D00,0,1,1
1173,39.0,-11.0,47.0,1644596125.6875,P05,D00,0,1,1
1174,39.0,-11.0,47.0,1644596125.71875,P05,D00,0,1,1
1175,39.0,-11.0,47.0,1644596125.75,P05,D00,0,1,1
1176,39.0,-11.0,47.0,1644596125.78125,P05,D00,0,1,1
1177,39.0,-11.0,47.0,1644596125.8125,P05,D00,0,1,1
1178,39.0,-11.0,47.0,1644596125.84375,P05,D00,0,1,1
1179,39.0,-11.0,47.0,1644596125.875,P05,D00,0,1,1
1180,39.0,-11.0,47.0,1644596125.90625,P05,D00,0,1,1
1181,39.0,-11.0,47.0,1644596125.9375,P05,D00,0,1,1
1182,39.0,-11.0,47.0,1644596125.96875,P05,D00,0,1,1
1183,38.0,-11.0,47.0,1644596126.0,P05,D00,0,1,1
1184,39.0,-11.0,47.0,1644596126.03125,P05,D00,0,1,1
1185,39.0,-11.0,47.0,1644596126.0625,P05,D00,0,1,1
1186,39.0,-11.0,47.0,1644596126.09375,P05,D00,0,1,1
1187,39.0,-11.0,47.0,1644596126.125,P05,D00,0,1,1
1188,39.0,-11.0,47.0,1644596126.15625,P05,D00,0,1,1
1189,39.0,-11.0,47.0,1644596126.1875,P05,D00,0,1,1
1190,39.0,-11.0,47.0,1644596126.21875,P05,D00,0,1,1
1191,39.0,-11.0,47.0,1644596126.25,P05,D00,0,1,1
1192,39.0,-11.0,47.0,1644596126.28125,P05,D00,0,1,1
1193,39.0,-11.0,47.0,1644596126.3125,P05,D00,0,1,1
1194,39.0,-11.0,47.0,1644596126.34375,P05,D00,0,1,1
1195,38.0,-11.0,47.0,1644596126.375,P05,D00,0,1,1
1196,39.0,-11.0,47.0,1644596126.40625,P05,D00,0,1,1
1197,39.0,-11.0,47.0,1644596126.4375,P05,D00,0,1,1
1198,39.0,-11.0,47.0,1644596126.46875,P05,D00,0,1,1
1199,39.0,-11.0,47.0,1644596126.5,P05,D00,0,1,1
1200,39.0,-11.0,47.0,1644596126.53125,P05,D00,0,1,1
1201,39.0,-11.0,47.0,1644596126.5625,P05,D00,0,1,1
1202,39.0,-11.0,47.0,1644596126.59375,P05,D00,0,1,1
1203,39.0,-11.0,47.0,1644596126.625,P05,D00,0,1,1
1204,39.0,-11.0,47.0,1644596126.65625,P05,D00,0,1,1
1205,38.0,-11.0,47.0,1644596126.6875,P05,D00,0,1,1
1206,39.0,-11.0,47.0,1644596126.71875,P05,D00,0,1,1
1207,39.0,-11.0,47.0,1644596126.75,P05,D00,0,1,1
1208,38.0,-11.0,47.0,1644596126.78125,P05,D00,0,1,1
1209,39.0,-11.0,47.0,1644596126.8125,P05,D00,0,1,1
1210,39.0,-11.0,47.0,1644596126.84375,P05,D00,0,1,1
1211,39.0,-11.0,47.0,1644596126.875,P05,D00,0,1,1
1212,39.0,-11.0,47.0,1644596126.90625,P05,D00,0,1,1
1213,39.0,-11.0,47.0,1644596126.9375,P05,D00,0,1,1
1214,38.0,-11.0,47.0,1644596126.96875,P05,D00,0,1,1
1215,39.0,-11.0,47.0,1644596127.0,P05,D00,0,1,1
1216,38.0,-11.0,47.0,1644596127.03125,P05,D00,0,1,1
1217,38.0,-11.0,47.0,1644596127.0625,P05,D00,0,1,1
1218,39.0,-11.0,47.0,1644596127.09375,P05,D00,0,1,1
1219,39.0,-11.0,47.0,1644596127.125,P05,D00,0,1,1
1220,39.0,-11.0,47.0,1644596127.15625,P05,D00,0,1,1
1221,39.0,-11.0,47.0,1644596127.1875,P05,D00,0,1,1
1222,39.0,-11.0,47.0,1644596127.21875,P05,D00,0,1,1
1223,39.0,-11.0,47.0,1644596127.25,P05,D00,0,1,1
1224,39.0,-11.0,47.0,1644596127.28125,P05,D00,0,1,1
1225,39.0,-11.0,47.0,1644596127.3125,P05,D00,0,1,1
1226,39.0,-11.0,47.0,1644596127.34375,P05,D00,0,1,1
1227,39.0,-11.0,47.0,1644596127.375,P05,D00,0,1,1
1228,39.0,-11.0,47.0,1644596127.40625,P05,D00,0,1,1
1229,38.0,-11.0,47.0,1644596127.4375,P05,D00,0,1,1
1230,39.0,-11.0,47.0,1644596127.46875,P05,D00,0,1,1
1231,39.0,-11.0,47.0,1644596127.5,P05,D00,0,1,1
1232,39.0,-11.0,47.0,1644596127.53125,P05,D00,0,1,1
1233,39.0,-11.0,47.0,1644596127.5625,P05,D00,0,1,1
1234,39.0,-11.0,47.0,1644596127.59375,P05,D00,0,1,1
1235,39.0,-11.0,47.0,1644596127.625,P05,D00,0,1,1
1236,39.0,-11.0,47.0,1644596127.65625,P05,D00,0,1,1
1237,39.0,-11.0,47.0,1644596127.6875,P05,D00,0,1,1
1238,39.0,-11.0,47.0,1644596127.71875,P05,D00,0,1,1
1239,39.0,-11.0,47.0,1644596127.75,P05,D00,0,1,1
1240,39.0,-11.0,47.0,1644596127.78125,P05,D00,0,1,1
1241,39.0,-11.0,47.0,1644596127.8125,P05,D00,0,1,1
1242,39.0,-11.0,47.0,1644596127.84375,P05,D00,0,1,1
1243,39.0,-11.0,47.0,1644596127.875,P05,D00,0,1,1
1244,39.0,-11.0,47.0,1644596127.90625,P05,D00,0,1,1
1245,39.0,-11.0,47.0,1644596127.9375,P05,D00,0,1,1
1246,39.0,-11.0,47.0,1644596127.96875,P05,D00,0,1,1
1247,39.0,-11.0,47.0,1644596128.0,P05,D00,0,1,1
1248,39.0,-11.0,47.0,1644596128.03125,P05,D00,0,1,1
1249,39.0,-11.0,47.0,1644596128.0625,P05,D00,0,1,1
1250,39.0,-11.0,47.0,1644596128.09375,P05,D00,0,1,1
1251,38.0,-11.0,47.0,1644596128.125,P05,D00,0,1,1
1252,39.0,-11.0,47.0,1644596128.15625,P05,D00,0,1,1
1253,39.0,-11.0,47.0,1644596128.1875,P05,D00,0,1,1
1254,39.0,-11.0,47.0,1644596128.21875,P05,D00,0,1,1
1255,39.0,-11.0,47.0,1644596128.25,P05,D00,0,1,1
1256,39.0,-11.0,47.0,1644596128.28125,P05,D00,0,1,1
1257,39.0,-11.0,47.0,1644596128.3125,P05,D00,0,1,1
1258,39.0,-11.0,47.0,1644596128.34375,P05,D00,0,1,1
1259,38.0,-11.0,47.0,1644596128.375,P05,D00,0,1,1
1260,39.0,-11.0,47.0,1644596128.40625,P05,D00,0,1,1
1261,39.0,-11.0,47.0,1644596128.4375,P05,D00,0,1,1
1262,39.0,-11.0,47.0,1644596128.46875,P05,D00,0,1,1
1263,39.0,-11.0,47.0,1644596128.5,P05,D00,0,1,1
1264,38.0,-11.0,47.0,1644596128.53125,P05,D00,0,1,1
1265,38.0,-11.0,47.0,1644596128.5625,P05,D00,0,1,1
1266,39.0,-11.0,47.0,1644596128.59375,P05,D00,0,1,1
1267,39.0,-11.0,47.0,1644596128.625,P05,D00,0,1,1
1268,39.0,-11.0,47.0,1644596128.65625,P05,D00,0,1,1
1269,39.0,-11.0,47.0,1644596128.6875,P05,D00,0,1,1
1270,38.0,-11.0,47.0,1644596128.71875,P05,D00,0,1,1
1271,39.0,-11.0,47.0,1644596128.75,P05,D00,0,1,1
1272,39.0,-11.0,47.0,1644596128.78125,P05,D00,0,1,1
1273,39.0,-11.0,47.0,1644596128.8125,P05,D00,0,1,1
1274,39.0,-11.0,47.0,1644596128.84375,P05,D00,0,1,1
1275,39.0,-11.0,47.0,1644596128.875,P05,D00,0,1,1
1276,39.0,-11.0,47.0,1644596128.90625,P05,D00,0,1,1
1277,38.0,-11.0,47.0,1644596128.9375,P05,D00,0,1,1
1278,39.0,-11.0,47.0,1644596128.96875,P05,D00,0,1,1
1279,39.0,-11.0,47.0,1644596129.0,P05,D00,0,1,1
1280,39.0,-11.0,47.0,1644596129.03125,P05,D00,0,1,1
1281,39.0,-11.0,47.0,1644596129.0625,P05,D00,0,1,1
1282,39.0,-11.0,47.0,1644596129.09375,P05,D00,0,1,1
1283,39.0,-11.0,47.0,1644596129.125,P05,D00,0,1,1
1284,39.0,-11.0,47.0,1644596129.15625,P05,D00,0,1,1
1285,39.0,-11.0,47.0,1644596129.1875,P05,D00,0,1,1
1286,39.0,-11.0,47.0,1644596129.21875,P05,D00,0,1,1
1287,39.0,-11.0,47.0,1644596129.25,P05,D00,0,1,1
1288,39.0,-11.0,47.0,1644596129.28125,P05,D00,0,1,1
1289,39.0,-11.0,47.0,1644596129.3125,P05,D00,0,1,1
1290,39.0,-11.0,47.0,1644596129.34375,P05,D00,0,1,1
1291,39.0,-11.0,47.0,1644596129.375,P05,D00,0,1,1
1292,39.0,-11.0,47.0,1644596129.40625,P05,D00,0,1,1
1293,39.0,-11.0,47.0,1644596129.4375,P05,D00,0,1,1
1294,39.0,-11.0,47.0,1644596129.46875,P05,D00,0,1,1
1295,39.0,-11.0,47.0,1644596129.5,P05,D00,0,1,1
1296,38.0,-11.0,47.0,1644596129.53125,P05,D00,0,1,1
1297,39.0,-11.0,47.0,1644596129.5625,P05,D00,0,1,1
1298,39.0,-11.0,47.0,1644596129.59375,P05,D00,0,1,1
1299,39.0,-11.0,47.0,1644596129.625,P05,D00,0,1,1
1300,39.0,-11.0,47.0,1644596129.65625,P05,D00,0,1,1
1301,39.0,-11.0,47.0,1644596129.6875,P05,D00,0,1,1
1302,39.0,-11.0,47.0,1644596129.71875,P05,D00,0,1,1
1303,39.0,-11.0,47.0,1644596129.75,P05,D00,0,1,1
1304,39.0,-11.0,47.0,1644596129.78125,P05,D00,0,1,1
1305,39.0,-11.0,47.0,1644596129.8125,P05,D00,0,1,1
1306,38.0,-11.0,47.0,1644596129.84375,P05,D00,0,1,1
1307,39.0,-11.0,47.0,1644596129.875,P05,D00,0,1,1
1308,39.0,-11.0,47.0,1644596129.90625,P05,D00,0,1,1
1309,39.0,-11.0,47.0,1644596129.9375,P05,D00,0,1,1
1310,39.0,-11.0,47.0,1644596129.96875,P05,D00,0,1,1
1311,39.0,-11.0,47.0,1644596130.0,P05,D00,0,1,1
1312,39.0,-11.0,47.0,1644596130.03125,P05,D00,0,1,1
1313,39.0,-11.0,47.0,1644596130.0625,P05,D00,0,1,1
1314,39.0,-11.0,47.0,1644596130.09375,P05,D00,0,1,1
1315,39.0,-11.0,47.0,1644596130.125,P05,D00,0,1,1
1316,39.0,-11.0,47.0,1644596130.15625,P05,D00,0,1,1
1317,39.0,-11.0,47.0,1644596130.1875,P05,D00,0,1,1
1318,39.0,-11.0,47.0,1644596130.21875,P05,D00,0,1,1
1319,39.0,-11.0,47.0,1644596130.25,P05,D00,0,1,1
1320,39.0,-11.0,47.0,1644596130.28125,P05,D00,0,1,1
1321,39.0,-11.0,47.0,1644596130.3125,P05,D00,0,1,1
1322,39.0,-11.0,47.0,1644596130.34375,P05,D00,0,1,1
1323,40.0,-11.0,47.0,1644596130.375,P05,D00,0,1,1
1324,39.0,-11.0,47.0,1644596130.40625,P05,D00,0,1,1
1325,39.0,-11.0,46.0,1644596130.4375,P05,D00,0,1,1
1326,39.0,-11.0,46.0,1644596130.46875,P05,D00,0,1,1
1327,39.0,-11.0,47.0,1644596130.5,P05,D00,0,1,1
1328,39.0,-11.0,47.0,1644596130.53125,P05,D00,0,1,1
1329,40.0,-11.0,47.0,1644596130.5625,P05,D00,0,1,1
1330,39.0,-11.0,47.0,1644596130.59375,P05,D00,0,1,1
1331,39.0,-11.0,47.0,1644596130.625,P05,D00,0,1,1
1332,39.0,-11.0,47.0,1644596130.65625,P05,D00,0,1,1
1333,39.0,-11.0,47.0,1644596130.6875,P05,D00,0,1,1
1334,39.0,-11.0,47.0,1644596130.71875,P05,D00,0,1,1
1335,38.0,-11.0,47.0,1644596130.75,P05,D00,0,1,1
1336,39.0,-11.0,47.0,1644596130.78125,P05,D00,0,1,1
1337,39.0,-11.0,47.0,1644596130.8125,P05,D00,0,1,1
1338,39.0,-11.0,47.0,1644596130.84375,P05,D00,0,1,1
1339,39.0,-11.0,47.0,1644596130.875,P05,D00,0,1,1
1340,39.0,-11.0,47.0,1644596130.90625,P05,D00,0,1,1
1341,39.0,-11.0,47.0,1644596130.9375,P05,D00,0,1,1
1342,39.0,-11.0,47.0,1644596130.96875,P05,D00,0,1,1
1343,39.0,-11.0,47.0,1644596131.0,P05,D00,0,1,1
1344,39.0,-11.0,47.0,1644596131.03125,P05,D00,0,1,1
1345,39.0,-11.0,47.0,1644596131.0625,P05,D00,0,1,1
1346,39.0,-11.0,47.0,1644596131.09375,P05,D00,0,1,1
1347,39.0,-11.0,47.0,1644596131.125,P05,D00,0,1,1
1348,39.0,-11.0,47.0,1644596131.15625,P05,D00,0,1,1
1349,39.0,-11.0,47.0,1644596131.1875,P05,D00,0,1,1
1350,39.0,-11.0,47.0,1644596131.21875,P05,D00,0,1,1
1351,39.0,-11.0,47.0,1644596131.25,P05,D00,0,1,1
1352,39.0,-11.0,47.0,1644596131.28125,P05,D00,0,1,1
1353,39.0,-11.0,47.0,1644596131.3125,P05,D00,0,1,1
1354,39.0,-11.0,47.0,1644596131.34375,P05,D00,0,1,1
1355,39.0,-11.0,47.0,1644596131.375,P05,D00,0,1,1
1356,39.0,-11.0,47.0,1644596131.40625,P05,D00,0,1,1
1357,39.0,-11.0,47.0,1644596131.4375,P05,D00,0,1,1
1358,39.0,-11.0,47.0,1644596131.46875,P05,D00,0,1,1
1359,39.0,-11.0,47.0,1644596131.5,P05,D00,0,1,1
1360,39.0,-11.0,47.0,1644596131.53125,P05,D00,0,1,1
1361,39.0,-11.0,47.0,1644596131.5625,P05,D00,0,1,1
1362,39.0,-11.0,47.0,1644596131.59375,P05,D00,0,1,1
1363,39.0,-11.0,47.0,1644596131.625,P05,D00,0,1,1
1364,39.0,-11.0,47.0,1644596131.65625,P05,D00,0,1,1
1365,39.0,-11.0,47.0,1644596131.6875,P05,D00,0,1,1
1366,39.0,-11.0,47.0,1644596131.71875,P05,D00,0,1,1
1367,39.0,-11.0,47.0,1644596131.75,P05,D00,0,1,1
1368,39.0,-11.0,47.0,1644596131.78125,P05,D00,0,1,1
1369,39.0,-11.0,47.0,1644596131.8125,P05,D00,0,1,1
1370,39.0,-11.0,47.0,1644596131.84375,P05,D00,0,1,1
1371,39.0,-11.0,47.0,1644596131.875,P05,D00,0,1,1
1372,39.0,-11.0,47.0,1644596131.90625,P05,D00,0,1,1
1373,39.0,-11.0,47.0,1644596131.9375,P05,D00,0,1,1
1374,39.0,-11.0,47.0,1644596131.96875,P05,D00,0,1,1
1375,39.0,-11.0,47.0,1644596132.0,P05,D00,0,1,1
1376,39.0,-11.0,47.0,1644596132.03125,P05,D00,0,1,1
1377,39.0,-11.0,47.0,1644596132.0625,P05,D00,0,1,1
1378,39.0,-11.0,47.0,1644596132.09375,P05,D00,0,1,1
1379,39.0,-11.0,47.0,1644596132.125,P05,D00,0,1,1
1380,39.0,-11.0,47.0,1644596132.15625,P05,D00,0,1,1
1381,39.0,-11.0,47.0,1644596132.1875,P05,D00,0,1,1
1382,39.0,-11.0,47.0,1644596132.21875,P05,D00,0,1,1
1383,39.0,-11.0,47.0,1644596132.25,P05,D00,0,1,1
1384,39.0,-11.0,47.0,1644596132.28125,P05,D00,0,1,1
1385,39.0,-11.0,47.0,1644596132.3125,P05,D00,0,1,1
1386,39.0,-11.0,47.0,1644596132.34375,P05,D00,0,1,1
1387,39.0,-11.0,47.0,1644596132.375,P05,D00,0,1,1
1388,39.0,-11.0,47.0,1644596132.40625,P05,D00,0,1,1
1389,39.0,-11.0,47.0,1644596132.4375,P05,D00,0,1,1
1390,39.0,-11.0,47.0,1644596132.46875,P05,D00,0,1,1
1391,39.0,-11.0,47.0,1644596132.5,P05,D00,0,1,1
1392,39.0,-11.0,47.0,1644596132.53125,P05,D00,0,1,1
1393,39.0,-11.0,47.0,1644596132.5625,P05,D00,0,1,1
1394,39.0,-11.0,47.0,1644596132.59375,P05,D00,0,1,1
1395,39.0,-11.0,47.0,1644596132.625,P05,D00,0,1,1
1396,39.0,-11.0,47.0,1644596132.65625,P05,D00,0,1,1
1397,39.0,-11.0,47.0,1644596132.6875,P05,D00,0,1,1
1398,39.0,-11.0,47.0,1644596132.71875,P05,D00,0,1,1
1399,39.0,-11.0,47.0,1644596132.75,P05,D00,0,1,1
1400,39.0,-11.0,47.0,1644596132.78125,P05,D00,0,1,1
1401,39.0,-11.0,47.0,1644596132.8125,P05,D00,0,1,1
1402,39.0,-11.0,47.0,1644596132.84375,P05,D00,0,1,1
1403,39.0,-11.0,47.0,1644596132.875,P05,D00,0,1,1
1404,39.0,-11.0,47.0,1644596132.90625,P05,D00,0,1,1
1405,39.0,-11.0,47.0,1644596132.9375,P05,D00,0,1,1
1406,39.0,-11.0,47.0,1644596132.96875,P05,D00,0,1,1
1407,39.0,-11.0,47.0,1644596133.0,P05,D00,0,1,1
1408,39.0,-11.0,47.0,1644596133.03125,P05,D00,0,1,1
1409,39.0,-11.0,47.0,1644596133.0625,P05,D00,0,1,1
1410,39.0,-11.0,47.0,1644596133.09375,P05,D00,0,1,1
1411,39.0,-11.0,47.0,1644596133.125,P05,D00,0,1,1
1412,39.0,-11.0,47.0,1644596133.15625,P05,D00,0,1,1
1413,39.0,-11.0,47.0,1644596133.1875,P05,D00,0,1,1
1414,39.0,-11.0,47.0,1644596133.21875,P05,D00,0,1,1
1415,39.0,-11.0,47.0,1644596133.25,P05,D00,0,1,1
1416,39.0,-11.0,47.0,1644596133.28125,P05,D00,0,1,1
1417,39.0,-11.0,47.0,1644596133.3125,P05,D00,0,1,1
1418,39.0,-11.0,47.0,1644596133.34375,P05,D00,0,1,1
1419,39.0,-11.0,47.0,1644596133.375,P05,D00,0,1,1
1420,39.0,-11.0,47.0,1644596133.40625,P05,D00,0,1,1
1421,39.0,-11.0,47.0,1644596133.4375,P05,D00,0,1,1
1422,39.0,-11.0,47.0,1644596133.46875,P05,D00,0,1,1
1423,39.0,-11.0,47.0,1644596133.5,P05,D00,0,1,1
1424,39.0,-11.0,47.0,1644596133.53125,P05,D00,0,1,1
1425,39.0,-11.0,47.0,1644596133.5625,P05,D00,0,1,1
1426,39.0,-11.0,47.0,1644596133.59375,P05,D00,0,1,1
1427,39.0,-11.0,47.0,1644596133.625,P05,D00,0,1,1
1428,39.0,-11.0,47.0,1644596133.65625,P05,D00,0,1,1
1429,39.0,-11.0,47.0,1644596133.6875,P05,D00,0,1,1
1430,39.0,-11.0,47.0,1644596133.71875,P05,D00,0,1,1
1431,39.0,-11.0,47.0,1644596133.75,P05,D00,0,1,1
1432,39.0,-11.0,47.0,1644596133.78125,P05,D00,0,1,1
1433,39.0,-11.0,47.0,1644596133.8125,P05,D00,0,1,1
1434,39.0,-11.0,47.0,1644596133.84375,P05,D00,0,1,1
1435,39.0,-11.0,47.0,1644596133.875,P05,D00,0,1,1
1436,39.0,-11.0,47.0,1644596133.90625,P05,D00,0,1,1
1437,39.0,-11.0,47.0,1644596133.9375,P05,D00,0,1,1
1438,39.0,-11.0,47.0,1644596133.96875,P05,D00,0,1,1
1439,39.0,-11.0,47.0,1644596134.0,P05,D00,0,1,1
1440,39.0,-11.0,47.0,1644596134.03125,P05,D00,0,1,1
1441,39.0,-11.0,47.0,1644596134.0625,P05,D00,0,1,1
1442,39.0,-11.0,47.0,1644596134.09375,P05,D00,0,1,1
1443,39.0,-11.0,47.0,1644596134.125,P05,D00,0,1,1
1444,39.0,-11.0,47.0,1644596134.15625,P05,D00,0,1,1
1445,39.0,-11.0,47.0,1644596134.1875,P05,D00,0,1,1
1446,39.0,-11.0,47.0,1644596134.21875,P05,D00,0,1,1
1447,39.0,-11.0,47.0,1644596134.25,P05,D00,0,1,1
1448,39.0,-11.0,47.0,1644596134.28125,P05,D00,0,1,1
1449,39.0,-11.0,47.0,1644596134.3125,P05,D00,0,1,1
1450,39.0,-11.0,47.0,1644596134.34375,P05,D00,0,1,1
1451,39.0,-11.0,47.0,1644596134.375,P05,D00,0,1,1
1452,39.0,-11.0,47.0,1644596134.40625,P05,D00,0,1,1
1453,39.0,-11.0,47.0,1644596134.4375,P05,D00,0,1,1
1454,39.0,-11.0,47.0,1644596134.46875,P05,D00,0,1,1
1455,39.0,-11.0,47.0,1644596134.5,P05,D00,0,1,1
1456,39.0,-11.0,47.0,1644596134.53125,P05,D00,0,1,1
1457,39.0,-11.0,47.0,1644596134.5625,P05,D00,0,1,1
1458,39.0,-11.0,47.0,1644596134.59375,P05,D00,0,1,1
1459,39.0,-11.0,47.0,1644596134.625,P05,D00,0,1,1
1460,39.0,-11.0,47.0,1644596134.65625,P05,D00,0,1,1
1461,39.0,-11.0,47.0,1644596134.6875,P05,D00,0,1,1
1462,39.0,-11.0,47.0,1644596134.71875,P05,D00,0,1,1
1463,39.0,-11.0,47.0,1644596134.75,P05,D00,0,1,1
1464,39.0,-11.0,47.0,1644596134.78125,P05,D00,0,1,1
1465,39.0,-11.0,47.0,1644596134.8125,P05,D00,0,1,1
1466,39.0,-11.0,47.0,1644596134.84375,P05,D00,0,1,1
1467,39.0,-11.0,47.0,1644596134.875,P05,D00,0,1,1
1468,39.0,-11.0,47.0,1644596134.90625,P05,D00,0,1,1
1469,39.0,-11.0,47.0,1644596134.9375,P05,D00,0,1,1
1470,39.0,-11.0,47.0,1644596134.96875,P05,D00,0,1,1
1471,39.0,-11.0,47.0,1644596135.0,P05,D00,0,1,1
1472,39.0,-11.0,47.0,1644596135.03125,P05,D00,0,1,1
1473,39.0,-11.0,47.0,1644596135.0625,P05,D00,0,1,1
1474,39.0,-11.0,47.0,1644596135.09375,P05,D00,0,1,1
1475,39.0,-11.0,47.0,1644596135.125,P05,D00,0,1,1
1476,39.0,-11.0,47.0,1644596135.15625,P05,D00,0,1,1
1477,39.0,-11.0,47.0,1644596135.1875,P05,D00,0,1,1
1478,39.0,-11.0,47.0,1644596135.21875,P05,D00,0,1,1
1479,39.0,-11.0,47.0,1644596135.25,P05,D00,0,1,1
1480,39.0,-11.0,47.0,1644596135.28125,P05,D00,0,1,1
1481,39.0,-11.0,47.0,1644596135.3125,P05,D00,0,1,1
1482,39.0,-11.0,47.0,1644596135.34375,P05,D00,0,1,1
1483,39.0,-11.0,47.0,1644596135.375,P05,D00,0,1,1
1484,39.0,-11.0,47.0,1644596135.40625,P05,D00,0,1,1
1485,39.0,-11.0,47.0,1644596135.4375,P05,D00,0,1,1
1486,39.0,-11.0,47.0,1644596135.46875,P05,D00,0,1,1
1487,39.0,-11.0,47.0,1644596135.5,P05,D00,0,1,1
1488,39.0,-11.0,47.0,1644596135.53125,P05,D00,0,1,1
1489,39.0,-11.0,47.0,1644596135.5625,P05,D00,0,1,1
1490,39.0,-11.0,47.0,1644596135.59375,P05,D00,0,1,1
1491,39.0,-11.0,47.0,1644596135.625,P05,D00,0,1,1
1492,39.0,-11.0,47.0,1644596135.65625,P05,D00,0,1,1
1493,39.0,-11.0,47.0,1644596135.6875,P05,D00,0,1,1
1494,39.0,-11.0,47.0,1644596135.71875,P05,D00,0,1,1
1495,39.0,-11.0,47.0,1644596135.75,P05,D00,0,1,1
1496,39.0,-11.0,47.0,1644596135.78125,P05,D00,0,1,1
1497,39.0,-11.0,47.0,1644596135.8125,P05,D00,0,1,1
1498,39.0,-11.0,47.0,1644596135.84375,P05,D00,0,1,1
1499,39.0,-11.0,47.0,1644596135.875,P05,D00,0,1,1
1500,39.0,-11.0,47.0,1644596135.90625,P05,D00,0,1,1
1501,39.0,-11.0,47.0,1644596135.9375,P05,D00,0,1,1
1502,39.0,-11.0,47.0,1644596135.96875,P05,D00,0,1,1
1503,39.0,-11.0,47.0,1644596136.0,P05,D00,0,1,1
1504,39.0,-11.0,47.0,1644596136.03125,P05,D00,0,1,1
1505,39.0,-11.0,47.0,1644596136.0625,P05,D00,0,1,1
1506,39.0,-11.0,47.0,1644596136.09375,P05,D00,0,1,1
1507,39.0,-11.0,47.0,1644596136.125,P05,D00,0,1,1
1508,39.0,-11.0,47.0,1644596136.15625,P05,D00,0,1,1
1509,39.0,-11.0,47.0,1644596136.1875,P05,D00,0,1,1
1510,39.0,-11.0,47.0,1644596136.21875,P05,D00,0,1,1
1511,39.0,-11.0,47.0,1644596136.25,P05,D00,0,1,1
1512,39.0,-11.0,47.0,1644596136.28125,P05,D00,0,1,1
1513,39.0,-11.0,47.0,1644596136.3125,P05,D00,0,1,1
1514,39.0,-11.0,47.0,1644596136.34375,P05,D00,0,1,1
1515,39.0,-11.0,47.0,1644596136.375,P05,D00,0,1,1
1516,39.0,-11.0,47.0,1644596136.40625,P05,D00,0,1,1
1517,39.0,-11.0,47.0,1644596136.4375,P05,D00,0,1,1
1518,39.0,-11.0,47.0,1644596136.46875,P05,D00,0,1,1
1519,39.0,-11.0,47.0,1644596136.5,P05,D00,0,1,1
1520,39.0,-11.0,47.0,1644596136.53125,P05,D00,0,1,1
1521,39.0,-11.0,47.0,1644596136.5625,P05,D00,0,1,1
1522,40.0,-11.0,47.0,1644596136.59375,P05,D00,0,1,1
1523,39.0,-11.0,47.0,1644596136.625,P05,D00,0,1,1
1524,39.0,-11.0,47.0,1644596136.65625,P05,D00,0,1,1
1525,39.0,-11.0,47.0,1644596136.6875,P05,D00,0,1,1
1526,39.0,-11.0,47.0,1644596136.71875,P05,D00,0,1,1
1527,39.0,-11.0,47.0,1644596136.75,P05,D00,0,1,1
1528,39.0,-11.0,47.0,1644596136.78125,P05,D00,0,1,1
1529,39.0,-11.0,47.0,1644596136.8125,P05,D00,0,1,1
1530,39.0,-11.0,47.0,1644596136.84375,P05,D00,0,1,1
1531,39.0,-11.0,47.0,1644596136.875,P05,D00,0,1,1
1532,39.0,-11.0,47.0,1644596136.90625,P05,D00,0,1,1
1533,39.0,-11.0,47.0,1644596136.9375,P05,D00,0,1,1
1534,39.0,-11.0,47.0,1644596136.96875,P05,D00,0,1,1
1535,39.0,-11.0,47.0,1644596137.0,P05,D00,0,1,1
1536,39.0,-11.0,47.0,1644596137.03125,P05,D00,0,1,1
1537,39.0,-11.0,47.0,1644596137.0625,P05,D00,0,1,1
1538,39.0,-11.0,47.0,1644596137.09375,P05,D00,0,1,1
1539,39.0,-11.0,47.0,1644596137.125,P05,D00,0,1,1
1540,39.0,-11.0,47.0,1644596137.15625,P05,D00,0,1,1
1541,39.0,-11.0,47.0,1644596137.1875,P05,D00,0,1,1
1542,39.0,-11.0,47.0,1644596137.21875,P05,D00,0,1,1
1543,39.0,-11.0,47.0,1644596137.25,P05,D00,0,1,1
1544,39.0,-11.0,47.0,1644596137.28125,P05,D00,0,1,1
1545,39.0,-11.0,47.0,1644596137.3125,P05,D00,0,1,1
1546,39.0,-11.0,47.0,1644596137.34375,P05,D00,0,1,1
1547,39.0,-11.0,47.0,1644596137.375,P05,D00,0,1,1
1548,39.0,-11.0,47.0,1644596137.40625,P05,D00,0,1,1
1549,39.0,-11.0,47.0,1644596137.4375,P05,D00,0,1,1
1550,39.0,-11.0,47.0,1644596137.46875,P05,D00,0,1,1
1551,39.0,-11.0,47.0,1644596137.5,P05,D00,0,1,1
1552,39.0,-11.0,47.0,1644596137.53125,P05,D00,0,1,1
1553,39.0,-11.0,47.0,1644596137.5625,P05,D00,0,1,1
1554,39.0,-11.0,47.0,1644596137.59375,P05,D00,0,1,1
1555,39.0,-11.0,47.0,1644596137.625,P05,D00,0,1,1
1556,39.0,-11.0,47.0,1644596137.65625,P05,D00,0,1,1
1557,39.0,-11.0,47.0,1644596137.6875,P05,D00,0,1,1
1558,39.0,-11.0,47.0,1644596137.71875,P05,D00,0,1,1
1559,39.0,-11.0,47.0,1644596137.75,P05,D00,0,1,1
1560,39.0,-11.0,47.0,1644596137.78125,P05,D00,0,1,1
1561,39.0,-11.0,47.0,1644596137.8125,P05,D00,0,1,1
1562,39.0,-11.0,47.0,1644596137.84375,P05,D00,0,1,1
1563,39.0,-11.0,47.0,1644596137.875,P05,D00,0,1,1
1564,39.0,-11.0,47.0,1644596137.90625,P05,D00,0,1,1
1565,39.0,-11.0,47.0,1644596137.9375,P05,D00,0,1,1
1566,39.0,-11.0,47.0,1644596137.96875,P05,D00,0,1,1
1567,39.0,-11.0,47.0,1644596138.0,P05,D00,0,1,1
1568,39.0,-11.0,47.0,1644596138.03125,P05,D00,0,1,1
1569,39.0,-11.0,47.0,1644596138.0625,P05,D00,0,1,1
1570,39.0,-11.0,47.0,1644596138.09375,P05,D00,0,1,1
1571,39.0,-11.0,47.0,1644596138.125,P05,D00,0,1,1
1572,39.0,-11.0,47.0,1644596138.15625,P05,D00,0,1,1
1573,39.0,-11.0,47.0,1644596138.1875,P05,D00,0,1,1
1574,39.0,-11.0,47.0,1644596138.21875,P05,D00,0,1,1
1575,39.0,-11.0,47.0,1644596138.25,P05,D00,0,1,1
1576,39.0,-11.0,47.0,1644596138.28125,P05,D00,0,1,1
1577,39.0,-11.0,47.0,1644596138.3125,P05,D00,0,1,1
1578,39.0,-11.0,47.0,1644596138.34375,P05,D00,0,1,1
1579,39.0,-11.0,47.0,1644596138.375,P05,D00,0,1,1
1580,39.0,-11.0,47.0,1644596138.40625,P05,D00,0,1,1
1581,39.0,-11.0,47.0,1644596138.4375,P05,D00,0,1,1
1582,39.0,-11.0,47.0,1644596138.46875,P05,D00,0,1,1
1583,39.0,-11.0,47.0,1644596138.5,P05,D00,0,1,1
1584,39.0,-11.0,47.0,1644596138.53125,P05,D00,0,1,1
1585,39.0,-11.0,47.0,1644596138.5625,P05,D00,0,1,1
1586,39.0,-11.0,47.0,1644596138.59375,P05,D00,0,1,1
1587,39.0,-11.0,47.0,1644596138.625,P05,D00,0,1,1
1588,39.0,-11.0,47.0,1644596138.65625,P05,D00,0,1,1
1589,39.0,-11.0,47.0,1644596138.6875,P05,D00,0,1,1
1590,39.0,-11.0,47.0,1644596138.71875,P05,D00,0,1,1
1591,39.0,-11.0,47.0,1644596138.75,P05,D00,0,1,1
1592,39.0,-11.0,47.0,1644596138.78125,P05,D00,0,1,1
1593,39.0,-11.0,47.0,1644596138.8125,P05,D00,0,1,1
1594,39.0,-11.0,47.0,1644596138.84375,P05,D00,0,1,1
1595,39.0,-11.0,47.0,1644596138.875,P05,D00,0,1,1
1596,39.0,-11.0,47.0,1644596138.90625,P05,D00,0,1,1
1597,39.0,-11.0,47.0,1644596138.9375,P05,D00,0,1,1
1598,39.0,-11.0,47.0,1644596138.96875,P05,D00,0,1,1
1599,39.0,-11.0,47.0,1644596139.0,P05,D00,0,1,1
1600,39.0,-11.0,47.0,1644596139.03125,P05,D00,0,1,1
1601,39.0,-11.0,47.0,1644596139.0625,P05,D00,0,1,1
1602,39.0,-11.0,47.0,1644596139.09375,P05,D00,0,1,1
1603,39.0,-11.0,47.0,1644596139.125,P05,D00,0,1,1
1604,39.0,-11.0,47.0,1644596139.15625,P05,D00,0,1,1
1605,39.0,-11.0,47.0,1644596139.1875,P05,D00,0,1,1
1606,39.0,-11.0,47.0,1644596139.21875,P05,D00,0,1,1
1607,39.0,-11.0,47.0,1644596139.25,P05,D00,0,1,1
1608,39.0,-11.0,47.0,1644596139.28125,P05,D00,0,1,1
1609,39.0,-11.0,47.0,1644596139.3125,P05,D00,0,1,1
1610,39.0,-11.0,47.0,1644596139.34375,P05,D00,0,1,1
1611,39.0,-11.0,47.0,1644596139.375,P05,D00,0,1,1
1612,39.0,-11.0,47.0,1644596139.40625,P05,D00,0,1,1
1613,39.0,-11.0,47.0,1644596139.4375,P05,D00,0,1,1
1614,39.0,-11.0,47.0,1644596139.46875,P05,D00,0,1,1
1615,39.0,-11.0,47.0,1644596139.5,P05,D00,0,1,1
1616,39.0,-11.0,47.0,1644596139.53125,P05,D00,0,1,1
1617,39.0,-11.0,47.0,1644596139.5625,P05,D00,0,1,1
1618,39.0,-11.0,47.0,1644596139.59375,P05,D00,0,1,1
1619,39.0,-11.0,47.0,1644596139.625,P05,D00,0,1,1
1620,39.0,-11.0,47.0,1644596139.65625,P05,D00,0,1,1
1621,39.0,-11.0,47.0,1644596139.6875,P05,D00,0,1,1
1622,39.0,-11.0,47.0,1644596139.71875,P05,D00,0,1,1
1623,39.0,-11.0,47.0,1644596139.75,P05,D00,0,1,1
1624,39.0,-11.0,47.0,1644596139.78125,P05,D00,0,1,1
1625,39.0,-11.0,47.0,1644596139.8125,P05,D00,0,1,1
1626,39.0,-11.0,47.0,1644596139.84375,P05,D00,0,1,1
1627,39.0,-11.0,47.0,1644596139.875,P05,D00,0,1,1
1628,39.0,-11.0,47.0,1644596139.90625,P05,D00,0,1,1
1629,39.0,-11.0,47.0,1644596139.9375,P05,D00,0,1,1
1630,39.0,-11.0,47.0,1644596139.96875,P05,D00,0,1,1
1631,39.0,-11.0,47.0,1644596140.0,P05,D00,0,1,1
1632,39.0,-11.0,47.0,1644596140.03125,P05,D00,0,1,1
1633,39.0,-11.0,47.0,1644596140.0625,P05,D00,0,1,1
1634,39.0,-11.0,47.0,1644596140.09375,P05,D00,0,1,1
1635,39.0,-11.0,47.0,1644596140.125,P05,D00,0,1,1
1636,39.0,-11.0,47.0,1644596140.15625,P05,D00,0,1,1
1637,39.0,-11.0,47.0,1644596140.1875,P05,D00,0,1,1
1638,39.0,-11.0,47.0,1644596140.21875,P05,D00,0,1,1
1639,39.0,-11.0,47.0,1644596140.25,P05,D00,0,1,1
1640,39.0,-11.0,47.0,1644596140.28125,P05,D00,0,1,1
1641,39.0,-11.0,47.0,1644596140.3125,P05,D00,0,1,1
1642,39.0,-11.0,47.0,1644596140.34375,P05,D00,0,1,1
1643,39.0,-11.0,47.0,1644596140.375,P05,D00,0,1,1
1644,39.0,-11.0,47.0,1644596140.40625,P05,D00,0,1,1
1645,39.0,-11.0,47.0,1644596140.4375,P05,D00,0,1,1
1646,39.0,-11.0,47.0,1644596140.46875,P05,D00,0,1,1
1647,39.0,-11.0,47.0,1644596140.5,P05,D00,0,1,1
1648,39.0,-11.0,47.0,1644596140.53125,P05,D00,0,1,1
1649,39.0,-11.0,47.0,1644596140.5625,P05,D00,0,1,1
1650,39.0,-11.0,47.0,1644596140.59375,P05,D00,0,1,1
1651,39.0,-11.0,47.0,1644596140.625,P05,D00,0,1,1
1652,39.0,-11.0,47.0,1644596140.65625,P05,D00,0,1,1
1653,39.0,-10.0,47.0,1644596140.6875,P05,D00,0,1,1
1654,39.0,-11.0,47.0,1644596140.71875,P05,D00,0,1,1
1655,39.0,-11.0,47.0,1644596140.75,P05,D00,0,1,1
1656,39.0,-11.0,47.0,1644596140.78125,P05,D00,0,1,1
1657,39.0,-11.0,47.0,1644596140.8125,P05,D00,0,1,1
1658,39.0,-11.0,47.0,1644596140.84375,P05,D00,0,1,1
1659,39.0,-11.0,47.0,1644596140.875,P05,D00,0,1,1
1660,39.0,-11.0,47.0,1644596140.90625,P05,D00,0,1,1
1661,39.0,-11.0,47.0,1644596140.9375,P05,D00,0,1,1
1662,39.0,-11.0,47.0,1644596140.96875,P05,D00,0,1,1
1663,39.0,-11.0,47.0,1644596141.0,P05,D00,0,1,1
1664,39.0,-11.0,47.0,1644596141.03125,P05,D00,0,1,1
1665,39.0,-11.0,47.0,1644596141.0625,P05,D00,0,1,1
1666,40.0,-11.0,47.0,1644596141.09375,P05,D00,0,1,1
1667,39.0,-11.0,47.0,1644596141.125,P05,D00,0,1,1
1668,39.0,-11.0,47.0,1644596141.15625,P05,D00,0,1,1
1669,39.0,-11.0,47.0,1644596141.1875,P05,D00,0,1,1
1670,39.0,-11.0,47.0,1644596141.21875,P05,D00,0,1,1
1671,39.0,-11.0,47.0,1644596141.25,P05,D00,0,1,1
1672,40.0,-11.0,47.0,1644596141.28125,P05,D00,0,1,1
1673,39.0,-11.0,47.0,1644596141.3125,P05,D00,0,1,1
1674,39.0,-11.0,47.0,1644596141.34375,P05,D00,0,1,1
1675,39.0,-11.0,47.0,1644596141.375,P05,D00,0,1,1
1676,39.0,-11.0,47.0,1644596141.40625,P05,D00,0,1,1
1677,39.0,-11.0,47.0,1644596141.4375,P05,D00,0,1,1
1678,39.0,-11.0,47.0,1644596141.46875,P05,D00,0,1,1
1679,39.0,-11.0,47.0,1644596141.5,P05,D00,0,1,1
1680,39.0,-11.0,47.0,1644596141.53125,P05,D00,0,1,1
1681,39.0,-11.0,47.0,1644596141.5625,P05,D00,0,1,1
1682,39.0,-11.0,47.0,1644596141.59375,P05,D00,0,1,1
1683,39.0,-11.0,47.0,1644596141.625,P05,D00,0,1,1
1684,39.0,-11.0,47.0,1644596141.65625,P05,D00,0,1,1
1685,39.0,-11.0,47.0,1644596141.6875,P05,D00,0,1,1
1686,39.0,-11.0,47.0,1644596141.71875,P05,D00,0,1,1
1687,39.0,-11.0,47.0,1644596141.75,P05,D00,0,1,1
1688,39.0,-11.0,47.0,1644596141.78125,P05,D00,0,1,1
1689,39.0,-11.0,47.0,1644596141.8125,P05,D00,0,1,1
1690,39.0,-11.0,47.0,1644596141.84375,P05,D00,0,1,1
1691,39.0,-11.0,47.0,1644596141.875,P05,D00,0,1,1
1692,39.0,-11.0,47.0,1644596141.90625,P05,D00,0,1,1
1693,39.0,-11.0,47.0,1644596141.9375,P05,D00,0,1,1
1694,39.0,-11.0,47.0,1644596141.96875,P05,D00,0,1,1
1695,39.0,-11.0,47.0,1644596142.0,P05,D00,0,1,1
1696,39.0,-11.0,47.0,1644596142.03125,P05,D00,0,1,1
1697,39.0,-11.0,47.0,1644596142.0625,P05,D00,0,1,1
1698,39.0,-11.0,47.0,1644596142.09375,P05,D00,0,1,1
1699,39.0,-11.0,47.0,1644596142.125,P05,D00,0,1,1
1700,39.0,-11.0,47.0,1644596142.15625,P05,D00,0,1,1
1701,39.0,-11.0,47.0,1644596142.1875,P05,D00,0,1,1
1702,39.0,-11.0,47.0,1644596142.21875,P05,D00,0,1,1
1703,39.0,-11.0,47.0,1644596142.25,P05,D00,0,1,1
1704,39.0,-11.0,47.0,1644596142.28125,P05,D00,0,1,1
1705,39.0,-11.0,47.0,1644596142.3125,P05,D00,0,1,1
1706,39.0,-11.0,47.0,1644596142.34375,P05,D00,0,1,1
1707,39.0,-11.0,47.0,1644596142.375,P05,D00,0,1,1
1708,39.0,-11.0,47.0,1644596142.40625,P05,D00,0,1,1
1709,39.0,-11.0,47.0,1644596142.4375,P05,D00,0,1,1
1710,39.0,-11.0,47.0,1644596142.46875,P05,D00,0,1,1
1711,39.0,-11.0,47.0,1644596142.5,P05,D00,0,1,1
1712,39.0,-11.0,47.0,1644596142.53125,P05,D00,0,1,1
1713,39.0,-11.0,47.0,1644596142.5625,P05,D00,0,1,1
1714,39.0,-11.0,47.0,1644596142.59375,P05,D00,0,1,1
1715,39.0,-11.0,47.0,1644596142.625,P05,D00,0,1,1
1716,39.0,-11.0,47.0,1644596142.65625,P05,D00,0,1,1
1717,39.0,-11.0,47.0,1644596142.6875,P05,D00,0,1,1
1718,39.0,-11.0,47.0,1644596142.71875,P05,D00,0,1,1
1719,39.0,-11.0,47.0,1644596142.75,P05,D00,0,1,1
1720,39.0,-11.0,47.0,1644596142.78125,P05,D00,0,1,1
1721,39.0,-11.0,47.0,1644596142.8125,P05,D00,0,1,1
1722,39.0,-11.0,47.0,1644596142.84375,P05,D00,0,1,1
1723,38.0,-11.0,47.0,1644596142.875,P05,D00,0,1,1
1724,39.0,-11.0,47.0,1644596142.90625,P05,D00,0,1,1
1725,39.0,-11.0,47.0,1644596142.9375,P05,D00,0,1,1
1726,39.0,-11.0,47.0,1644596142.96875,P05,D00,0,1,1
1727,39.0,-11.0,47.0,1644596143.0,P05,D00,0,1,1
1728,39.0,-11.0,47.0,1644596143.03125,P05,D00,0,1,1
1729,39.0,-11.0,47.0,1644596143.0625,P05,D00,0,1,1
1730,39.0,-11.0,47.0,1644596143.09375,P05,D00,0,1,1
1731,39.0,-11.0,47.0,1644596143.125,P05,D00,0,1,1
1732,39.0,-11.0,47.0,1644596143.15625,P05,D00,0,1,1
1733,39.0,-11.0,47.0,1644596143.1875,P05,D00,0,1,1
1734,39.0,-11.0,47.0,1644596143.21875,P05,D00,0,1,1
1735,39.0,-11.0,47.0,1644596143.25,P05,D00,0,1,1
1736,39.0,-11.0,47.0,1644596143.28125,P05,D00,0,1,1
1737,39.0,-11.0,47.0,1644596143.3125,P05,D00,0,1,1
1738,39.0,-11.0,47.0,1644596143.34375,P05,D00,0,1,1
1739,39.0,-11.0,47.0,1644596143.375,P05,D00,0,1,1
1740,39.0,-11.0,47.0,1644596143.40625,P05,D00,0,1,1
1741,39.0,-11.0,47.0,1644596143.4375,P05,D00,0,1,1
1742,39.0,-11.0,47.0,1644596143.46875,P05,D00,0,1,1
1743,39.0,-11.0,47.0,1644596143.5,P05,D00,0,1,1
1744,39.0,-11.0,47.0,1644596143.53125,P05,D00,0,1,1
1745,39.0,-11.0,47.0,1644596143.5625,P05,D00,0,1,1
1746,39.0,-11.0,47.0,1644596143.59375,P05,D00,0,1,1
1747,39.0,-11.0,47.0,1644596143.625,P05,D00,0,1,1
1748,39.0,-11.0,47.0,1644596143.65625,P05,D00,0,1,1
1749,39.0,-11.0,47.0,1644596143.6875,P05,D00,0,1,1
1750,39.0,-11.0,47.0,1644596143.71875,P05,D00,0,1,1
1751,39.0,-11.0,47.0,1644596143.75,P05,D00,0,1,1
1752,39.0,-11.0,47.0,1644596143.78125,P05,D00,0,1,1
1753,39.0,-11.0,47.0,1644596143.8125,P05,D00,0,1,1
1754,39.0,-11.0,47.0,1644596143.84375,P05,D00,0,1,1
1755,39.0,-11.0,47.0,1644596143.875,P05,D00,0,1,1
1756,39.0,-11.0,47.0,1644596143.90625,P05,D00,0,1,1
1757,39.0,-11.0,47.0,1644596143.9375,P05,D00,0,1,1
1758,39.0,-11.0,47.0,1644596143.96875,P05,D00,0,1,1
1759,39.0,-11.0,47.0,1644596144.0,P05,D00,0,1,1
1760,39.0,-11.0,47.0,1644596144.03125,P05,D00,0,1,1
1761,39.0,-11.0,47.0,1644596144.0625,P05,D00,0,1,1
1762,39.0,-11.0,47.0,1644596144.09375,P05,D00,0,1,1
1763,39.0,-11.0,47.0,1644596144.125,P05,D00,0,1,1
1764,39.0,-11.0,47.0,1644596144.15625,P05,D00,0,1,1
1765,39.0,-11.0,47.0,1644596144.1875,P05,D00,0,1,1
1766,39.0,-11.0,47.0,1644596144.21875,P05,D00,0,1,1
1767,39.0,-11.0,47.0,1644596144.25,P05,D00,0,1,1
1768,39.0,-11.0,47.0,1644596144.28125,P05,D00,0,1,1
1769,39.0,-11.0,47.0,1644596144.3125,P05,D00,0,1,1
1770,39.0,-11.0,47.0,1644596144.34375,P05,D00,0,1,1
1771,39.0,-11.0,47.0,1644596144.375,P05,D00,0,1,1
1772,39.0,-11.0,47.0,1644596144.40625,P05,D00,0,1,1
1773,39.0,-11.0,47.0,1644596144.4375,P05,D00,0,1,1
1774,39.0,-11.0,47.0,1644596144.46875,P05,D00,0,1,1
1775,39.0,-11.0,47.0,1644596144.5,P05,D00,0,1,1
1776,39.0,-11.0,47.0,1644596144.53125,P05,D00,0,1,1
1777,39.0,-11.0,47.0,1644596144.5625,P05,D00,0,1,1
1778,39.0,-11.0,47.0,1644596144.59375,P05,D00,0,1,1
1779,39.0,-11.0,47.0,1644596144.625,P05,D00,0,1,1
1780,39.0,-11.0,47.0,1644596144.65625,P05,D00,0,1,1
1781,39.0,-11.0,47.0,1644596144.6875,P05,D00,0,1,1
1782,38.0,-11.0,47.0,1644596144.71875,P05,D00,0,1,1
1783,39.0,-11.0,47.0,1644596144.75,P05,D00,0,1,1
1784,39.0,-11.0,47.0,1644596144.78125,P05,D00,0,1,1
1785,39.0,-11.0,47.0,1644596144.8125,P05,D00,0,1,1
1786,39.0,-11.0,47.0,1644596144.84375,P05,D00,0,1,1
1787,39.0,-11.0,47.0,1644596144.875,P05,D00,0,1,1
1788,39.0,-11.0,47.0,1644596144.90625,P05,D00,0,1,1
1789,39.0,-11.0,47.0,1644596144.9375,P05,D00,0,1,1
1790,39.0,-11.0,47.0,1644596144.96875,P05,D00,0,1,1
1791,39.0,-11.0,47.0,1644596145.0,P05,D00,0,1,1
1792,39.0,-11.0,47.0,1644596145.03125,P05,D00,0,1,1
1793,39.0,-11.0,47.0,1644596145.0625,P05,D00,0,1,1
1794,39.0,-11.0,47.0,1644596145.09375,P05,D00,0,1,1
1795,39.0,-11.0,47.0,1644596145.125,P05,D00,0,1,1
1796,39.0,-11.0,47.0,1644596145.15625,P05,D00,0,1,1
1797,39.0,-11.0,47.0,1644596145.1875,P05,D00,0,1,1
1798,39.0,-11.0,47.0,1644596145.21875,P05,D00,0,1,1
1799,39.0,-11.0,47.0,1644596145.25,P05,D00,0,1,1
1800,39.0,-11.0,47.0,1644596145.28125,P05,D00,0,1,1
1801,39.0,-11.0,47.0,1644596145.3125,P05,D00,0,1,1
1802,39.0,-11.0,47.0,1644596145.34375,P05,D00,0,1,1
1803,39.0,-11.0,47.0,1644596145.375,P05,D00,0,1,1
1804,39.0,-11.0,47.0,1644596145.40625,P05,D00,0,1,1
1805,39.0,-11.0,47.0,1644596145.4375,P05,D00,0,1,1
1806,39.0,-11.0,47.0,1644596145.46875,P05,D00,0,1,1
1807,39.0,-11.0,47.0,1644596145.5,P05,D00,0,1,1
1808,39.0,-10.0,47.0,1644596145.53125,P05,D00,0,1,1
1809,39.0,-11.0,47.0,1644596145.5625,P05,D00,0,1,1
1810,39.0,-11.0,47.0,1644596145.59375,P05,D00,0,1,1
1811,39.0,-11.0,47.0,1644596145.625,P05,D00,0,1,1
1812,39.0,-10.0,47.0,1644596145.65625,P05,D00,0,1,1
1813,39.0,-11.0,47.0,1644596145.6875,P05,D00,0,1,1
1814,39.0,-11.0,47.0,1644596145.71875,P05,D00,0,1,1
1815,39.0,-11.0,47.0,1644596145.75,P05,D00,0,1,1
1816,39.0,-11.0,47.0,1644596145.78125,P05,D00,0,1,1
1817,39.0,-11.0,47.0,1644596145.8125,P05,D00,0,1,1
1818,39.0,-11.0,47.0,1644596145.84375,P05,D00,0,1,1
1819,39.0,-11.0,47.0,1644596145.875,P05,D00,0,1,1
1820,39.0,-11.0,47.0,1644596145.90625,P05,D00,0,1,1
1821,39.0,-11.0,47.0,1644596145.9375,P05,D00,0,1,1
1822,39.0,-11.0,47.0,1644596145.96875,P05,D00,0,1,1
1823,39.0,-11.0,47.0,1644596146.0,P05,D00,0,1,1
1824,39.0,-11.0,47.0,1644596146.03125,P05,D00,0,1,1
1825,39.0,-11.0,47.0,1644596146.0625,P05,D00,0,1,1
1826,39.0,-11.0,47.0,1644596146.09375,P05,D00,0,1,1
1827,39.0,-11.0,47.0,1644596146.125,P05,D00,0,1,1
1828,39.0,-11.0,47.0,1644596146.15625,P05,D00,0,1,1
1829,39.0,-11.0,47.0,1644596146.1875,P05,D00,0,1,1
1830,39.0,-11.0,47.0,1644596146.21875,P05,D00,0,1,1
1831,39.0,-11.0,47.0,1644596146.25,P05,D00,0,1,1
1832,39.0,-11.0,47.0,1644596146.28125,P05,D00,0,1,1
1833,39.0,-11.0,47.0,1644596146.3125,P05,D00,0,1,1
1834,39.0,-11.0,47.0,1644596146.34375,P05,D00,0,1,1
1835,39.0,-11.0,47.0,1644596146.375,P05,D00,0,1,1
1836,39.0,-11.0,47.0,1644596146.40625,P05,D00,0,1,1
1837,39.0,-11.0,47.0,1644596146.4375,P05,D00,0,1,1
1838,39.0,-11.0,47.0,1644596146.46875,P05,D00,0,1,1
1839,39.0,-11.0,47.0,1644596146.5,P05,D00,0,1,1
1840,39.0,-11.0,46.0,1644596146.53125,P05,D00,0,1,1
1841,39.0,-11.0,47.0,1644596146.5625,P05,D00,0,1,1
1842,39.0,-11.0,47.0,1644596146.59375,P05,D00,0,1,1
1843,39.0,-11.0,47.0,1644596146.625,P05,D00,0,1,1
1844,39.0,-11.0,47.0,1644596146.65625,P05,D00,0,1,1
1845,39.0,-11.0,47.0,1644596146.6875,P05,D00,0,1,1
1846,39.0,-11.0,47.0,1644596146.71875,P05,D00,0,1,1
1847,39.0,-11.0,46.0,1644596146.75,P05,D00,0,1,1
1848,39.0,-11.0,47.0,1644596146.78125,P05,D00,0,1,1
1849,39.0,-11.0,47.0,1644596146.8125,P05,D00,0,1,1
1850,39.0,-11.0,47.0,1644596146.84375,P05,D00,0,1,1
1851,39.0,-11.0,47.0,1644596146.875,P05,D00,0,1,1
1852,39.0,-11.0,47.0,1644596146.90625,P05,D00,0,1,1
1853,39.0,-11.0,46.0,1644596146.9375,P05,D00,0,1,1
1854,40.0,-11.0,47.0,1644596146.96875,P05,D00,0,1,1
1855,39.0,-11.0,47.0,1644596147.0,P05,D00,0,1,1
1856,39.0,-11.0,46.0,1644596147.03125,P05,D00,0,1,1
1857,39.0,-11.0,47.0,1644596147.0625,P05,D00,0,1,1
1858,39.0,-11.0,47.0,1644596147.09375,P05,D00,0,1,1
1859,39.0,-11.0,47.0,1644596147.125,P05,D00,0,1,1
1860,39.0,-11.0,47.0,1644596147.15625,P05,D00,0,1,1
1861,39.0,-11.0,47.0,1644596147.1875,P05,D00,0,1,1
1862,39.0,-11.0,47.0,1644596147.21875,P05,D00,0,1,1
1863,39.0,-11.0,47.0,1644596147.25,P05,D00,0,1,1
1864,39.0,-11.0,47.0,1644596147.28125,P05,D00,0,1,1
1865,39.0,-11.0,47.0,1644596147.3125,P05,D00,0,1,1
1866,39.0,-11.0,47.0,1644596147.34375,P05,D00,0,1,1
1867,39.0,-11.0,47.0,1644596147.375,P05,D00,0,1,1
1868,40.0,-11.0,47.0,1644596147.40625,P05,D00,0,1,1
1869,39.0,-11.0,47.0,1644596147.4375,P05,D00,0,1,1
1870,39.0,-11.0,47.0,1644596147.46875,P05,D00,0,1,1
1871,39.0,-11.0,47.0,1644596147.5,P05,D00,0,1,1
1872,39.0,-11.0,47.0,1644596147.53125,P05,D00,0,1,1
1873,39.0,-11.0,47.0,1644596147.5625,P05,D00,0,1,1
1874,39.0,-11.0,47.0,1644596147.59375,P05,D00,0,1,1
1875,39.0,-11.0,47.0,1644596147.625,P05,D00,0,1,1
1876,39.0,-11.0,47.0,1644596147.65625,P05,D00,0,1,1
1877,39.0,-11.0,47.0,1644596147.6875,P05,D00,0,1,1
1878,39.0,-11.0,47.0,1644596147.71875,P05,D00,0,1,1
1879,39.0,-11.0,47.0,1644596147.75,P05,D00,0,1,1
1880,39.0,-11.0,47.0,1644596147.78125,P05,D00,0,1,1
1881,39.0,-11.0,47.0,1644596147.8125,P05,D00,0,1,1
1882,39.0,-11.0,47.0,1644596147.84375,P05,D00,0,1,1
1883,39.0,-11.0,47.0,1644596147.875,P05,D00,0,1,1
1884,39.0,-11.0,47.0,1644596147.90625,P05,D00,0,1,1
1885,39.0,-11.0,47.0,1644596147.9375,P05,D00,0,1,1
1886,39.0,-11.0,47.0,1644596147.96875,P05,D00,0,1,1
1887,39.0,-11.0,47.0,1644596148.0,P05,D00,0,1,1
1888,39.0,-11.0,47.0,1644596148.03125,P05,D00,0,1,1
1889,39.0,-11.0,47.0,1644596148.0625,P05,D00,0,1,1
1890,39.0,-11.0,47.0,1644596148.09375,P05,D00,0,1,1
1891,39.0,-11.0,47.0,1644596148.125,P05,D00,0,1,1
1892,39.0,-11.0,47.0,1644596148.15625,P05,D00,0,1,1
1893,39.0,-11.0,47.0,1644596148.1875,P05,D00,0,1,1
1894,39.0,-11.0,47.0,1644596148.21875,P05,D00,0,1,1
1895,39.0,-11.0,47.0,1644596148.25,P05,D00,0,1,1
1896,39.0,-11.0,47.0,1644596148.28125,P05,D00,0,1,1
1897,39.0,-11.0,47.0,1644596148.3125,P05,D00,0,1,1
1898,39.0,-11.0,47.0,1644596148.34375,P05,D00,0,1,1
1899,39.0,-11.0,47.0,1644596148.375,P05,D00,0,1,1
1900,39.0,-11.0,47.0,1644596148.40625,P05,D00,0,1,1
1901,39.0,-11.0,47.0,1644596148.4375,P05,D00,0,1,1
1902,39.0,-11.0,47.0,1644596148.46875,P05,D00,0,1,1
1903,39.0,-11.0,47.0,1644596148.5,P05,D00,0,1,1
1904,39.0,-11.0,47.0,1644596148.53125,P05,D00,0,1,1
1905,39.0,-11.0,47.0,1644596148.5625,P05,D00,0,1,1
1906,39.0,-11.0,47.0,1644596148.59375,P05,D00,0,1,1
1907,39.0,-11.0,47.0,1644596148.625,P05,D00,0,1,1
1908,39.0,-11.0,47.0,1644596148.65625,P05,D00,0,1,1
1909,39.0,-11.0,47.0,1644596148.6875,P05,D00,0,1,1
1910,39.0,-11.0,47.0,1644596148.71875,P05,D00,0,1,1
1911,39.0,-11.0,47.0,1644596148.75,P05,D00,0,1,1
1912,39.0,-11.0,47.0,1644596148.78125,P05,D00,0,1,1
1913,39.0,-11.0,47.0,1644596148.8125,P05,D00,0,1,1
1914,39.0,-11.0,47.0,1644596148.84375,P05,D00,0,1,1
1915,39.0,-11.0,47.0,1644596148.875,P05,D00,0,1,1
1916,39.0,-11.0,47.0,1644596148.90625,P05,D00,0,1,1
1917,39.0,-11.0,47.0,1644596148.9375,P05,D00,0,1,1
1918,39.0,-11.0,47.0,1644596148.96875,P05,D00,0,1,1
1919,39.0,-11.0,47.0,1644596149.0,P05,D00,0,1,1
1920,39.0,-11.0,47.0,1644596149.03125,P05,D00,0,1,1
1921,39.0,-11.0,47.0,1644596149.0625,P05,D00,0,1,1
1922,39.0,-11.0,47.0,1644596149.09375,P05,D00,0,1,1
1923,39.0,-11.0,47.0,1644596149.125,P05,D00,0,1,1
1924,39.0,-11.0,47.0,1644596149.15625,P05,D00,0,1,1
1925,39.0,-11.0,47.0,1644596149.1875,P05,D00,0,1,1
1926,39.0,-11.0,47.0,1644596149.21875,P05,D00,0,1,1
1927,39.0,-11.0,47.0,1644596149.25,P05,D00,0,1,1
1928,39.0,-11.0,47.0,1644596149.28125,P05,D00,0,1,1
1929,39.0,-11.0,47.0,1644596149.3125,P05,D00,0,1,1
1930,39.0,-11.0,47.0,1644596149.34375,P05,D00,0,1,1
1931,39.0,-11.0,47.0,1644596149.375,P05,D00,0,1,1
1932,39.0,-11.0,47.0,1644596149.40625,P05,D00,0,1,1
1933,40.0,-11.0,47.0,1644596149.4375,P05,D00,0,1,1
1934,39.0,-11.0,47.0,1644596149.46875,P05,D00,0,1,1
1935,39.0,-11.0,47.0,1644596149.5,P05,D00,0,1,1
1936,39.0,-11.0,47.0,1644596149.53125,P05,D00,0,1,1
1937,39.0,-11.0,47.0,1644596149.5625,P05,D00,0,1,1
1938,39.0,-11.0,46.0,1644596149.59375,P05,D00,0,1,1
1939,39.0,-10.0,46.0,1644596149.625,P05,D00,0,1,1
1940,40.0,-10.0,47.0,1644596149.65625,P05,D00,0,1,1
1941,40.0,-10.0,47.0,1644596149.6875,P05,D00,0,1,1
1942,39.0,-11.0,47.0,1644596149.71875,P05,D00,0,1,1
1943,39.0,-11.0,47.0,1644596149.75,P05,D00,0,1,1
1944,39.0,-11.0,46.0,1644596149.78125,P05,D00,0,1,1
1945,40.0,-11.0,47.0,1644596149.8125,P05,D00,0,1,1
1946,39.0,-11.0,47.0,1644596149.84375,P05,D00,0,1,1
1947,40.0,-11.0,46.0,1644596149.875,P05,D00,0,1,1
1948,40.0,-11.0,46.0,1644596149.90625,P05,D00,0,1,1
1949,40.0,-11.0,46.0,1644596149.9375,P05,D00,0,1,1
1950,40.0,-11.0,46.0,1644596149.96875,P05,D00,0,1,1
1951,39.0,-11.0,47.0,1644596150.0,P05,D00,0,1,1
1952,40.0,-11.0,47.0,1644596150.03125,P05,D00,0,1,1
1953,40.0,-11.0,47.0,1644596150.0625,P05,D00,0,1,1
1954,39.0,-11.0,47.0,1644596150.09375,P05,D00,0,1,1
1955,40.0,-11.0,46.0,1644596150.125,P05,D00,0,1,1
1956,39.0,-11.0,46.0,1644596150.15625,P05,D00,0,1,1
1957,40.0,-11.0,47.0,1644596150.1875,P05,D00,0,1,1
1958,40.0,-11.0,46.0,1644596150.21875,P05,D00,0,1,1
1959,40.0,-11.0,47.0,1644596150.25,P05,D00,0,1,1
1960,39.0,-11.0,46.0,1644596150.28125,P05,D00,0,1,1
1961,40.0,-11.0,47.0,1644596150.3125,P05,D00,0,1,1
1962,40.0,-11.0,46.0,1644596150.34375,P05,D00,0,1,1
1963,40.0,-11.0,46.0,1644596150.375,P05,D00,0,1,1
1964,40.0,-11.0,47.0,1644596150.40625,P05,D00,0,1,1
1965,40.0,-11.0,47.0,1644596150.4375,P05,D00,0,1,1
1966,40.0,-11.0,46.0,1644596150.46875,P05,D00,0,1,1
1967,40.0,-11.0,47.0,1644596150.5,P05,D00,0,1,1
1968,40.0,-11.0,47.0,1644596150.53125,P05,D00,0,1,1
1969,39.0,-11.0,46.0,1644596150.5625,P05,D00,0,1,1
1970,40.0,-11.0,47.0,1644596150.59375,P05,D00,0,1,1
1971,40.0,-11.0,47.0,1644596150.625,P05,D00,0,1,1
1972,39.0,-11.0,47.0,1644596150.65625,P05,D00,0,1,1
1973,39.0,-11.0,46.0,1644596150.6875,P05,D00,0,1,1
1974,39.0,-11.0,46.0,1644596150.71875,P05,D00,0,1,1
1975,40.0,-11.0,47.0,1644596150.75,P05,D00,0,1,1
1976,40.0,-11.0,47.0,1644596150.78125,P05,D00,0,1,1
1977,39.0,-11.0,47.0,1644596150.8125,P05,D00,0,1,1
1978,39.0,-11.0,47.0,1644596150.84375,P05,D00,0,1,1
1979,40.0,-11.0,47.0,1644596150.875,P05,D00,0,1,1
1980,39.0,-11.0,46.0,1644596150.90625,P05,D00,0,1,1
1981,39.0,-11.0,46.0,1644596150.9375,P05,D00,0,1,1
1982,39.0,-11.0,47.0,1644596150.96875,P05,D00,0,1,1
1983,40.0,-11.0,46.0,1644596151.0,P05,D00,0,1,1
1984,40.0,-11.0,47.0,1644596151.03125,P05,D00,0,1,1
1985,39.0,-11.0,46.0,1644596151.0625,P05,D00,0,1,1
1986,39.0,-11.0,47.0,1644596151.09375,P05,D00,0,1,1
1987,40.0,-11.0,46.0,1644596151.125,P05,D00,0,1,1
1988,39.0,-11.0,46.0,1644596151.15625,P05,D00,0,1,1
1989,40.0,-11.0,47.0,1644596151.1875,P05,D00,0,1,1
1990,40.0,-11.0,47.0,1644596151.21875,P05,D00,0,1,1
1991,40.0,-11.0,46.0,1644596151.25,P05,D00,0,1,1
1992,39.0,-11.0,47.0,1644596151.28125,P05,D00,0,1,1
1993,40.0,-11.0,46.0,1644596151.3125,P05,D00,0,1,1
1994,40.0,-11.0,46.0,1644596151.34375,P05,D00,0,1,1
1995,39.0,-11.0,47.0,1644596151.375,P05,D00,0,1,1
1996,39.0,-11.0,47.0,1644596151.40625,P05,D00,0,1,1
1997,39.0,-11.0,47.0,1644596151.4375,P05,D00,0,1,1
1998,40.0,-11.0,47.0,1644596151.46875,P05,D00,0,1,1
1999,39.0,-11.0,47.0,1644596151.5,P05,D00,0,1,1
2000,39.0,-11.0,46.0,1644596151.53125,P05,D00,0,1,1
2001,40.0,-11.0,47.0,1644596151.5625,P05,D00,0,1,1
2002,40.0,-11.0,47.0,1644596151.59375,P05,D00,0,1,1
2003,39.0,-11.0,47.0,1644596151.625,P05,D00,0,1,1
2004,39.0,-11.0,46.0,1644596151.65625,P05,D00,0,1,1
2005,39.0,-11.0,47.0,1644596151.6875,P05,D00,0,1,1
2006,39.0,-11.0,46.0,1644596151.71875,P05,D00,0,1,1
2007,40.0,-11.0,47.0,1644596151.75,P05,D00,0,1,1
2008,40.0,-11.0,47.0,1644596151.78125,P05,D00,0,1,1
2009,39.0,-11.0,47.0,1644596151.8125,P05,D00,0,1,1
2010,39.0,-11.0,47.0,1644596151.84375,P05,D00,0,1,1
2011,39.0,-11.0,47.0,1644596151.875,P05,D00,0,1,1
2012,39.0,-11.0,47.0,1644596151.90625,P05,D00,0,1,1
2013,39.0,-11.0,46.0,1644596151.9375,P05,D00,0,1,1
2014,39.0,-11.0,46.0,1644596151.96875,P05,D00,0,1,1
2015,39.0,-11.0,47.0,1644596152.0,P05,D00,0,1,1
2016,39.0,-10.0,47.0,1644596152.03125,P05,D00,0,1,1
2017,39.0,-11.0,47.0,1644596152.0625,P05,D00,0,1,1
2018,39.0,-11.0,47.0,1644596152.09375,P05,D00,0,1,1
2019,39.0,-11.0,47.0,1644596152.125,P05,D00,0,1,1
2020,39.0,-11.0,47.0,1644596152.15625,P05,D00,0,1,1
2021,39.0,-11.0,47.0,1644596152.1875,P05,D00,0,1,1
2022,39.0,-11.0,47.0,1644596152.21875,P05,D00,0,1,1
2023,39.0,-10.0,47.0,1644596152.25,P05,D00,0,1,1
2024,39.0,-11.0,47.0,1644596152.28125,P05,D00,0,1,1
2025,39.0,-11.0,47.0,1644596152.3125,P05,D00,0,1,1
2026,39.0,-11.0,46.0,1644596152.34375,P05,D00,0,1,1
2027,39.0,-11.0,47.0,1644596152.375,P05,D00,0,1,1
2028,40.0,-11.0,46.0,1644596152.40625,P05,D00,0,1,1
2029,39.0,-11.0,47.0,1644596152.4375,P05,D00,0,1,1
2030,39.0,-11.0,46.0,1644596152.46875,P05,D00,0,1,1
2031,39.0,-11.0,46.0,1644596152.5,P05,D00,0,1,1
2032,39.0,-11.0,47.0,1644596152.53125,P05,D00,0,1,1
2033,39.0,-11.0,47.0,1644596152.5625,P05,D00,0,1,1
2034,40.0,-10.0,47.0,1644596152.59375,P05,D00,0,1,1
2035,39.0,-11.0,47.0,1644596152.625,P05,D00,0,1,1
2036,39.0,-11.0,47.0,1644596152.65625,P05,D00,0,1,1
2037,39.0,-10.0,47.0,1644596152.6875,P05,D00,0,1,1
2038,39.0,-11.0,47.0,1644596152.71875,P05,D00,0,1,1
2039,40.0,-11.0,47.0,1644596152.75,P05,D00,0,1,1
2040,40.0,-11.0,47.0,1644596152.78125,P05,D00,0,1,1
2041,39.0,-11.0,46.0,1644596152.8125,P05,D00,0,1,1
2042,39.0,-11.0,47.0,1644596152.84375,P05,D00,0,1,1
2043,39.0,-11.0,47.0,1644596152.875,P05,D00,0,1,1
2044,39.0,-11.0,47.0,1644596152.90625,P05,D00,0,1,1
2045,40.0,-11.0,47.0,1644596152.9375,P05,D00,0,1,1
2046,40.0,-11.0,47.0,1644596152.96875,P05,D00,0,1,1
2047,39.0,-11.0,47.0,1644596153.0,P05,D00,0,1,1
2048,39.0,-10.0,46.0,1644596153.03125,P05,D00,0,1,1
2049,39.0,-11.0,47.0,1644596153.0625,P05,D00,0,1,1
2050,39.0,-11.0,47.0,1644596153.09375,P05,D00,0,1,1
2051,40.0,-11.0,47.0,1644596153.125,P05,D00,0,1,1
2052,39.0,-11.0,47.0,1644596153.15625,P05,D00,0,1,1
2053,40.0,-11.0,46.0,1644596153.1875,P05,D00,0,1,1
2054,39.0,-11.0,47.0,1644596153.21875,P05,D00,0,1,1
2055,39.0,-11.0,47.0,1644596153.25,P05,D00,0,1,1
2056,39.0,-11.0,47.0,1644596153.28125,P05,D00,0,1,1
2057,39.0,-11.0,47.0,1644596153.3125,P05,D00,0,1,1
2058,39.0,-11.0,47.0,1644596153.34375,P05,D00,0,1,1
2059,40.0,-11.0,47.0,1644596153.375,P05,D00,0,1,1
2060,39.0,-11.0,46.0,1644596153.40625,P05,D00,0,1,1
2061,39.0,-11.0,47.0,1644596153.4375,P05,D00,0,1,1
2062,39.0,-11.0,47.0,1644596153.46875,P05,D00,0,1,1
2063,39.0,-11.0,47.0,1644596153.5,P05,D00,0,1,1
2064,40.0,-11.0,46.0,1644596153.53125,P05,D00,0,1,1
2065,40.0,-11.0,47.0,1644596153.5625,P05,D00,0,1,1
2066,39.0,-11.0,47.0,1644596153.59375,P05,D00,0,1,1
2067,39.0,-11.0,46.0,1644596153.625,P05,D00,0,1,1
2068,40.0,-11.0,46.0,1644596153.65625,P05,D00,0,1,1
2069,39.0,-11.0,46.0,1644596153.6875,P05,D00,0,1,1
2070,39.0,-11.0,47.0,1644596153.71875,P05,D00,0,1,1
2071,39.0,-11.0,47.0,1644596153.75,P05,D00,0,1,1
2072,39.0,-11.0,46.0,1644596153.78125,P05,D00,0,1,1
2073,39.0,-11.0,47.0,1644596153.8125,P05,D00,0,1,1
2074,39.0,-11.0,46.0,1644596153.84375,P05,D00,0,1,1
2075,39.0,-11.0,47.0,1644596153.875,P05,D00,0,1,1
2076,40.0,-11.0,46.0,1644596153.90625,P05,D00,0,1,1
2077,40.0,-11.0,46.0,1644596153.9375,P05,D00,0,1,1
2078,40.0,-11.0,46.0,1644596153.96875,P05,D00,0,1,1
2079,40.0,-11.0,47.0,1644596154.0,P05,D00,0,1,1
2080,39.0,-11.0,46.0,1644596154.03125,P05,D00,0,1,1
2081,39.0,-11.0,47.0,1644596154.0625,P05,D00,0,1,1
2082,39.0,-11.0,47.0,1644596154.09375,P05,D00,0,1,1
2083,40.0,-11.0,47.0,1644596154.125,P05,D00,0,1,1
2084,40.0,-11.0,47.0,1644596154.15625,P05,D00,0,1,1
2085,39.0,-11.0,46.0,1644596154.1875,P05,D00,0,1,1
2086,40.0,-11.0,46.0,1644596154.21875,P05,D00,0,1,1
2087,39.0,-11.0,47.0,1644596154.25,P05,D00,0,1,1
2088,39.0,-11.0,47.0,1644596154.28125,P05,D00,0,1,1
2089,39.0,-11.0,46.0,1644596154.3125,P05,D00,0,1,1
2090,39.0,-11.0,47.0,1644596154.34375,P05,D00,0,1,1
2091,40.0,-11.0,47.0,1644596154.375,P05,D00,0,1,1
2092,39.0,-11.0,47.0,1644596154.40625,P05,D00,0,1,1
2093,39.0,-11.0,47.0,1644596154.4375,P05,D00,0,1,1
2094,39.0,-11.0,47.0,1644596154.46875,P05,D00,0,1,1
2095,40.0,-11.0,46.0,1644596154.5,P05,D00,0,1,1
2096,39.0,-11.0,47.0,1644596154.53125,P05,D00,0,1,1
2097,39.0,-11.0,47.0,1644596154.5625,P05,D00,0,1,1
2098,40.0,-10.0,46.0,1644596154.59375,P05,D00,0,1,1
2099,39.0,-11.0,47.0,1644596154.625,P05,D00,0,1,1
2100,39.0,-11.0,46.0,1644596154.65625,P05,D00,0,1,1
2101,39.0,-11.0,46.0,1644596154.6875,P05,D00,0,1,1
2102,40.0,-11.0,47.0,1644596154.71875,P05,D00,0,1,1
2103,40.0,-11.0,47.0,1644596154.75,P05,D00,0,1,1
2104,39.0,-11.0,46.0,1644596154.78125,P05,D00,0,1,1
2105,39.0,-11.0,46.0,1644596154.8125,P05,D00,0,1,1
2106,39.0,-11.0,47.0,1644596154.84375,P05,D00,0,1,1
2107,39.0,-11.0,47.0,1644596154.875,P05,D00,0,1,1
2108,40.0,-11.0,47.0,1644596154.90625,P05,D00,0,1,1
2109,39.0,-11.0,47.0,1644596154.9375,P05,D00,0,1,1
2110,40.0,-10.0,47.0,1644596154.96875,P05,D00,0,1,1
2111,39.0,-10.0,47.0,1644596155.0,P05,D00,0,1,1
2112,39.0,-11.0,47.0,1644596155.03125,P05,D00,0,1,1
2113,40.0,-11.0,47.0,1644596155.0625,P05,D00,0,1,1
2114,39.0,-11.0,47.0,1644596155.09375,P05,D00,0,1,1
2115,40.0,-11.0,47.0,1644596155.125,P05,D00,0,1,1
2116,40.0,-11.0,47.0,1644596155.15625,P05,D00,0,1,1
2117,39.0,-11.0,47.0,1644596155.1875,P05,D00,0,1,1
2118,39.0,-11.0,47.0,1644596155.21875,P05,D00,0,1,1
2119,39.0,-11.0,47.0,1644596155.25,P05,D00,0,1,1
2120,40.0,-11.0,47.0,1644596155.28125,P05,D00,0,1,1
2121,40.0,-11.0,47.0,1644596155.3125,P05,D00,0,1,1
2122,39.0,-11.0,47.0,1644596155.34375,P05,D00,0,1,1
2123,39.0,-11.0,47.0,1644596155.375,P05,D00,0,1,1
2124,39.0,-11.0,47.0,1644596155.40625,P05,D00,0,1,1
2125,40.0,-11.0,46.0,1644596155.4375,P05,D00,0,1,1
2126,39.0,-11.0,47.0,1644596155.46875,P05,D00,0,1,1
2127,39.0,-11.0,46.0,1644596155.5,P05,D00,0,1,1
2128,39.0,-11.0,47.0,1644596155.53125,P05,D00,0,1,1
2129,39.0,-11.0,47.0,1644596155.5625,P05,D00,0,1,1
2130,40.0,-10.0,47.0,1644596155.59375,P05,D00,0,1,1
2131,39.0,-11.0,47.0,1644596155.625,P05,D00,0,1,1
2132,39.0,-11.0,47.0,1644596155.65625,P05,D00,0,1,1
2133,40.0,-11.0,47.0,1644596155.6875,P05,D00,0,1,1
2134,40.0,-11.0,47.0,1644596155.71875,P05,D00,0,1,1
2135,40.0,-11.0,46.0,1644596155.75,P05,D00,0,1,1
2136,39.0,-11.0,47.0,1644596155.78125,P05,D00,0,1,1
2137,39.0,-11.0,47.0,1644596155.8125,P05,D00,0,1,1
2138,40.0,-11.0,47.0,1644596155.84375,P05,D00,0,1,1
2139,39.0,-10.0,47.0,1644596155.875,P05,D00,0,1,1
2140,39.0,-11.0,47.0,1644596155.90625,P05,D00,0,1,1
2141,40.0,-11.0,47.0,1644596155.9375,P05,D00,0,1,1
2142,39.0,-11.0,47.0,1644596155.96875,P05,D00,0,1,1
2143,39.0,-11.0,47.0,1644596156.0,P05,D00,0,1,1
2144,40.0,-11.0,46.0,1644596156.03125,P05,D00,0,1,1
2145,39.0,-11.0,46.0,1644596156.0625,P05,D00,0,1,1
2146,39.0,-11.0,47.0,1644596156.09375,P05,D00,0,1,1
2147,39.0,-11.0,47.0,1644596156.125,P05,D00,0,1,1
2148,39.0,-11.0,46.0,1644596156.15625,P05,D00,0,1,1
2149,39.0,-11.0,47.0,1644596156.1875,P05,D00,0,1,1
2150,39.0,-10.0,47.0,1644596156.21875,P05,D00,0,1,1
2151,39.0,-11.0,46.0,1644596156.25,P05,D00,0,1,1
2152,40.0,-11.0,47.0,1644596156.28125,P05,D00,0,1,1
2153,40.0,-11.0,46.0,1644596156.3125,P05,D00,0,1,1
2154,39.0,-11.0,46.0,1644596156.34375,P05,D00,0,1,1
2155,39.0,-10.0,47.0,1644596156.375,P05,D00,0,1,1
2156,40.0,-11.0,46.0,1644596156.40625,P05,D00,0,1,1
2157,40.0,-11.0,47.0,1644596156.4375,P05,D00,0,1,1
2158,39.0,-11.0,46.0,1644596156.46875,P05,D00,0,1,1
2159,40.0,-11.0,46.0,1644596156.5,P05,D00,0,1,1
2160,40.0,-11.0,47.0,1644596156.53125,P05,D00,0,1,1
2161,39.0,-11.0,46.0,1644596156.5625,P05,D00,0,1,1
2162,39.0,-11.0,46.0,1644596156.59375,P05,D00,0,1,1
2163,40.0,-11.0,46.0,1644596156.625,P05,D00,0,1,1
2164,40.0,-11.0,47.0,1644596156.65625,P05,D00,0,1,1
2165,40.0,-11.0,46.0,1644596156.6875,P05,D00,0,1,1
2166,40.0,-11.0,47.0,1644596156.71875,P05,D00,0,1,1
2167,40.0,-11.0,46.0,1644596156.75,P05,D00,0,1,1
2168,40.0,-11.0,47.0,1644596156.78125,P05,D00,0,1,1
2169,39.0,-11.0,46.0,1644596156.8125,P05,D00,0,1,1
2170,39.0,-11.0,46.0,1644596156.84375,P05,D00,0,1,1
2171,39.0,-11.0,46.0,1644596156.875,P05,D00,0,1,1
2172,40.0,-10.0,46.0,1644596156.90625,P05,D00,0,1,1
2173,40.0,-11.0,46.0,1644596156.9375,P05,D00,0,1,1
2174,39.0,-11.0,47.0,1644596156.96875,P05,D00,0,1,1
2175,39.0,-11.0,46.0,1644596157.0,P05,D00,0,1,1
2176,40.0,-11.0,46.0,1644596157.03125,P05,D00,0,1,1
2177,39.0,-11.0,46.0,1644596157.0625,P05,D00,0,1,1
2178,39.0,-11.0,46.0,1644596157.09375,P05,D00,0,1,1
2179,40.0,-11.0,47.0,1644596157.125,P05,D00,0,1,1
2180,39.0,-11.0,47.0,1644596157.15625,P05,D00,0,1,1
2181,40.0,-11.0,46.0,1644596157.1875,P05,D00,0,1,1
2182,40.0,-11.0,46.0,1644596157.21875,P05,D00,0,1,1
2183,39.0,-11.0,47.0,1644596157.25,P05,D00,0,1,1
2184,40.0,-11.0,47.0,1644596157.28125,P05,D00,0,1,1
2185,39.0,-11.0,46.0,1644596157.3125,P05,D00,0,1,1
2186,39.0,-11.0,47.0,1644596157.34375,P05,D00,0,1,1
2187,40.0,-11.0,47.0,1644596157.375,P05,D00,0,1,1
2188,40.0,-11.0,47.0,1644596157.40625,P05,D00,0,1,1
2189,39.0,-11.0,47.0,1644596157.4375,P05,D00,0,1,1
2190,39.0,-11.0,47.0,1644596157.46875,P05,D00,0,1,1
2191,39.0,-11.0,47.0,1644596157.5,P05,D00,0,1,1
2192,39.0,-11.0,46.0,1644596157.53125,P05,D00,0,1,1
2193,40.0,-10.0,47.0,1644596157.5625,P05,D00,0,1,1
2194,39.0,-11.0,46.0,1644596157.59375,P05,D00,0,1,1
2195,39.0,-11.0,47.0,1644596157.625,P05,D00,0,1,1
2196,40.0,-11.0,47.0,1644596157.65625,P05,D00,0,1,1
2197,39.0,-11.0,46.0,1644596157.6875,P05,D00,0,1,1
2198,39.0,-11.0,47.0,1644596157.71875,P05,D00,0,1,1
2199,39.0,-11.0,47.0,1644596157.75,P05,D00,0,1,1
2200,39.0,-11.0,47.0,1644596157.78125,P05,D00,0,1,1
2201,39.0,-11.0,46.0,1644596157.8125,P05,D00,0,1,1
2202,39.0,-11.0,47.0,1644596157.84375,P05,D00,0,1,1
2203,39.0,-10.0,47.0,1644596157.875,P05,D00,0,1,1
2204,40.0,-10.0,47.0,1644596157.90625,P05,D00,0,1,1
2205,40.0,-10.0,47.0,1644596157.9375,P05,D00,0,1,1
2206,40.0,-10.0,47.0,1644596157.96875,P05,D00,0,1,1
2207,39.0,-11.0,47.0,1644596158.0,P05,D00,0,1,1
2208,40.0,-11.0,47.0,1644596158.03125,P05,D00,0,1,1
2209,39.0,-11.0,47.0,1644596158.0625,P05,D00,0,1,1
2210,39.0,-11.0,47.0,1644596158.09375,P05,D00,0,1,1
2211,40.0,-11.0,47.0,1644596158.125,P05,D00,0,1,1
2212,39.0,-11.0,47.0,1644596158.15625,P05,D00,0,1,1
2213,40.0,-11.0,47.0,1644596158.1875,P05,D00,0,1,1
2214,39.0,-11.0,47.0,1644596158.21875,P05,D00,0,1,1
2215,39.0,-11.0,47.0,1644596158.25,P05,D00,0,1,1
2216,40.0,-11.0,47.0,1644596158.28125,P05,D00,0,1,1
2217,40.0,-11.0,46.0,1644596158.3125,P05,D00,0,1,1
2218,39.0,-11.0,47.0,1644596158.34375,P05,D00,0,1,1
2219,39.0,-11.0,47.0,1644596158.375,P05,D00,0,1,1
2220,39.0,-10.0,47.0,1644596158.40625,P05,D00,0,1,1
2221,39.0,-11.0,47.0,1644596158.4375,P05,D00,0,1,1
2222,39.0,-11.0,46.0,1644596158.46875,P05,D00,0,1,1
2223,39.0,-11.0,47.0,1644596158.5,P05,D00,0,1,1
2224,40.0,-11.0,46.0,1644596158.53125,P05,D00,0,1,1
2225,39.0,-11.0,47.0,1644596158.5625,P05,D00,0,1,1
2226,39.0,-11.0,47.0,1644596158.59375,P05,D00,0,1,1
2227,40.0,-11.0,47.0,1644596158.625,P05,D00,0,1,1
2228,39.0,-11.0,47.0,1644596158.65625,P05,D00,0,1,1
2229,39.0,-11.0,47.0,1644596158.6875,P05,D00,0,1,1
2230,39.0,-11.0,47.0,1644596158.71875,P05,D00,0,1,1
2231,39.0,-11.0,47.0,1644596158.75,P05,D00,0,1,1
2232,39.0,-11.0,47.0,1644596158.78125,P05,D00,0,1,1
2233,39.0,-11.0,47.0,1644596158.8125,P05,D00,0,1,1
2234,39.0,-11.0,47.0,1644596158.84375,P05,D00,0,1,1
2235,39.0,-11.0,47.0,1644596158.875,P05,D00,0,1,1
2236,39.0,-11.0,47.0,1644596158.90625,P05,D00,0,1,1
2237,39.0,-11.0,47.0,1644596158.9375,P05,D00,0,1,1
2238,39.0,-11.0,47.0,1644596158.96875,P05,D00,0,1,1
2239,40.0,-11.0,47.0,1644596159.0,P05,D00,0,1,1
2240,39.0,-11.0,47.0,1644596159.03125,P05,D00,0,1,1
2241,39.0,-11.0,47.0,1644596159.0625,P05,D00,0,1,1
2242,39.0,-11.0,46.0,1644596159.09375,P05,D00,0,1,1
2243,39.0,-11.0,47.0,1644596159.125,P05,D00,0,1,1
2244,40.0,-11.0,47.0,1644596159.15625,P05,D00,0,1,1
2245,39.0,-11.0,47.0,1644596159.1875,P05,D00,0,1,1
2246,39.0,-11.0,47.0,1644596159.21875,P05,D00,0,1,1
2247,39.0,-10.0,47.0,1644596159.25,P05,D00,0,1,1
2248,39.0,-11.0,47.0,1644596159.28125,P05,D00,0,1,1
2249,39.0,-11.0,47.0,1644596159.3125,P05,D00,0,1,1
2250,39.0,-11.0,47.0,1644596159.34375,P05,D00,0,1,1
2251,40.0,-11.0,47.0,1644596159.375,P05,D00,0,1,1
2252,40.0,-11.0,47.0,1644596159.40625,P05,D00,0,1,1
2253,39.0,-11.0,46.0,1644596159.4375,P05,D00,0,1,1
2254,39.0,-11.0,47.0,1644596159.46875,P05,D00,0,1,1
2255,40.0,-11.0,47.0,1644596159.5,P05,D00,0,1,1
2256,39.0,-11.0,47.0,1644596159.53125,P05,D00,0,1,1
2257,39.0,-11.0,46.0,1644596159.5625,P05,D00,0,1,1
2258,39.0,-11.0,47.0,1644596159.59375,P05,D00,0,1,1
2259,40.0,-11.0,47.0,1644596159.625,P05,D00,0,1,1
2260,39.0,-10.0,47.0,1644596159.65625,P05,D00,0,1,1
2261,39.0,-11.0,47.0,1644596159.6875,P05,D00,0,1,1
2262,39.0,-11.0,46.0,1644596159.71875,P05,D00,0,1,1
2263,39.0,-11.0,46.0,1644596159.75,P05,D00,0,1,1
2264,40.0,-11.0,46.0,1644596159.78125,P05,D00,0,1,1
2265,39.0,-11.0,47.0,1644596159.8125,P05,D00,0,1,1
2266,40.0,-10.0,47.0,1644596159.84375,P05,D00,0,1,1
2267,39.0,-10.0,47.0,1644596159.875,P05,D00,0,1,1
2268,39.0,-11.0,47.0,1644596159.90625,P05,D00,0,1,1
2269,39.0,-11.0,46.0,1644596159.9375,P05,D00,0,1,1
2270,39.0,-11.0,47.0,1644596159.96875,P05,D00,0,1,1
2271,39.0,-11.0,47.0,1644596160.0,P05,D00,0,1,1
2272,39.0,-11.0,46.0,1644596160.03125,P05,D00,0,1,1
2273,40.0,-11.0,47.0,1644596160.0625,P05,D00,0,1,1
2274,40.0,-11.0,47.0,1644596160.09375,P05,D00,0,1,1
2275,39.0,-11.0,46.0,1644596160.125,P05,D00,0,1,1
2276,39.0,-11.0,47.0,1644596160.15625,P05,D00,0,1,1
2277,39.0,-11.0,47.0,1644596160.1875,P05,D00,0,1,1
2278,39.0,-11.0,47.0,1644596160.21875,P05,D00,0,1,1
2279,39.0,-11.0,47.0,1644596160.25,P05,D00,0,1,1
2280,39.0,-11.0,47.0,1644596160.28125,P05,D00,0,1,1
2281,39.0,-11.0,47.0,1644596160.3125,P05,D00,0,1,1
2282,39.0,-11.0,47.0,1644596160.34375,P05,D00,0,1,1
2283,39.0,-11.0,47.0,1644596160.375,P05,D00,0,1,1
2284,39.0,-11.0,47.0,1644596160.40625,P05,D00,0,1,1
2285,39.0,-11.0,47.0,1644596160.4375,P05,D00,0,1,1
2286,39.0,-11.0,47.0,1644596160.46875,P05,D00,0,1,1
2287,39.0,-11.0,47.0,1644596160.5,P05,D00,0,1,1
2288,39.0,-11.0,47.0,1644596160.53125,P05,D00,0,1,1
2289,39.0,-11.0,46.0,1644596160.5625,P05,D00,0,1,1
2290,39.0,-11.0,47.0,1644596160.59375,P05,D00,0,1,1
2291,39.0,-11.0,47.0,1644596160.625,P05,D00,0,1,1
2292,39.0,-11.0,47.0,1644596160.65625,P05,D00,0,1,1
2293,39.0,-11.0,47.0,1644596160.6875,P05,D00,0,1,1
2294,39.0,-11.0,47.0,1644596160.71875,P05,D00,0,1,1
2295,39.0,-11.0,47.0,1644596160.75,P05,D00,0,1,1
2296,39.0,-11.0,47.0,1644596160.78125,P05,D00,0,1,1
2297,40.0,-11.0,47.0,1644596160.8125,P05,D00,0,1,1
2298,39.0,-11.0,47.0,1644596160.84375,P05,D00,0,1,1
2299,40.0,-11.0,47.0,1644596160.875,P05,D00,0,1,1
2300,39.0,-11.0,47.0,1644596160.90625,P05,D00,0,1,1
2301,39.0,-11.0,47.0,1644596160.9375,P05,D00,0,1,1
2302,40.0,-11.0,47.0,1644596160.96875,P05,D00,0,1,1
2303,39.0,-11.0,47.0,1644596161.0,P05,D00,0,1,1
2304,39.0,-11.0,47.0,1644596161.03125,P05,D00,0,1,1
2305,39.0,-11.0,47.0,1644596161.0625,P05,D00,0,1,1
2306,39.0,-11.0,47.0,1644596161.09375,P05,D00,0,1,1
2307,39.0,-11.0,47.0,1644596161.125,P05,D00,0,1,1
2308,39.0,-11.0,47.0,1644596161.15625,P05,D00,0,1,1
2309,39.0,-11.0,47.0,1644596161.1875,P05,D00,0,1,1
2310,40.0,-11.0,47.0,1644596161.21875,P05,D00,0,1,1
2311,39.0,-11.0,47.0,1644596161.25,P05,D00,0,1,1
2312,39.0,-11.0,47.0,1644596161.28125,P05,D00,0,1,1
2313,39.0,-11.0,47.0,1644596161.3125,P05,D00,0,1,1
2314,39.0,-11.0,47.0,1644596161.34375,P05,D00,0,1,1
2315,39.0,-11.0,47.0,1644596161.375,P05,D00,0,1,1
2316,39.0,-11.0,47.0,1644596161.40625,P05,D00,0,1,1
2317,39.0,-11.0,47.0,1644596161.4375,P05,D00,0,1,1
2318,39.0,-11.0,47.0,1644596161.46875,P05,D00,0,1,1
2319,39.0,-10.0,47.0,1644596161.5,P05,D00,0,1,1
2320,39.0,-11.0,47.0,1644596161.53125,P05,D00,0,1,1
2321,39.0,-11.0,47.0,1644596161.5625,P05,D00,0,1,1
2322,39.0,-11.0,47.0,1644596161.59375,P05,D00,0,1,1
2323,39.0,-11.0,47.0,1644596161.625,P05,D00,0,1,1
2324,39.0,-11.0,47.0,1644596161.65625,P05,D00,0,1,1
2325,39.0,-11.0,47.0,1644596161.6875,P05,D00,0,1,1
2326,39.0,-11.0,47.0,1644596161.71875,P05,D00,0,1,1
2327,39.0,-11.0,47.0,1644596161.75,P05,D00,0,1,1
2328,39.0,-11.0,47.0,1644596161.78125,P05,D00,0,1,1
2329,39.0,-11.0,47.0,1644596161.8125,P05,D00,0,1,1
2330,39.0,-11.0,47.0,1644596161.84375,P05,D00,0,1,1
2331,40.0,-11.0,47.0,1644596161.875,P05,D00,0,1,1
2332,39.0,-11.0,47.0,1644596161.90625,P05,D00,0,1,1
2333,39.0,-11.0,47.0,1644596161.9375,P05,D00,0,1,1
2334,39.0,-11.0,47.0,1644596161.96875,P05,D00,0,1,1
2335,39.0,-11.0,47.0,1644596162.0,P05,D00,0,1,1
2336,40.0,-11.0,47.0,1644596162.03125,P05,D00,0,1,1
2337,39.0,-11.0,47.0,1644596162.0625,P05,D00,0,1,1
2338,39.0,-10.0,47.0,1644596162.09375,P05,D00,0,1,1
2339,39.0,-10.0,47.0,1644596162.125,P05,D00,0,1,1
2340,39.0,-11.0,47.0,1644596162.15625,P05,D00,0,1,1
2341,40.0,-11.0,47.0,1644596162.1875,P05,D00,0,1,1
2342,39.0,-11.0,46.0,1644596162.21875,P05,D00,0,1,1
2343,39.0,-11.0,47.0,1644596162.25,P05,D00,0,1,1
2344,39.0,-11.0,47.0,1644596162.28125,P05,D00,0,1,1
2345,39.0,-11.0,47.0,1644596162.3125,P05,D00,0,1,1
2346,39.0,-11.0,47.0,1644596162.34375,P05,D00,0,1,1
2347,39.0,-11.0,47.0,1644596162.375,P05,D00,0,1,1
2348,39.0,-11.0,47.0,1644596162.40625,P05,D00,0,1,1
2349,40.0,-11.0,47.0,1644596162.4375,P05,D00,0,1,1
2350,40.0,-11.0,46.0,1644596162.46875,P05,D00,0,1,1
2351,39.0,-11.0,47.0,1644596162.5,P05,D00,0,1,1
2352,39.0,-11.0,47.0,1644596162.53125,P05,D00,0,1,1
2353,39.0,-11.0,47.0,1644596162.5625,P05,D00,0,1,1
2354,39.0,-11.0,47.0,1644596162.59375,P05,D00,0,1,1
2355,39.0,-11.0,47.0,1644596162.625,P05,D00,0,1,1
2356,39.0,-11.0,47.0,1644596162.65625,P05,D00,0,1,1
2357,39.0,-11.0,47.0,1644596162.6875,P05,D00,0,1,1
2358,39.0,-11.0,47.0,1644596162.71875,P05,D00,0,1,1
2359,39.0,-11.0,46.0,1644596162.75,P05,D00,0,1,1
2360,39.0,-11.0,46.0,1644596162.78125,P05,D00,0,1,1
2361,39.0,-11.0,47.0,1644596162.8125,P05,D00,0,1,1
2362,40.0,-11.0,47.0,1644596162.84375,P05,D00,0,1,1
2363,39.0,-11.0,47.0,1644596162.875,P05,D00,0,1,1
2364,40.0,-11.0,47.0,1644596162.90625,P05,D00,0,1,1
2365,39.0,-11.0,47.0,1644596162.9375,P05,D00,0,1,1
2366,39.0,-11.0,47.0,1644596162.96875,P05,D00,0,1,1
2367,39.0,-11.0,46.0,1644596163.0,P05,D00,0,1,1
2368,39.0,-11.0,46.0,1644596163.03125,P05,D00,0,1,1
2369,40.0,-11.0,47.0,1644596163.0625,P05,D00,0,1,1
