,acc_x,acc_y,acc_z,timestamp,participant,document,val,arou,eng
0,-26.0,-2.0,58.0,1645193439.5625,P16,D10,1,1,1
1,-25.0,-2.0,58.0,1645193439.59375,P16,D10,1,1,1
2,-25.0,-2.0,58.0,1645193439.625,P16,D10,1,1,1
3,-25.0,-1.0,58.0,1645193439.65625,P16,D10,1,1,1
4,-26.0,-2.0,58.0,1645193439.6875,P16,D10,1,1,1
5,-25.0,-2.0,58.0,1645193439.71875,P16,D10,1,1,1
6,-25.0,-2.0,58.0,1645193439.75,P16,D10,1,1,1
7,-25.0,-2.0,58.0,1645193439.78125,P16,D10,1,1,1
8,-25.0,-2.0,58.0,1645193439.8125,P16,D10,1,1,1
9,-26.0,-2.0,57.0,1645193439.84375,P16,D10,1,1,1
10,-26.0,-3.0,57.0,1645193439.875,P16,D10,1,1,1
11,-26.0,-2.0,58.0,1645193439.90625,P16,D10,1,1,1
12,-26.0,-2.0,57.0,1645193439.9375,P16,D10,1,1,1
13,-26.0,-3.0,58.0,1645193439.96875,P16,D10,1,1,1
14,-26.0,-2.0,58.0,1645193440.0,P16,D10,1,1,1
15,-26.0,-2.0,57.0,1645193440.03125,P16,D10,1,1,1
16,-26.0,-3.0,58.0,1645193440.0625,P16,D10,1,1,1
17,-26.0,-2.0,57.0,1645193440.09375,P16,D10,1,1,1
18,-26.0,-3.0,57.0,1645193440.125,P16,D10,1,1,1
19,-26.0,-3.0,58.0,1645193440.15625,P16,D10,1,1,1
20,-26.0,-3.0,57.0,1645193440.1875,P16,D10,1,1,1
21,-28.0,-3.0,57.0,1645193440.21875,P16,D10,1,1,1
22,-26.0,-3.0,57.0,1645193440.25,P16,D10,1,1,1
23,-26.0,-3.0,57.0,1645193440.28125,P16,D10,1,1,1
24,-27.0,-3.0,57.0,1645193440.3125,P16,D10,1,1,1
25,-27.0,-3.0,57.0,1645193440.34375,P16,D10,1,1,1
26,-27.0,-3.0,57.0,1645193440.375,P16,D10,1,1,1
27,-27.0,-3.0,57.0,1645193440.40625,P16,D10,1,1,1
28,-26.0,-3.0,57.0,1645193440.4375,P16,D10,1,1,1
29,-26.0,-3.0,57.0,1645193440.46875,P16,D10,1,1,1
30,-27.0,-3.0,57.0,1645193440.5,P16,D10,1,1,1
31,-27.0,-3.0,57.0,1645193440.53125,P16,D10,1,1,1
32,-26.0,-3.0,57.0,1645193440.5625,P16,D10,1,1,1
33,-27.0,-3.0,57.0,1645193440.59375,P16,D10,1,1,1
34,-27.0,-3.0,57.0,1645193440.625,P16,D10,1,1,1
35,-27.0,-3.0,57.0,1645193440.65625,P16,D10,1,1,1
36,-27.0,-3.0,57.0,1645193440.6875,P16,D10,1,1,1
37,-26.0,-3.0,57.0,1645193440.71875,P16,D10,1,1,1
38,-27.0,-3.0,57.0,1645193440.75,P16,D10,1,1,1
39,-27.0,-3.0,57.0,1645193440.78125,P16,D10,1,1,1
40,-27.0,-3.0,57.0,1645193440.8125,P16,D10,1,1,1
41,-27.0,-3.0,57.0,1645193440.84375,P16,D10,1,1,1
42,-27.0,-3.0,57.0,1645193440.875,P16,D10,1,1,1
43,-27.0,-3.0,57.0,1645193440.90625,P16,D10,1,1,1
44,-27.0,-3.0,57.0,1645193440.9375,P16,D10,1,1,1
45,-26.0,-3.0,57.0,1645193440.96875,P16,D10,1,1,1
46,-27.0,-3.0,57.0,1645193441.0,P16,D10,1,1,1
47,-27.0,-3.0,57.0,1645193441.03125,P16,D10,1,1,1
48,-27.0,-3.0,57.0,1645193441.0625,P16,D10,1,1,1
49,-27.0,-3.0,57.0,1645193441.09375,P16,D10,1,1,1
50,-28.0,-3.0,57.0,1645193441.125,P16,D10,1,1,1
51,-27.0,-3.0,57.0,1645193441.15625,P16,D10,1,1,1
52,-27.0,-3.0,57.0,1645193441.1875,P16,D10,1,1,1
53,-27.0,-4.0,57.0,1645193441.21875,P16,D10,1,1,1
54,-27.0,-4.0,57.0,1645193441.25,P16,D10,1,1,1
55,-28.0,-3.0,57.0,1645193441.28125,P16,D10,1,1,1
56,-27.0,-4.0,57.0,1645193441.3125,P16,D10,1,1,1
57,-27.0,-4.0,57.0,1645193441.34375,P16,D10,1,1,1
58,-28.0,-4.0,57.0,1645193441.375,P16,D10,1,1,1
59,-28.0,-4.0,57.0,1645193441.40625,P16,D10,1,1,1
60,-27.0,-4.0,57.0,1645193441.4375,P16,D10,1,1,1
61,-27.0,-3.0,57.0,1645193441.46875,P16,D10,1,1,1
62,-28.0,-4.0,57.0,1645193441.5,P16,D10,1,1,1
63,-28.0,-4.0,57.0,1645193441.53125,P16,D10,1,1,1
64,-27.0,-4.0,57.0,1645193441.5625,P16,D10,1,1,1
65,-27.0,-4.0,57.0,1645193441.59375,P16,D10,1,1,1
66,-28.0,-4.0,57.0,1645193441.625,P16,D10,1,1,1
67,-28.0,-4.0,57.0,1645193441.65625,P16,D10,1,1,1
68,-28.0,-4.0,57.0,1645193441.6875,P16,D10,1,1,1
69,-28.0,-4.0,57.0,1645193441.71875,P16,D10,1,1,1
70,-28.0,-4.0,57.0,1645193441.75,P16,D10,1,1,1
71,-27.0,-4.0,57.0,1645193441.78125,P16,D10,1,1,1
72,-28.0,-4.0,57.0,1645193441.8125,P16,D10,1,1,1
73,-28.0,-4.0,56.0,1645193441.84375,P16,D10,1,1,1
74,-28.0,-4.0,56.0,1645193441.875,P16,D10,1,1,1
75,-28.0,-5.0,56.0,1645193441.90625,P16,D10,1,1,1
76,-27.0,-5.0,57.0,1645193441.9375,P16,D10,1,1,1
77,-27.0,-5.0,57.0,1645193441.96875,P16,D10,1,1,1
78,-28.0,-5.0,56.0,1645193442.0,P16,D10,1,1,1
79,-28.0,-5.0,56.0,1645193442.03125,P16,D10,1,1,1
80,-28.0,-5.0,57.0,1645193442.0625,P16,D10,1,1,1
81,-28.0,-5.0,57.0,1645193442.09375,P16,D10,1,1,1
82,-29.0,-5.0,56.0,1645193442.125,P16,D10,1,1,1
83,-29.0,-5.0,56.0,1645193442.15625,P16,D10,1,1,1
84,-28.0,-5.0,56.0,1645193442.1875,P16,D10,1,1,1
85,-28.0,-5.0,56.0,1645193442.21875,P16,D10,1,1,1
86,-27.0,-4.0,57.0,1645193442.25,P16,D10,1,1,1
87,-28.0,-4.0,56.0,1645193442.28125,P16,D10,1,1,1
88,-29.0,-5.0,56.0,1645193442.3125,P16,D10,1,1,1
89,-28.0,-5.0,56.0,1645193442.34375,P16,D10,1,1,1
90,-29.0,-5.0,56.0,1645193442.375,P16,D10,1,1,1
91,-29.0,-5.0,56.0,1645193442.40625,P16,D10,1,1,1
92,-28.0,-5.0,57.0,1645193442.4375,P16,D10,1,1,1
93,-27.0,-5.0,57.0,1645193442.46875,P16,D10,1,1,1
94,-28.0,-5.0,56.0,1645193442.5,P16,D10,1,1,1
95,-28.0,-5.0,56.0,1645193442.53125,P16,D10,1,1,1
96,-27.0,-5.0,57.0,1645193442.5625,P16,D10,1,1,1
97,-28.0,-5.0,56.0,1645193442.59375,P16,D10,1,1,1
98,-28.0,-5.0,57.0,1645193442.625,P16,D10,1,1,1
99,-28.0,-6.0,56.0,1645193442.65625,P16,D10,1,1,1
100,-28.0,-7.0,57.0,1645193442.6875,P16,D10,1,1,1
101,-29.0,-7.0,56.0,1645193442.71875,P16,D10,1,1,1
102,-29.0,-6.0,55.0,1645193442.75,P16,D10,1,1,1
103,-29.0,-5.0,56.0,1645193442.78125,P16,D10,1,1,1
104,-28.0,-6.0,56.0,1645193442.8125,P16,D10,1,1,1
105,-28.0,-6.0,56.0,1645193442.84375,P16,D10,1,1,1
106,-30.0,-8.0,55.0,1645193442.875,P16,D10,1,1,1
107,-30.0,-8.0,56.0,1645193442.90625,P16,D10,1,1,1
108,-29.0,-8.0,56.0,1645193442.9375,P16,D10,1,1,1
109,-29.0,-8.0,55.0,1645193442.96875,P16,D10,1,1,1
110,-29.0,-7.0,55.0,1645193443.0,P16,D10,1,1,1
111,-29.0,-7.0,55.0,1645193443.03125,P16,D10,1,1,1
112,-30.0,-8.0,55.0,1645193443.0625,P16,D10,1,1,1
113,-31.0,-8.0,55.0,1645193443.09375,P16,D10,1,1,1
114,-31.0,-9.0,55.0,1645193443.125,P16,D10,1,1,1
115,-31.0,-9.0,55.0,1645193443.15625,P16,D10,1,1,1
116,-31.0,-9.0,55.0,1645193443.1875,P16,D10,1,1,1
117,-30.0,-8.0,55.0,1645193443.21875,P16,D10,1,1,1
118,-30.0,-8.0,55.0,1645193443.25,P16,D10,1,1,1
119,-30.0,-8.0,55.0,1645193443.28125,P16,D10,1,1,1
120,-30.0,-7.0,55.0,1645193443.3125,P16,D10,1,1,1
121,-31.0,-7.0,55.0,1645193443.34375,P16,D10,1,1,1
122,-30.0,-7.0,55.0,1645193443.375,P16,D10,1,1,1
123,-31.0,-7.0,55.0,1645193443.40625,P16,D10,1,1,1
124,-31.0,-7.0,55.0,1645193443.4375,P16,D10,1,1,1
125,-30.0,-6.0,55.0,1645193443.46875,P16,D10,1,1,1
126,-30.0,-5.0,55.0,1645193443.5,P16,D10,1,1,1
127,-30.0,-6.0,55.0,1645193443.53125,P16,D10,1,1,1
128,-30.0,-7.0,55.0,1645193443.5625,P16,D10,1,1,1
129,-30.0,-7.0,55.0,1645193443.59375,P16,D10,1,1,1
130,-30.0,-6.0,55.0,1645193443.625,P16,D10,1,1,1
131,-30.0,-6.0,55.0,1645193443.65625,P16,D10,1,1,1
132,-30.0,-7.0,55.0,1645193443.6875,P16,D10,1,1,1
133,-30.0,-7.0,55.0,1645193443.71875,P16,D10,1,1,1
134,-30.0,-8.0,55.0,1645193443.75,P16,D10,1,1,1
135,-31.0,-8.0,55.0,1645193443.78125,P16,D10,1,1,1
136,-31.0,-8.0,55.0,1645193443.8125,P16,D10,1,1,1
137,-31.0,-9.0,55.0,1645193443.84375,P16,D10,1,1,1
138,-30.0,-8.0,55.0,1645193443.875,P16,D10,1,1,1
139,-30.0,-8.0,55.0,1645193443.90625,P16,D10,1,1,1
140,-30.0,-8.0,55.0,1645193443.9375,P16,D10,1,1,1
141,-30.0,-7.0,55.0,1645193443.96875,P16,D10,1,1,1
142,-30.0,-7.0,54.0,1645193444.0,P16,D10,1,1,1
143,-30.0,-8.0,55.0,1645193444.03125,P16,D10,1,1,1
144,-30.0,-8.0,55.0,1645193444.0625,P16,D10,1,1,1
145,-30.0,-8.0,55.0,1645193444.09375,P16,D10,1,1,1
146,-30.0,-8.0,55.0,1645193444.125,P16,D10,1,1,1
147,-30.0,-8.0,55.0,1645193444.15625,P16,D10,1,1,1
148,-30.0,-8.0,55.0,1645193444.1875,P16,D10,1,1,1
149,-30.0,-8.0,55.0,1645193444.21875,P16,D10,1,1,1
150,-30.0,-9.0,55.0,1645193444.25,P16,D10,1,1,1
151,-30.0,-9.0,55.0,1645193444.28125,P16,D10,1,1,1
152,-31.0,-9.0,55.0,1645193444.3125,P16,D10,1,1,1
153,-31.0,-9.0,54.0,1645193444.34375,P16,D10,1,1,1
154,-29.0,-9.0,55.0,1645193444.375,P16,D10,1,1,1
155,-30.0,-8.0,55.0,1645193444.40625,P16,D10,1,1,1
156,-31.0,-9.0,54.0,1645193444.4375,P16,D10,1,1,1
157,-30.0,-9.0,54.0,1645193444.46875,P16,D10,1,1,1
158,-30.0,-9.0,55.0,1645193444.5,P16,D10,1,1,1
159,-30.0,-9.0,55.0,1645193444.53125,P16,D10,1,1,1
160,-31.0,-9.0,54.0,1645193444.5625,P16,D10,1,1,1
161,-30.0,-9.0,55.0,1645193444.59375,P16,D10,1,1,1
162,-30.0,-9.0,55.0,1645193444.625,P16,D10,1,1,1
163,-31.0,-9.0,55.0,1645193444.65625,P16,D10,1,1,1
164,-31.0,-9.0,54.0,1645193444.6875,P16,D10,1,1,1
165,-30.0,-9.0,55.0,1645193444.71875,P16,D10,1,1,1
166,-30.0,-9.0,55.0,1645193444.75,P16,D10,1,1,1
167,-30.0,-9.0,54.0,1645193444.78125,P16,D10,1,1,1
168,-30.0,-9.0,55.0,1645193444.8125,P16,D10,1,1,1
169,-31.0,-9.0,54.0,1645193444.84375,P16,D10,1,1,1
170,-30.0,-9.0,55.0,1645193444.875,P16,D10,1,1,1
171,-30.0,-9.0,54.0,1645193444.90625,P16,D10,1,1,1
172,-31.0,-9.0,54.0,1645193444.9375,P16,D10,1,1,1
173,-31.0,-9.0,55.0,1645193444.96875,P16,D10,1,1,1
174,-30.0,-9.0,55.0,1645193445.0,P16,D10,1,1,1
175,-30.0,-9.0,55.0,1645193445.03125,P16,D10,1,1,1
176,-31.0,-9.0,55.0,1645193445.0625,P16,D10,1,1,1
177,-31.0,-9.0,54.0,1645193445.09375,P16,D10,1,1,1
178,-31.0,-8.0,55.0,1645193445.125,P16,D10,1,1,1
179,-29.0,-8.0,55.0,1645193445.15625,P16,D10,1,1,1
180,-29.0,-8.0,55.0,1645193445.1875,P16,D10,1,1,1
181,-31.0,-8.0,54.0,1645193445.21875,P16,D10,1,1,1
182,-31.0,-8.0,55.0,1645193445.25,P16,D10,1,1,1
183,-30.0,-8.0,55.0,1645193445.28125,P16,D10,1,1,1
184,-30.0,-8.0,55.0,1645193445.3125,P16,D10,1,1,1
185,-30.0,-8.0,55.0,1645193445.34375,P16,D10,1,1,1
186,-30.0,-8.0,55.0,1645193445.375,P16,D10,1,1,1
187,-30.0,-8.0,55.0,1645193445.40625,P16,D10,1,1,1
188,-30.0,-8.0,55.0,1645193445.4375,P16,D10,1,1,1
189,-30.0,-8.0,55.0,1645193445.46875,P16,D10,1,1,1
190,-30.0,-8.0,55.0,1645193445.5,P16,D10,1,1,1
191,-30.0,-8.0,55.0,1645193445.53125,P16,D10,1,1,1
192,-30.0,-9.0,55.0,1645193445.5625,P16,D10,1,1,1
193,-30.0,-9.0,55.0,1645193445.59375,P16,D10,1,1,1
194,-30.0,-8.0,55.0,1645193445.625,P16,D10,1,1,1
195,-31.0,-8.0,54.0,1645193445.65625,P16,D10,1,1,1
196,-31.0,-8.0,55.0,1645193445.6875,P16,D10,1,1,1
197,-30.0,-8.0,55.0,1645193445.71875,P16,D10,1,1,1
198,-30.0,-8.0,55.0,1645193445.75,P16,D10,1,1,1
199,-31.0,-8.0,55.0,1645193445.78125,P16,D10,1,1,1
200,-31.0,-8.0,54.0,1645193445.8125,P16,D10,1,1,1
201,-31.0,-8.0,55.0,1645193445.84375,P16,D10,1,1,1
202,-31.0,-8.0,55.0,1645193445.875,P16,D10,1,1,1
203,-30.0,-8.0,55.0,1645193445.90625,P16,D10,1,1,1
204,-30.0,-8.0,55.0,1645193445.9375,P16,D10,1,1,1
205,-30.0,-8.0,54.0,1645193445.96875,P16,D10,1,1,1
206,-30.0,-8.0,54.0,1645193446.0,P16,D10,1,1,1
207,-31.0,-9.0,54.0,1645193446.03125,P16,D10,1,1,1
208,-31.0,-9.0,55.0,1645193446.0625,P16,D10,1,1,1
209,-31.0,-9.0,55.0,1645193446.09375,P16,D10,1,1,1
210,-31.0,-9.0,54.0,1645193446.125,P16,D10,1,1,1
211,-31.0,-9.0,55.0,1645193446.15625,P16,D10,1,1,1
212,-31.0,-9.0,54.0,1645193446.1875,P16,D10,1,1,1
213,-31.0,-9.0,54.0,1645193446.21875,P16,D10,1,1,1
214,-31.0,-9.0,54.0,1645193446.25,P16,D10,1,1,1
215,-31.0,-9.0,55.0,1645193446.28125,P16,D10,1,1,1
216,-31.0,-9.0,54.0,1645193446.3125,P16,D10,1,1,1
217,-31.0,-8.0,55.0,1645193446.34375,P16,D10,1,1,1
218,-31.0,-8.0,54.0,1645193446.375,P16,D10,1,1,1
219,-31.0,-8.0,54.0,1645193446.40625,P16,D10,1,1,1
220,-31.0,-8.0,54.0,1645193446.4375,P16,D10,1,1,1
221,-31.0,-9.0,54.0,1645193446.46875,P16,D10,1,1,1
222,-31.0,-9.0,55.0,1645193446.5,P16,D10,1,1,1
223,-30.0,-9.0,54.0,1645193446.53125,P16,D10,1,1,1
224,-31.0,-9.0,55.0,1645193446.5625,P16,D10,1,1,1
225,-31.0,-9.0,55.0,1645193446.59375,P16,D10,1,1,1
226,-31.0,-9.0,55.0,1645193446.625,P16,D10,1,1,1
227,-30.0,-9.0,54.0,1645193446.65625,P16,D10,1,1,1
228,-31.0,-9.0,55.0,1645193446.6875,P16,D10,1,1,1
229,-31.0,-8.0,54.0,1645193446.71875,P16,D10,1,1,1
230,-31.0,-8.0,54.0,1645193446.75,P16,D10,1,1,1
231,-30.0,-8.0,54.0,1645193446.78125,P16,D10,1,1,1
232,-30.0,-8.0,55.0,1645193446.8125,P16,D10,1,1,1
233,-31.0,-8.0,54.0,1645193446.84375,P16,D10,1,1,1
234,-30.0,-8.0,55.0,1645193446.875,P16,D10,1,1,1
235,-31.0,-9.0,55.0,1645193446.90625,P16,D10,1,1,1
236,-31.0,-9.0,54.0,1645193446.9375,P16,D10,1,1,1
237,-31.0,-9.0,55.0,1645193446.96875,P16,D10,1,1,1
238,-30.0,-8.0,55.0,1645193447.0,P16,D10,1,1,1
239,-31.0,-9.0,55.0,1645193447.03125,P16,D10,1,1,1
240,-30.0,-9.0,55.0,1645193447.0625,P16,D10,1,1,1
241,-30.0,-9.0,55.0,1645193447.09375,P16,D10,1,1,1
242,-31.0,-9.0,54.0,1645193447.125,P16,D10,1,1,1
243,-31.0,-9.0,55.0,1645193447.15625,P16,D10,1,1,1
244,-30.0,-9.0,55.0,1645193447.1875,P16,D10,1,1,1
245,-31.0,-8.0,54.0,1645193447.21875,P16,D10,1,1,1
246,-31.0,-8.0,55.0,1645193447.25,P16,D10,1,1,1
247,-31.0,-8.0,55.0,1645193447.28125,P16,D10,1,1,1
248,-31.0,-9.0,54.0,1645193447.3125,P16,D10,1,1,1
249,-31.0,-9.0,55.0,1645193447.34375,P16,D10,1,1,1
250,-31.0,-8.0,55.0,1645193447.375,P16,D10,1,1,1
251,-31.0,-9.0,55.0,1645193447.40625,P16,D10,1,1,1
252,-30.0,-9.0,54.0,1645193447.4375,P16,D10,1,1,1
253,-31.0,-9.0,55.0,1645193447.46875,P16,D10,1,1,1
254,-31.0,-9.0,54.0,1645193447.5,P16,D10,1,1,1
255,-30.0,-9.0,54.0,1645193447.53125,P16,D10,1,1,1
256,-31.0,-9.0,54.0,1645193447.5625,P16,D10,1,1,1
257,-31.0,-9.0,54.0,1645193447.59375,P16,D10,1,1,1
258,-31.0,-8.0,54.0,1645193447.625,P16,D10,1,1,1
259,-31.0,-9.0,54.0,1645193447.65625,P16,D10,1,1,1
260,-31.0,-9.0,55.0,1645193447.6875,P16,D10,1,1,1
261,-31.0,-9.0,54.0,1645193447.71875,P16,D10,1,1,1
262,-31.0,-9.0,54.0,1645193447.75,P16,D10,1,1,1
263,-31.0,-9.0,54.0,1645193447.78125,P16,D10,1,1,1
264,-31.0,-9.0,55.0,1645193447.8125,P16,D10,1,1,1
265,-31.0,-9.0,55.0,1645193447.84375,P16,D10,1,1,1
266,-31.0,-9.0,55.0,1645193447.875,P16,D10,1,1,1
267,-31.0,-9.0,55.0,1645193447.90625,P16,D10,1,1,1
268,-30.0,-8.0,54.0,1645193447.9375,P16,D10,1,1,1
269,-31.0,-9.0,54.0,1645193447.96875,P16,D10,1,1,1
270,-31.0,-9.0,54.0,1645193448.0,P16,D10,1,1,1
271,-31.0,-9.0,54.0,1645193448.03125,P16,D10,1,1,1
272,-31.0,-9.0,54.0,1645193448.0625,P16,D10,1,1,1
273,-30.0,-9.0,54.0,1645193448.09375,P16,D10,1,1,1
274,-31.0,-9.0,54.0,1645193448.125,P16,D10,1,1,1
275,-31.0,-9.0,54.0,1645193448.15625,P16,D10,1,1,1
276,-31.0,-9.0,54.0,1645193448.1875,P16,D10,1,1,1
277,-30.0,-9.0,55.0,1645193448.21875,P16,D10,1,1,1
278,-31.0,-9.0,55.0,1645193448.25,P16,D10,1,1,1
279,-31.0,-9.0,55.0,1645193448.28125,P16,D10,1,1,1
280,-31.0,-9.0,55.0,1645193448.3125,P16,D10,1,1,1
281,-31.0,-9.0,55.0,1645193448.34375,P16,D10,1,1,1
282,-31.0,-9.0,54.0,1645193448.375,P16,D10,1,1,1
283,-31.0,-9.0,54.0,1645193448.40625,P16,D10,1,1,1
284,-31.0,-9.0,55.0,1645193448.4375,P16,D10,1,1,1
285,-30.0,-9.0,54.0,1645193448.46875,P16,D10,1,1,1
286,-31.0,-9.0,54.0,1645193448.5,P16,D10,1,1,1
287,-31.0,-9.0,54.0,1645193448.53125,P16,D10,1,1,1
288,-30.0,-9.0,54.0,1645193448.5625,P16,D10,1,1,1
289,-31.0,-9.0,54.0,1645193448.59375,P16,D10,1,1,1
290,-31.0,-9.0,54.0,1645193448.625,P16,D10,1,1,1
291,-31.0,-9.0,55.0,1645193448.65625,P16,D10,1,1,1
292,-31.0,-9.0,54.0,1645193448.6875,P16,D10,1,1,1
293,-31.0,-9.0,54.0,1645193448.71875,P16,D10,1,1,1
294,-31.0,-9.0,54.0,1645193448.75,P16,D10,1,1,1
295,-30.0,-9.0,54.0,1645193448.78125,P16,D10,1,1,1
296,-30.0,-9.0,54.0,1645193448.8125,P16,D10,1,1,1
297,-30.0,-9.0,54.0,1645193448.84375,P16,D10,1,1,1
298,-31.0,-8.0,54.0,1645193448.875,P16,D10,1,1,1
299,-31.0,-9.0,55.0,1645193448.90625,P16,D10,1,1,1
300,-31.0,-9.0,54.0,1645193448.9375,P16,D10,1,1,1
301,-30.0,-8.0,55.0,1645193448.96875,P16,D10,1,1,1
302,-30.0,-8.0,55.0,1645193449.0,P16,D10,1,1,1
303,-31.0,-8.0,55.0,1645193449.03125,P16,D10,1,1,1
304,-30.0,-8.0,54.0,1645193449.0625,P16,D10,1,1,1
305,-31.0,-8.0,54.0,1645193449.09375,P16,D10,1,1,1
306,-31.0,-8.0,55.0,1645193449.125,P16,D10,1,1,1
307,-30.0,-8.0,55.0,1645193449.15625,P16,D10,1,1,1
308,-31.0,-8.0,55.0,1645193449.1875,P16,D10,1,1,1
309,-30.0,-8.0,55.0,1645193449.21875,P16,D10,1,1,1
310,-30.0,-8.0,54.0,1645193449.25,P16,D10,1,1,1
311,-30.0,-8.0,55.0,1645193449.28125,P16,D10,1,1,1
312,-30.0,-8.0,54.0,1645193449.3125,P16,D10,1,1,1
313,-31.0,-8.0,55.0,1645193449.34375,P16,D10,1,1,1
314,-31.0,-8.0,55.0,1645193449.375,P16,D10,1,1,1
315,-31.0,-8.0,55.0,1645193449.40625,P16,D10,1,1,1
316,-31.0,-8.0,54.0,1645193449.4375,P16,D10,1,1,1
317,-30.0,-8.0,55.0,1645193449.46875,P16,D10,1,1,1
318,-30.0,-8.0,54.0,1645193449.5,P16,D10,1,1,1
319,-30.0,-8.0,55.0,1645193449.53125,P16,D10,1,1,1
320,-30.0,-8.0,54.0,1645193449.5625,P16,D10,1,1,1
321,-30.0,-8.0,55.0,1645193449.59375,P16,D10,1,1,1
322,-31.0,-8.0,54.0,1645193449.625,P16,D10,1,1,1
323,-31.0,-8.0,54.0,1645193449.65625,P16,D10,1,1,1
324,-31.0,-8.0,54.0,1645193449.6875,P16,D10,1,1,1
325,-30.0,-8.0,54.0,1645193449.71875,P16,D10,1,1,1
326,-30.0,-9.0,55.0,1645193449.75,P16,D10,1,1,1
327,-31.0,-8.0,55.0,1645193449.78125,P16,D10,1,1,1
328,-31.0,-9.0,55.0,1645193449.8125,P16,D10,1,1,1
329,-31.0,-9.0,54.0,1645193449.84375,P16,D10,1,1,1
330,-31.0,-9.0,54.0,1645193449.875,P16,D10,1,1,1
331,-31.0,-9.0,54.0,1645193449.90625,P16,D10,1,1,1
332,-31.0,-9.0,54.0,1645193449.9375,P16,D10,1,1,1
333,-31.0,-9.0,54.0,1645193449.96875,P16,D10,1,1,1
334,-30.0,-9.0,55.0,1645193450.0,P16,D10,1,1,1
335,-30.0,-9.0,54.0,1645193450.03125,P16,D10,1,1,1
336,-31.0,-9.0,54.0,1645193450.0625,P16,D10,1,1,1
337,-31.0,-9.0,55.0,1645193450.09375,P16,D10,1,1,1
338,-31.0,-9.0,54.0,1645193450.125,P16,D10,1,1,1
339,-31.0,-9.0,54.0,1645193450.15625,P16,D10,1,1,1
340,-31.0,-9.0,55.0,1645193450.1875,P16,D10,1,1,1
341,-31.0,-9.0,54.0,1645193450.21875,P16,D10,1,1,1
342,-31.0,-9.0,54.0,1645193450.25,P16,D10,1,1,1
343,-31.0,-9.0,55.0,1645193450.28125,P16,D10,1,1,1
344,-31.0,-9.0,54.0,1645193450.3125,P16,D10,1,1,1
345,-31.0,-9.0,54.0,1645193450.34375,P16,D10,1,1,1
346,-31.0,-9.0,55.0,1645193450.375,P16,D10,1,1,1
347,-31.0,-9.0,54.0,1645193450.40625,P16,D10,1,1,1
348,-31.0,-9.0,54.0,1645193450.4375,P16,D10,1,1,1
349,-31.0,-9.0,54.0,1645193450.46875,P16,D10,1,1,1
350,-31.0,-9.0,54.0,1645193450.5,P16,D10,1,1,1
351,-31.0,-9.0,54.0,1645193450.53125,P16,D10,1,1,1
352,-31.0,-9.0,54.0,1645193450.5625,P16,D10,1,1,1
353,-31.0,-9.0,54.0,1645193450.59375,P16,D10,1,1,1
354,-31.0,-9.0,54.0,1645193450.625,P16,D10,1,1,1
355,-31.0,-9.0,54.0,1645193450.65625,P16,D10,1,1,1
356,-31.0,-9.0,54.0,1645193450.6875,P16,D10,1,1,1
357,-31.0,-9.0,54.0,1645193450.71875,P16,D10,1,1,1
358,-31.0,-9.0,54.0,1645193450.75,P16,D10,1,1,1
359,-31.0,-9.0,54.0,1645193450.78125,P16,D10,1,1,1
360,-31.0,-9.0,54.0,1645193450.8125,P16,D10,1,1,1
361,-31.0,-9.0,54.0,1645193450.84375,P16,D10,1,1,1
362,-31.0,-9.0,54.0,1645193450.875,P16,D10,1,1,1
363,-31.0,-9.0,54.0,1645193450.90625,P16,D10,1,1,1
364,-31.0,-9.0,54.0,1645193450.9375,P16,D10,1,1,1
365,-31.0,-9.0,54.0,1645193450.96875,P16,D10,1,1,1
366,-31.0,-9.0,54.0,1645193451.0,P16,D10,1,1,1
367,-31.0,-9.0,54.0,1645193451.03125,P16,D10,1,1,1
368,-31.0,-9.0,54.0,1645193451.0625,P16,D10,1,1,1
369,-31.0,-9.0,54.0,1645193451.09375,P16,D10,1,1,1
370,-31.0,-9.0,54.0,1645193451.125,P16,D10,1,1,1
371,-31.0,-9.0,54.0,1645193451.15625,P16,D10,1,1,1
372,-31.0,-9.0,54.0,1645193451.1875,P16,D10,1,1,1
373,-31.0,-9.0,54.0,1645193451.21875,P16,D10,1,1,1
374,-31.0,-9.0,54.0,1645193451.25,P16,D10,1,1,1
375,-31.0,-9.0,54.0,1645193451.28125,P16,D10,1,1,1
376,-31.0,-9.0,54.0,1645193451.3125,P16,D10,1,1,1
377,-31.0,-9.0,54.0,1645193451.34375,P16,D10,1,1,1
378,-31.0,-9.0,54.0,1645193451.375,P16,D10,1,1,1
379,-31.0,-9.0,54.0,1645193451.40625,P16,D10,1,1,1
380,-31.0,-9.0,54.0,1645193451.4375,P16,D10,1,1,1
381,-31.0,-9.0,54.0,1645193451.46875,P16,D10,1,1,1
382,-31.0,-9.0,54.0,1645193451.5,P16,D10,1,1,1
383,-31.0,-9.0,54.0,1645193451.53125,P16,D10,1,1,1
384,-31.0,-9.0,54.0,1645193451.5625,P16,D10,1,1,1
385,-31.0,-9.0,54.0,1645193451.59375,P16,D10,1,1,1
386,-31.0,-9.0,54.0,1645193451.625,P16,D10,1,1,1
387,-31.0,-9.0,54.0,1645193451.65625,P16,D10,1,1,1
388,-31.0,-9.0,54.0,1645193451.6875,P16,D10,1,1,1
389,-31.0,-9.0,54.0,1645193451.71875,P16,D10,1,1,1
390,-31.0,-9.0,54.0,1645193451.75,P16,D10,1,1,1
391,-31.0,-9.0,54.0,1645193451.78125,P16,D10,1,1,1
392,-31.0,-9.0,54.0,1645193451.8125,P16,D10,1,1,1
393,-31.0,-9.0,54.0,1645193451.84375,P16,D10,1,1,1
394,-31.0,-9.0,54.0,1645193451.875,P16,D10,1,1,1
395,-31.0,-9.0,54.0,1645193451.90625,P16,D10,1,1,1
396,-31.0,-9.0,54.0,1645193451.9375,P16,D10,1,1,1
397,-31.0,-9.0,54.0,1645193451.96875,P16,D10,1,1,1
398,-31.0,-9.0,54.0,1645193452.0,P16,D10,1,1,1
399,-31.0,-9.0,54.0,1645193452.03125,P16,D10,1,1,1
400,-31.0,-9.0,54.0,1645193452.0625,P16,D10,1,1,1
401,-31.0,-9.0,54.0,1645193452.09375,P16,D10,1,1,1
402,-31.0,-9.0,54.0,1645193452.125,P16,D10,1,1,1
403,-31.0,-9.0,54.0,1645193452.15625,P16,D10,1,1,1
404,-31.0,-9.0,54.0,1645193452.1875,P16,D10,1,1,1
405,-31.0,-9.0,54.0,1645193452.21875,P16,D10,1,1,1
406,-31.0,-9.0,54.0,1645193452.25,P16,D10,1,1,1
407,-31.0,-9.0,54.0,1645193452.28125,P16,D10,1,1,1
408,-31.0,-9.0,54.0,1645193452.3125,P16,D10,1,1,1
409,-31.0,-9.0,54.0,1645193452.34375,P16,D10,1,1,1
410,-31.0,-9.0,54.0,1645193452.375,P16,D10,1,1,1
411,-31.0,-9.0,54.0,1645193452.40625,P16,D10,1,1,1
412,-31.0,-9.0,54.0,1645193452.4375,P16,D10,1,1,1
413,-31.0,-9.0,54.0,1645193452.46875,P16,D10,1,1,1
414,-31.0,-9.0,54.0,1645193452.5,P16,D10,1,1,1
415,-31.0,-9.0,54.0,1645193452.53125,P16,D10,1,1,1
416,-31.0,-9.0,54.0,1645193452.5625,P16,D10,1,1,1
417,-31.0,-9.0,54.0,1645193452.59375,P16,D10,1,1,1
418,-31.0,-9.0,54.0,1645193452.625,P16,D10,1,1,1
419,-31.0,-8.0,54.0,1645193452.65625,P16,D10,1,1,1
420,-31.0,-9.0,54.0,1645193452.6875,P16,D10,1,1,1
421,-31.0,-9.0,54.0,1645193452.71875,P16,D10,1,1,1
422,-31.0,-9.0,55.0,1645193452.75,P16,D10,1,1,1
423,-31.0,-9.0,54.0,1645193452.78125,P16,D10,1,1,1
424,-31.0,-9.0,54.0,1645193452.8125,P16,D10,1,1,1
425,-31.0,-9.0,55.0,1645193452.84375,P16,D10,1,1,1
426,-31.0,-9.0,54.0,1645193452.875,P16,D10,1,1,1
427,-31.0,-9.0,54.0,1645193452.90625,P16,D10,1,1,1
428,-31.0,-9.0,54.0,1645193452.9375,P16,D10,1,1,1
429,-31.0,-9.0,54.0,1645193452.96875,P16,D10,1,1,1
430,-31.0,-9.0,54.0,1645193453.0,P16,D10,1,1,1
431,-31.0,-9.0,54.0,1645193453.03125,P16,D10,1,1,1
432,-31.0,-9.0,54.0,1645193453.0625,P16,D10,1,1,1
433,-31.0,-9.0,54.0,1645193453.09375,P16,D10,1,1,1
434,-31.0,-9.0,54.0,1645193453.125,P16,D10,1,1,1
435,-31.0,-9.0,54.0,1645193453.15625,P16,D10,1,1,1
436,-31.0,-9.0,54.0,1645193453.1875,P16,D10,1,1,1
437,-31.0,-9.0,54.0,1645193453.21875,P16,D10,1,1,1
438,-31.0,-9.0,54.0,1645193453.25,P16,D10,1,1,1
439,-31.0,-9.0,54.0,1645193453.28125,P16,D10,1,1,1
440,-31.0,-9.0,54.0,1645193453.3125,P16,D10,1,1,1
441,-31.0,-9.0,54.0,1645193453.34375,P16,D10,1,1,1
442,-31.0,-9.0,54.0,1645193453.375,P16,D10,1,1,1
443,-31.0,-9.0,54.0,1645193453.40625,P16,D10,1,1,1
444,-31.0,-9.0,54.0,1645193453.4375,P16,D10,1,1,1
445,-31.0,-8.0,54.0,1645193453.46875,P16,D10,1,1,1
446,-31.0,-9.0,54.0,1645193453.5,P16,D10,1,1,1
447,-31.0,-9.0,54.0,1645193453.53125,P16,D10,1,1,1
448,-31.0,-9.0,54.0,1645193453.5625,P16,D10,1,1,1
449,-31.0,-9.0,54.0,1645193453.59375,P16,D10,1,1,1
450,-31.0,-9.0,54.0,1645193453.625,P16,D10,1,1,1
451,-31.0,-9.0,54.0,1645193453.65625,P16,D10,1,1,1
452,-31.0,-9.0,54.0,1645193453.6875,P16,D10,1,1,1
453,-31.0,-9.0,54.0,1645193453.71875,P16,D10,1,1,1
454,-31.0,-9.0,54.0,1645193453.75,P16,D10,1,1,1
455,-31.0,-9.0,54.0,1645193453.78125,P16,D10,1,1,1
456,-31.0,-9.0,54.0,1645193453.8125,P16,D10,1,1,1
457,-31.0,-9.0,54.0,1645193453.84375,P16,D10,1,1,1
458,-31.0,-9.0,54.0,1645193453.875,P16,D10,1,1,1
459,-31.0,-9.0,54.0,1645193453.90625,P16,D10,1,1,1
460,-31.0,-9.0,54.0,1645193453.9375,P16,D10,1,1,1
461,-31.0,-9.0,54.0,1645193453.96875,P16,D10,1,1,1
462,-31.0,-9.0,54.0,1645193454.0,P16,D10,1,1,1
463,-31.0,-9.0,54.0,1645193454.03125,P16,D10,1,1,1
464,-31.0,-9.0,54.0,1645193454.0625,P16,D10,1,1,1
465,-31.0,-9.0,54.0,1645193454.09375,P16,D10,1,1,1
466,-31.0,-9.0,54.0,1645193454.125,P16,D10,1,1,1
467,-31.0,-9.0,54.0,1645193454.15625,P16,D10,1,1,1
468,-31.0,-9.0,54.0,1645193454.1875,P16,D10,1,1,1
469,-31.0,-9.0,54.0,1645193454.21875,P16,D10,1,1,1
470,-31.0,-9.0,54.0,1645193454.25,P16,D10,1,1,1
471,-31.0,-9.0,54.0,1645193454.28125,P16,D10,1,1,1
472,-31.0,-9.0,54.0,1645193454.3125,P16,D10,1,1,1
473,-31.0,-9.0,54.0,1645193454.34375,P16,D10,1,1,1
474,-31.0,-9.0,54.0,1645193454.375,P16,D10,1,1,1
475,-31.0,-9.0,54.0,1645193454.40625,P16,D10,1,1,1
476,-31.0,-9.0,54.0,1645193454.4375,P16,D10,1,1,1
477,-31.0,-9.0,54.0,1645193454.46875,P16,D10,1,1,1
478,-31.0,-9.0,54.0,1645193454.5,P16,D10,1,1,1
479,-31.0,-9.0,54.0,1645193454.53125,P16,D10,1,1,1
480,-31.0,-9.0,54.0,1645193454.5625,P16,D10,1,1,1
481,-31.0,-9.0,54.0,1645193454.59375,P16,D10,1,1,1
482,-31.0,-9.0,54.0,1645193454.625,P16,D10,1,1,1
483,-31.0,-9.0,54.0,1645193454.65625,P16,D10,1,1,1
484,-31.0,-9.0,54.0,1645193454.6875,P16,D10,1,1,1
485,-31.0,-9.0,54.0,1645193454.71875,P16,D10,1,1,1
486,-31.0,-9.0,54.0,1645193454.75,P16,D10,1,1,1
487,-31.0,-9.0,54.0,1645193454.78125,P16,D10,1,1,1
488,-31.0,-9.0,54.0,1645193454.8125,P16,D10,1,1,1
489,-31.0,-9.0,54.0,1645193454.84375,P16,D10,1,1,1
490,-31.0,-9.0,54.0,1645193454.875,P16,D10,1,1,1
491,-31.0,-9.0,54.0,1645193454.90625,P16,D10,1,1,1
492,-31.0,-9.0,54.0,1645193454.9375,P16,D10,1,1,1
493,-31.0,-9.0,54.0,1645193454.96875,P16,D10,1,1,1
494,-31.0,-9.0,55.0,1645193455.0,P16,D10,1,1,1
495,-31.0,-9.0,54.0,1645193455.03125,P16,D10,1,1,1
496,-31.0,-9.0,54.0,1645193455.0625,P16,D10,1,1,1
497,-31.0,-9.0,54.0,1645193455.09375,P16,D10,1,1,1
498,-31.0,-9.0,54.0,1645193455.125,P16,D10,1,1,1
499,-31.0,-9.0,54.0,1645193455.15625,P16,D10,1,1,1
500,-31.0,-9.0,54.0,1645193455.1875,P16,D10,1,1,1
501,-31.0,-9.0,54.0,1645193455.21875,P16,D10,1,1,1
502,-31.0,-9.0,54.0,1645193455.25,P16,D10,1,1,1
503,-31.0,-9.0,54.0,1645193455.28125,P16,D10,1,1,1
504,-31.0,-9.0,54.0,1645193455.3125,P16,D10,1,1,1
505,-31.0,-9.0,54.0,1645193455.34375,P16,D10,1,1,1
506,-31.0,-9.0,54.0,1645193455.375,P16,D10,1,1,1
507,-31.0,-9.0,54.0,1645193455.40625,P16,D10,1,1,1
508,-31.0,-9.0,54.0,1645193455.4375,P16,D10,1,1,1
509,-31.0,-9.0,54.0,1645193455.46875,P16,D10,1,1,1
510,-31.0,-9.0,54.0,1645193455.5,P16,D10,1,1,1
511,-31.0,-9.0,54.0,1645193455.53125,P16,D10,1,1,1
512,-31.0,-9.0,54.0,1645193455.5625,P16,D10,1,1,1
513,-31.0,-9.0,54.0,1645193455.59375,P16,D10,1,1,1
514,-31.0,-8.0,55.0,1645193455.625,P16,D10,1,1,1
515,-31.0,-8.0,54.0,1645193455.65625,P16,D10,1,1,1
516,-31.0,-8.0,54.0,1645193455.6875,P16,D10,1,1,1
517,-31.0,-8.0,54.0,1645193455.71875,P16,D10,1,1,1
518,-31.0,-9.0,54.0,1645193455.75,P16,D10,1,1,1
519,-32.0,-9.0,54.0,1645193455.78125,P16,D10,1,1,1
520,-32.0,-8.0,54.0,1645193455.8125,P16,D10,1,1,1
521,-32.0,-7.0,54.0,1645193455.84375,P16,D10,1,1,1
522,-32.0,-7.0,54.0,1645193455.875,P16,D10,1,1,1
523,-30.0,-8.0,55.0,1645193455.90625,P16,D10,1,1,1
524,-31.0,-9.0,55.0,1645193455.9375,P16,D10,1,1,1
525,-32.0,-10.0,54.0,1645193455.96875,P16,D10,1,1,1
526,-31.0,-9.0,54.0,1645193456.0,P16,D10,1,1,1
527,-31.0,-8.0,54.0,1645193456.03125,P16,D10,1,1,1
528,-31.0,-8.0,54.0,1645193456.0625,P16,D10,1,1,1
529,-31.0,-8.0,54.0,1645193456.09375,P16,D10,1,1,1
530,-32.0,-8.0,54.0,1645193456.125,P16,D10,1,1,1
531,-32.0,-8.0,54.0,1645193456.15625,P16,D10,1,1,1
532,-32.0,-8.0,53.0,1645193456.1875,P16,D10,1,1,1
533,-32.0,-8.0,54.0,1645193456.21875,P16,D10,1,1,1
534,-32.0,-8.0,53.0,1645193456.25,P16,D10,1,1,1
535,-32.0,-8.0,54.0,1645193456.28125,P16,D10,1,1,1
536,-32.0,-8.0,54.0,1645193456.3125,P16,D10,1,1,1
537,-32.0,-8.0,54.0,1645193456.34375,P16,D10,1,1,1
538,-32.0,-9.0,54.0,1645193456.375,P16,D10,1,1,1
539,-32.0,-9.0,53.0,1645193456.40625,P16,D10,1,1,1
540,-32.0,-9.0,54.0,1645193456.4375,P16,D10,1,1,1
541,-33.0,-9.0,53.0,1645193456.46875,P16,D10,1,1,1
542,-33.0,-9.0,53.0,1645193456.5,P16,D10,1,1,1
543,-33.0,-9.0,53.0,1645193456.53125,P16,D10,1,1,1
544,-32.0,-9.0,54.0,1645193456.5625,P16,D10,1,1,1
545,-33.0,-9.0,53.0,1645193456.59375,P16,D10,1,1,1
546,-33.0,-9.0,53.0,1645193456.625,P16,D10,1,1,1
547,-33.0,-10.0,53.0,1645193456.65625,P16,D10,1,1,1
548,-32.0,-10.0,53.0,1645193456.6875,P16,D10,1,1,1
549,-33.0,-10.0,53.0,1645193456.71875,P16,D10,1,1,1
550,-34.0,-10.0,53.0,1645193456.75,P16,D10,1,1,1
551,-34.0,-10.0,53.0,1645193456.78125,P16,D10,1,1,1
552,-34.0,-10.0,53.0,1645193456.8125,P16,D10,1,1,1
553,-34.0,-10.0,53.0,1645193456.84375,P16,D10,1,1,1
554,-34.0,-10.0,53.0,1645193456.875,P16,D10,1,1,1
555,-34.0,-10.0,53.0,1645193456.90625,P16,D10,1,1,1
556,-33.0,-10.0,53.0,1645193456.9375,P16,D10,1,1,1
557,-33.0,-10.0,53.0,1645193456.96875,P16,D10,1,1,1
558,-34.0,-10.0,53.0,1645193457.0,P16,D10,1,1,1
559,-34.0,-10.0,53.0,1645193457.03125,P16,D10,1,1,1
560,-32.0,-11.0,54.0,1645193457.0625,P16,D10,1,1,1
561,-32.0,-11.0,53.0,1645193457.09375,P16,D10,1,1,1
562,-33.0,-9.0,53.0,1645193457.125,P16,D10,1,1,1
563,-32.0,-8.0,54.0,1645193457.15625,P16,D10,1,1,1
564,-32.0,-9.0,54.0,1645193457.1875,P16,D10,1,1,1
565,-32.0,-10.0,53.0,1645193457.21875,P16,D10,1,1,1
566,-33.0,-10.0,53.0,1645193457.25,P16,D10,1,1,1
567,-33.0,-10.0,53.0,1645193457.28125,P16,D10,1,1,1
568,-33.0,-9.0,53.0,1645193457.3125,P16,D10,1,1,1
569,-33.0,-9.0,53.0,1645193457.34375,P16,D10,1,1,1
570,-33.0,-9.0,53.0,1645193457.375,P16,D10,1,1,1
571,-32.0,-9.0,53.0,1645193457.40625,P16,D10,1,1,1
572,-32.0,-9.0,53.0,1645193457.4375,P16,D10,1,1,1
573,-33.0,-10.0,53.0,1645193457.46875,P16,D10,1,1,1
574,-32.0,-10.0,54.0,1645193457.5,P16,D10,1,1,1
575,-32.0,-9.0,54.0,1645193457.53125,P16,D10,1,1,1
576,-33.0,-9.0,54.0,1645193457.5625,P16,D10,1,1,1
577,-33.0,-9.0,53.0,1645193457.59375,P16,D10,1,1,1
578,-32.0,-8.0,54.0,1645193457.625,P16,D10,1,1,1
579,-32.0,-9.0,53.0,1645193457.65625,P16,D10,1,1,1
580,-33.0,-8.0,53.0,1645193457.6875,P16,D10,1,1,1
581,-32.0,-8.0,53.0,1645193457.71875,P16,D10,1,1,1
582,-32.0,-8.0,53.0,1645193457.75,P16,D10,1,1,1
583,-32.0,-8.0,54.0,1645193457.78125,P16,D10,1,1,1
584,-32.0,-8.0,54.0,1645193457.8125,P16,D10,1,1,1
585,-32.0,-8.0,54.0,1645193457.84375,P16,D10,1,1,1
586,-32.0,-8.0,54.0,1645193457.875,P16,D10,1,1,1
587,-32.0,-8.0,54.0,1645193457.90625,P16,D10,1,1,1
588,-32.0,-8.0,54.0,1645193457.9375,P16,D10,1,1,1
589,-32.0,-8.0,54.0,1645193457.96875,P16,D10,1,1,1
590,-32.0,-8.0,54.0,1645193458.0,P16,D10,1,1,1
591,-32.0,-9.0,54.0,1645193458.03125,P16,D10,1,1,1
592,-32.0,-9.0,54.0,1645193458.0625,P16,D10,1,1,1
593,-32.0,-8.0,54.0,1645193458.09375,P16,D10,1,1,1
594,-32.0,-8.0,54.0,1645193458.125,P16,D10,1,1,1
595,-31.0,-8.0,54.0,1645193458.15625,P16,D10,1,1,1
596,-31.0,-7.0,54.0,1645193458.1875,P16,D10,1,1,1
597,-32.0,-7.0,54.0,1645193458.21875,P16,D10,1,1,1
598,-32.0,-7.0,54.0,1645193458.25,P16,D10,1,1,1
599,-31.0,-7.0,54.0,1645193458.28125,P16,D10,1,1,1
600,-31.0,-7.0,54.0,1645193458.3125,P16,D10,1,1,1
601,-31.0,-7.0,54.0,1645193458.34375,P16,D10,1,1,1
602,-32.0,-7.0,54.0,1645193458.375,P16,D10,1,1,1
603,-32.0,-7.0,54.0,1645193458.40625,P16,D10,1,1,1
604,-32.0,-8.0,54.0,1645193458.4375,P16,D10,1,1,1
605,-32.0,-8.0,54.0,1645193458.46875,P16,D10,1,1,1
606,-32.0,-9.0,54.0,1645193458.5,P16,D10,1,1,1
607,-32.0,-8.0,54.0,1645193458.53125,P16,D10,1,1,1
608,-31.0,-8.0,54.0,1645193458.5625,P16,D10,1,1,1
609,-32.0,-8.0,54.0,1645193458.59375,P16,D10,1,1,1
610,-32.0,-8.0,54.0,1645193458.625,P16,D10,1,1,1
611,-33.0,-9.0,53.0,1645193458.65625,P16,D10,1,1,1
612,-33.0,-9.0,53.0,1645193458.6875,P16,D10,1,1,1
613,-32.0,-8.0,54.0,1645193458.71875,P16,D10,1,1,1
614,-32.0,-8.0,54.0,1645193458.75,P16,D10,1,1,1
615,-32.0,-9.0,54.0,1645193458.78125,P16,D10,1,1,1
616,-32.0,-9.0,54.0,1645193458.8125,P16,D10,1,1,1
617,-33.0,-9.0,54.0,1645193458.84375,P16,D10,1,1,1
618,-32.0,-9.0,54.0,1645193458.875,P16,D10,1,1,1
619,-33.0,-9.0,54.0,1645193458.90625,P16,D10,1,1,1
620,-32.0,-8.0,54.0,1645193458.9375,P16,D10,1,1,1
621,-32.0,-8.0,54.0,1645193458.96875,P16,D10,1,1,1
622,-32.0,-8.0,54.0,1645193459.0,P16,D10,1,1,1
623,-32.0,-8.0,54.0,1645193459.03125,P16,D10,1,1,1
624,-33.0,-8.0,53.0,1645193459.0625,P16,D10,1,1,1
625,-33.0,-8.0,53.0,1645193459.09375,P16,D10,1,1,1
626,-32.0,-8.0,53.0,1645193459.125,P16,D10,1,1,1
627,-32.0,-8.0,54.0,1645193459.15625,P16,D10,1,1,1
628,-32.0,-8.0,54.0,1645193459.1875,P16,D10,1,1,1
629,-32.0,-8.0,54.0,1645193459.21875,P16,D10,1,1,1
630,-32.0,-8.0,54.0,1645193459.25,P16,D10,1,1,1
631,-32.0,-9.0,54.0,1645193459.28125,P16,D10,1,1,1
632,-32.0,-9.0,54.0,1645193459.3125,P16,D10,1,1,1
633,-32.0,-9.0,54.0,1645193459.34375,P16,D10,1,1,1
634,-32.0,-9.0,54.0,1645193459.375,P16,D10,1,1,1
635,-32.0,-8.0,54.0,1645193459.40625,P16,D10,1,1,1
636,-32.0,-8.0,54.0,1645193459.4375,P16,D10,1,1,1
637,-32.0,-8.0,53.0,1645193459.46875,P16,D10,1,1,1
638,-32.0,-8.0,53.0,1645193459.5,P16,D10,1,1,1
639,-32.0,-8.0,53.0,1645193459.53125,P16,D10,1,1,1
640,-32.0,-9.0,53.0,1645193459.5625,P16,D10,1,1,1
641,-33.0,-9.0,54.0,1645193459.59375,P16,D10,1,1,1
642,-32.0,-9.0,54.0,1645193459.625,P16,D10,1,1,1
643,-32.0,-9.0,54.0,1645193459.65625,P16,D10,1,1,1
644,-32.0,-8.0,53.0,1645193459.6875,P16,D10,1,1,1
645,-32.0,-9.0,53.0,1645193459.71875,P16,D10,1,1,1
646,-32.0,-9.0,54.0,1645193459.75,P16,D10,1,1,1
647,-32.0,-9.0,54.0,1645193459.78125,P16,D10,1,1,1
648,-32.0,-8.0,54.0,1645193459.8125,P16,D10,1,1,1
649,-33.0,-9.0,53.0,1645193459.84375,P16,D10,1,1,1
650,-32.0,-9.0,54.0,1645193459.875,P16,D10,1,1,1
651,-32.0,-8.0,54.0,1645193459.90625,P16,D10,1,1,1
652,-32.0,-8.0,53.0,1645193459.9375,P16,D10,1,1,1
653,-32.0,-8.0,53.0,1645193459.96875,P16,D10,1,1,1
654,-32.0,-8.0,54.0,1645193460.0,P16,D10,1,1,1
655,-32.0,-8.0,53.0,1645193460.03125,P16,D10,1,1,1
656,-32.0,-9.0,53.0,1645193460.0625,P16,D10,1,1,1
657,-32.0,-9.0,54.0,1645193460.09375,P16,D10,1,1,1
658,-32.0,-9.0,54.0,1645193460.125,P16,D10,1,1,1
659,-32.0,-8.0,54.0,1645193460.15625,P16,D10,1,1,1
660,-32.0,-9.0,54.0,1645193460.1875,P16,D10,1,1,1
661,-32.0,-9.0,54.0,1645193460.21875,P16,D10,1,1,1
662,-32.0,-9.0,54.0,1645193460.25,P16,D10,1,1,1
663,-32.0,-9.0,54.0,1645193460.28125,P16,D10,1,1,1
664,-32.0,-9.0,54.0,1645193460.3125,P16,D10,1,1,1
665,-32.0,-9.0,53.0,1645193460.34375,P16,D10,1,1,1
666,-32.0,-8.0,54.0,1645193460.375,P16,D10,1,1,1
667,-32.0,-8.0,54.0,1645193460.40625,P16,D10,1,1,1
668,-32.0,-8.0,54.0,1645193460.4375,P16,D10,1,1,1
669,-32.0,-8.0,54.0,1645193460.46875,P16,D10,1,1,1
670,-32.0,-8.0,54.0,1645193460.5,P16,D10,1,1,1
671,-32.0,-9.0,54.0,1645193460.53125,P16,D10,1,1,1
672,-32.0,-9.0,54.0,1645193460.5625,P16,D10,1,1,1
673,-32.0,-8.0,54.0,1645193460.59375,P16,D10,1,1,1
674,-32.0,-8.0,54.0,1645193460.625,P16,D10,1,1,1
675,-32.0,-9.0,54.0,1645193460.65625,P16,D10,1,1,1
676,-32.0,-9.0,54.0,1645193460.6875,P16,D10,1,1,1
677,-32.0,-9.0,54.0,1645193460.71875,P16,D10,1,1,1
678,-32.0,-9.0,54.0,1645193460.75,P16,D10,1,1,1
679,-32.0,-9.0,54.0,1645193460.78125,P16,D10,1,1,1
680,-32.0,-9.0,53.0,1645193460.8125,P16,D10,1,1,1
681,-32.0,-9.0,53.0,1645193460.84375,P16,D10,1,1,1
682,-32.0,-9.0,54.0,1645193460.875,P16,D10,1,1,1
683,-32.0,-9.0,54.0,1645193460.90625,P16,D10,1,1,1
684,-32.0,-9.0,54.0,1645193460.9375,P16,D10,1,1,1
685,-32.0,-9.0,54.0,1645193460.96875,P16,D10,1,1,1
686,-32.0,-9.0,53.0,1645193461.0,P16,D10,1,1,1
687,-32.0,-9.0,53.0,1645193461.03125,P16,D10,1,1,1
688,-32.0,-9.0,53.0,1645193461.0625,P16,D10,1,1,1
689,-32.0,-9.0,54.0,1645193461.09375,P16,D10,1,1,1
690,-32.0,-9.0,53.0,1645193461.125,P16,D10,1,1,1
691,-32.0,-9.0,53.0,1645193461.15625,P16,D10,1,1,1
692,-32.0,-9.0,53.0,1645193461.1875,P16,D10,1,1,1
693,-32.0,-9.0,53.0,1645193461.21875,P16,D10,1,1,1
694,-32.0,-9.0,53.0,1645193461.25,P16,D10,1,1,1
695,-32.0,-9.0,53.0,1645193461.28125,P16,D10,1,1,1
696,-33.0,-9.0,53.0,1645193461.3125,P16,D10,1,1,1
697,-32.0,-9.0,53.0,1645193461.34375,P16,D10,1,1,1
698,-33.0,-9.0,53.0,1645193461.375,P16,D10,1,1,1
699,-33.0,-9.0,53.0,1645193461.40625,P16,D10,1,1,1
700,-33.0,-9.0,53.0,1645193461.4375,P16,D10,1,1,1
701,-32.0,-9.0,53.0,1645193461.46875,P16,D10,1,1,1
702,-32.0,-10.0,53.0,1645193461.5,P16,D10,1,1,1
703,-32.0,-9.0,53.0,1645193461.53125,P16,D10,1,1,1
704,-32.0,-9.0,53.0,1645193461.5625,P16,D10,1,1,1
705,-32.0,-10.0,53.0,1645193461.59375,P16,D10,1,1,1
706,-32.0,-10.0,53.0,1645193461.625,P16,D10,1,1,1
707,-32.0,-10.0,53.0,1645193461.65625,P16,D10,1,1,1
708,-32.0,-10.0,53.0,1645193461.6875,P16,D10,1,1,1
709,-32.0,-9.0,54.0,1645193461.71875,P16,D10,1,1,1
710,-32.0,-10.0,53.0,1645193461.75,P16,D10,1,1,1
711,-32.0,-9.0,54.0,1645193461.78125,P16,D10,1,1,1
712,-32.0,-10.0,54.0,1645193461.8125,P16,D10,1,1,1
713,-32.0,-9.0,54.0,1645193461.84375,P16,D10,1,1,1
714,-33.0,-9.0,53.0,1645193461.875,P16,D10,1,1,1
715,-33.0,-10.0,53.0,1645193461.90625,P16,D10,1,1,1
716,-33.0,-9.0,53.0,1645193461.9375,P16,D10,1,1,1
717,-32.0,-9.0,53.0,1645193461.96875,P16,D10,1,1,1
718,-32.0,-10.0,53.0,1645193462.0,P16,D10,1,1,1
719,-32.0,-9.0,53.0,1645193462.03125,P16,D10,1,1,1
720,-32.0,-9.0,53.0,1645193462.0625,P16,D10,1,1,1
721,-32.0,-9.0,54.0,1645193462.09375,P16,D10,1,1,1
722,-32.0,-9.0,54.0,1645193462.125,P16,D10,1,1,1
723,-32.0,-9.0,53.0,1645193462.15625,P16,D10,1,1,1
724,-32.0,-10.0,54.0,1645193462.1875,P16,D10,1,1,1
725,-32.0,-9.0,54.0,1645193462.21875,P16,D10,1,1,1
726,-32.0,-9.0,54.0,1645193462.25,P16,D10,1,1,1
727,-32.0,-9.0,53.0,1645193462.28125,P16,D10,1,1,1
728,-32.0,-9.0,53.0,1645193462.3125,P16,D10,1,1,1
729,-32.0,-10.0,54.0,1645193462.34375,P16,D10,1,1,1
730,-32.0,-9.0,53.0,1645193462.375,P16,D10,1,1,1
731,-32.0,-9.0,54.0,1645193462.40625,P16,D10,1,1,1
732,-32.0,-9.0,53.0,1645193462.4375,P16,D10,1,1,1
733,-32.0,-9.0,53.0,1645193462.46875,P16,D10,1,1,1
734,-32.0,-9.0,53.0,1645193462.5,P16,D10,1,1,1
735,-33.0,-9.0,54.0,1645193462.53125,P16,D10,1,1,1
736,-32.0,-9.0,54.0,1645193462.5625,P16,D10,1,1,1
737,-32.0,-9.0,53.0,1645193462.59375,P16,D10,1,1,1
738,-32.0,-9.0,53.0,1645193462.625,P16,D10,1,1,1
739,-33.0,-10.0,53.0,1645193462.65625,P16,D10,1,1,1
740,-32.0,-9.0,54.0,1645193462.6875,P16,D10,1,1,1
741,-32.0,-9.0,54.0,1645193462.71875,P16,D10,1,1,1
742,-32.0,-9.0,54.0,1645193462.75,P16,D10,1,1,1
743,-32.0,-9.0,53.0,1645193462.78125,P16,D10,1,1,1
744,-32.0,-9.0,53.0,1645193462.8125,P16,D10,1,1,1
745,-32.0,-9.0,53.0,1645193462.84375,P16,D10,1,1,1
746,-32.0,-9.0,53.0,1645193462.875,P16,D10,1,1,1
747,-32.0,-9.0,54.0,1645193462.90625,P16,D10,1,1,1
748,-32.0,-9.0,54.0,1645193462.9375,P16,D10,1,1,1
749,-32.0,-9.0,53.0,1645193462.96875,P16,D10,1,1,1
750,-32.0,-9.0,54.0,1645193463.0,P16,D10,1,1,1
751,-32.0,-9.0,54.0,1645193463.03125,P16,D10,1,1,1
752,-33.0,-9.0,53.0,1645193463.0625,P16,D10,1,1,1
753,-32.0,-9.0,53.0,1645193463.09375,P16,D10,1,1,1
754,-32.0,-9.0,54.0,1645193463.125,P16,D10,1,1,1
755,-32.0,-9.0,54.0,1645193463.15625,P16,D10,1,1,1
756,-32.0,-9.0,53.0,1645193463.1875,P16,D10,1,1,1
757,-32.0,-9.0,53.0,1645193463.21875,P16,D10,1,1,1
758,-32.0,-9.0,53.0,1645193463.25,P16,D10,1,1,1
759,-32.0,-9.0,54.0,1645193463.28125,P16,D10,1,1,1
760,-32.0,-9.0,54.0,1645193463.3125,P16,D10,1,1,1
761,-32.0,-9.0,54.0,1645193463.34375,P16,D10,1,1,1
762,-32.0,-9.0,54.0,1645193463.375,P16,D10,1,1,1
763,-32.0,-9.0,54.0,1645193463.40625,P16,D10,1,1,1
764,-32.0,-9.0,53.0,1645193463.4375,P16,D10,1,1,1
765,-32.0,-9.0,53.0,1645193463.46875,P16,D10,1,1,1
766,-32.0,-9.0,54.0,1645193463.5,P16,D10,1,1,1
767,-32.0,-9.0,54.0,1645193463.53125,P16,D10,1,1,1
768,-32.0,-9.0,54.0,1645193463.5625,P16,D10,1,1,1
769,-32.0,-9.0,54.0,1645193463.59375,P16,D10,1,1,1
770,-32.0,-9.0,54.0,1645193463.625,P16,D10,1,1,1
771,-32.0,-9.0,54.0,1645193463.65625,P16,D10,1,1,1
772,-32.0,-9.0,54.0,1645193463.6875,P16,D10,1,1,1
773,-32.0,-9.0,54.0,1645193463.71875,P16,D10,1,1,1
774,-32.0,-9.0,53.0,1645193463.75,P16,D10,1,1,1
775,-32.0,-9.0,53.0,1645193463.78125,P16,D10,1,1,1
776,-32.0,-9.0,53.0,1645193463.8125,P16,D10,1,1,1
777,-32.0,-9.0,53.0,1645193463.84375,P16,D10,1,1,1
778,-32.0,-9.0,53.0,1645193463.875,P16,D10,1,1,1
779,-32.0,-9.0,54.0,1645193463.90625,P16,D10,1,1,1
780,-32.0,-9.0,54.0,1645193463.9375,P16,D10,1,1,1
781,-32.0,-9.0,54.0,1645193463.96875,P16,D10,1,1,1
782,-32.0,-9.0,54.0,1645193464.0,P16,D10,1,1,1
783,-32.0,-9.0,53.0,1645193464.03125,P16,D10,1,1,1
784,-32.0,-9.0,54.0,1645193464.0625,P16,D10,1,1,1
785,-32.0,-9.0,53.0,1645193464.09375,P16,D10,1,1,1
786,-32.0,-9.0,53.0,1645193464.125,P16,D10,1,1,1
787,-32.0,-9.0,54.0,1645193464.15625,P16,D10,1,1,1
788,-32.0,-9.0,54.0,1645193464.1875,P16,D10,1,1,1
789,-32.0,-9.0,54.0,1645193464.21875,P16,D10,1,1,1
790,-32.0,-9.0,54.0,1645193464.25,P16,D10,1,1,1
791,-32.0,-9.0,54.0,1645193464.28125,P16,D10,1,1,1
792,-32.0,-9.0,53.0,1645193464.3125,P16,D10,1,1,1
793,-32.0,-9.0,53.0,1645193464.34375,P16,D10,1,1,1
794,-32.0,-9.0,54.0,1645193464.375,P16,D10,1,1,1
795,-32.0,-9.0,53.0,1645193464.40625,P16,D10,1,1,1
796,-32.0,-9.0,54.0,1645193464.4375,P16,D10,1,1,1
797,-32.0,-9.0,53.0,1645193464.46875,P16,D10,1,1,1
798,-32.0,-9.0,53.0,1645193464.5,P16,D10,1,1,1
799,-32.0,-9.0,54.0,1645193464.53125,P16,D10,1,1,1
800,-32.0,-9.0,53.0,1645193464.5625,P16,D10,1,1,1
801,-32.0,-9.0,53.0,1645193464.59375,P16,D10,1,1,1
802,-32.0,-9.0,53.0,1645193464.625,P16,D10,1,1,1
803,-32.0,-9.0,53.0,1645193464.65625,P16,D10,1,1,1
804,-32.0,-9.0,53.0,1645193464.6875,P16,D10,1,1,1
805,-32.0,-9.0,53.0,1645193464.71875,P16,D10,1,1,1
806,-32.0,-10.0,53.0,1645193464.75,P16,D10,1,1,1
807,-32.0,-9.0,53.0,1645193464.78125,P16,D10,1,1,1
808,-32.0,-9.0,53.0,1645193464.8125,P16,D10,1,1,1
809,-32.0,-9.0,53.0,1645193464.84375,P16,D10,1,1,1
810,-32.0,-9.0,54.0,1645193464.875,P16,D10,1,1,1
811,-33.0,-9.0,54.0,1645193464.90625,P16,D10,1,1,1
812,-33.0,-9.0,54.0,1645193464.9375,P16,D10,1,1,1
813,-32.0,-9.0,54.0,1645193464.96875,P16,D10,1,1,1
814,-32.0,-9.0,54.0,1645193465.0,P16,D10,1,1,1
815,-32.0,-9.0,53.0,1645193465.03125,P16,D10,1,1,1
816,-32.0,-9.0,53.0,1645193465.0625,P16,D10,1,1,1
817,-33.0,-9.0,53.0,1645193465.09375,P16,D10,1,1,1
818,-33.0,-9.0,53.0,1645193465.125,P16,D10,1,1,1
819,-32.0,-9.0,53.0,1645193465.15625,P16,D10,1,1,1
820,-32.0,-9.0,54.0,1645193465.1875,P16,D10,1,1,1
821,-32.0,-9.0,53.0,1645193465.21875,P16,D10,1,1,1
822,-33.0,-9.0,54.0,1645193465.25,P16,D10,1,1,1
823,-32.0,-9.0,53.0,1645193465.28125,P16,D10,1,1,1
824,-32.0,-10.0,53.0,1645193465.3125,P16,D10,1,1,1
825,-33.0,-9.0,53.0,1645193465.34375,P16,D10,1,1,1
826,-32.0,-9.0,53.0,1645193465.375,P16,D10,1,1,1
827,-32.0,-9.0,53.0,1645193465.40625,P16,D10,1,1,1
828,-33.0,-10.0,53.0,1645193465.4375,P16,D10,1,1,1
829,-32.0,-10.0,53.0,1645193465.46875,P16,D10,1,1,1
830,-32.0,-9.0,53.0,1645193465.5,P16,D10,1,1,1
831,-33.0,-9.0,53.0,1645193465.53125,P16,D10,1,1,1
832,-32.0,-9.0,53.0,1645193465.5625,P16,D10,1,1,1
833,-32.0,-9.0,53.0,1645193465.59375,P16,D10,1,1,1
834,-32.0,-9.0,53.0,1645193465.625,P16,D10,1,1,1
835,-33.0,-9.0,53.0,1645193465.65625,P16,D10,1,1,1
836,-33.0,-10.0,53.0,1645193465.6875,P16,D10,1,1,1
837,-32.0,-9.0,53.0,1645193465.71875,P16,D10,1,1,1
838,-32.0,-9.0,54.0,1645193465.75,P16,D10,1,1,1
839,-33.0,-10.0,53.0,1645193465.78125,P16,D10,1,1,1
840,-33.0,-10.0,53.0,1645193465.8125,P16,D10,1,1,1
841,-32.0,-9.0,53.0,1645193465.84375,P16,D10,1,1,1
842,-32.0,-9.0,53.0,1645193465.875,P16,D10,1,1,1
843,-33.0,-9.0,53.0,1645193465.90625,P16,D10,1,1,1
844,-32.0,-9.0,53.0,1645193465.9375,P16,D10,1,1,1
845,-32.0,-10.0,53.0,1645193465.96875,P16,D10,1,1,1
846,-32.0,-9.0,53.0,1645193466.0,P16,D10,1,1,1
847,-32.0,-10.0,53.0,1645193466.03125,P16,D10,1,1,1
848,-33.0,-10.0,53.0,1645193466.0625,P16,D10,1,1,1
849,-33.0,-10.0,53.0,1645193466.09375,P16,D10,1,1,1
850,-32.0,-10.0,53.0,1645193466.125,P16,D10,1,1,1
851,-32.0,-9.0,53.0,1645193466.15625,P16,D10,1,1,1
852,-32.0,-9.0,53.0,1645193466.1875,P16,D10,1,1,1
853,-33.0,-10.0,53.0,1645193466.21875,P16,D10,1,1,1
854,-32.0,-10.0,53.0,1645193466.25,P16,D10,1,1,1
855,-32.0,-9.0,53.0,1645193466.28125,P16,D10,1,1,1
856,-32.0,-9.0,53.0,1645193466.3125,P16,D10,1,1,1
857,-32.0,-10.0,53.0,1645193466.34375,P16,D10,1,1,1
858,-33.0,-10.0,53.0,1645193466.375,P16,D10,1,1,1
859,-32.0,-9.0,53.0,1645193466.40625,P16,D10,1,1,1
860,-32.0,-9.0,53.0,1645193466.4375,P16,D10,1,1,1
861,-32.0,-9.0,53.0,1645193466.46875,P16,D10,1,1,1
862,-32.0,-9.0,53.0,1645193466.5,P16,D10,1,1,1
863,-32.0,-9.0,53.0,1645193466.53125,P16,D10,1,1,1
864,-32.0,-9.0,53.0,1645193466.5625,P16,D10,1,1,1
865,-32.0,-9.0,54.0,1645193466.59375,P16,D10,1,1,1
866,-32.0,-9.0,53.0,1645193466.625,P16,D10,1,1,1
867,-33.0,-9.0,53.0,1645193466.65625,P16,D10,1,1,1
868,-32.0,-9.0,54.0,1645193466.6875,P16,D10,1,1,1
869,-32.0,-9.0,54.0,1645193466.71875,P16,D10,1,1,1
870,-32.0,-9.0,53.0,1645193466.75,P16,D10,1,1,1
871,-32.0,-9.0,53.0,1645193466.78125,P16,D10,1,1,1
872,-32.0,-9.0,54.0,1645193466.8125,P16,D10,1,1,1
873,-32.0,-9.0,54.0,1645193466.84375,P16,D10,1,1,1
874,-32.0,-9.0,54.0,1645193466.875,P16,D10,1,1,1
875,-32.0,-9.0,54.0,1645193466.90625,P16,D10,1,1,1
876,-32.0,-9.0,53.0,1645193466.9375,P16,D10,1,1,1
877,-32.0,-9.0,54.0,1645193466.96875,P16,D10,1,1,1
878,-32.0,-9.0,53.0,1645193467.0,P16,D10,1,1,1
879,-32.0,-9.0,54.0,1645193467.03125,P16,D10,1,1,1
880,-32.0,-9.0,54.0,1645193467.0625,P16,D10,1,1,1
881,-32.0,-9.0,53.0,1645193467.09375,P16,D10,1,1,1
882,-32.0,-9.0,54.0,1645193467.125,P16,D10,1,1,1
883,-32.0,-9.0,54.0,1645193467.15625,P16,D10,1,1,1
884,-32.0,-9.0,54.0,1645193467.1875,P16,D10,1,1,1
885,-32.0,-9.0,54.0,1645193467.21875,P16,D10,1,1,1
886,-32.0,-9.0,54.0,1645193467.25,P16,D10,1,1,1
887,-32.0,-9.0,54.0,1645193467.28125,P16,D10,1,1,1
888,-32.0,-9.0,54.0,1645193467.3125,P16,D10,1,1,1
889,-32.0,-9.0,54.0,1645193467.34375,P16,D10,1,1,1
890,-32.0,-9.0,54.0,1645193467.375,P16,D10,1,1,1
891,-32.0,-9.0,54.0,1645193467.40625,P16,D10,1,1,1
892,-32.0,-9.0,54.0,1645193467.4375,P16,D10,1,1,1
893,-32.0,-9.0,54.0,1645193467.46875,P16,D10,1,1,1
894,-32.0,-9.0,54.0,1645193467.5,P16,D10,1,1,1
895,-32.0,-9.0,54.0,1645193467.53125,P16,D10,1,1,1
896,-32.0,-9.0,54.0,1645193467.5625,P16,D10,1,1,1
897,-32.0,-9.0,54.0,1645193467.59375,P16,D10,1,1,1
898,-32.0,-9.0,54.0,1645193467.625,P16,D10,1,1,1
899,-32.0,-9.0,54.0,1645193467.65625,P16,D10,1,1,1
900,-32.0,-9.0,54.0,1645193467.6875,P16,D10,1,1,1
901,-32.0,-9.0,54.0,1645193467.71875,P16,D10,1,1,1
902,-32.0,-9.0,54.0,1645193467.75,P16,D10,1,1,1
903,-32.0,-9.0,54.0,1645193467.78125,P16,D10,1,1,1
904,-32.0,-9.0,53.0,1645193467.8125,P16,D10,1,1,1
905,-32.0,-9.0,53.0,1645193467.84375,P16,D10,1,1,1
906,-32.0,-9.0,54.0,1645193467.875,P16,D10,1,1,1
907,-32.0,-9.0,54.0,1645193467.90625,P16,D10,1,1,1
908,-32.0,-9.0,54.0,1645193467.9375,P16,D10,1,1,1
909,-32.0,-9.0,54.0,1645193467.96875,P16,D10,1,1,1
910,-32.0,-9.0,53.0,1645193468.0,P16,D10,1,1,1
911,-32.0,-9.0,54.0,1645193468.03125,P16,D10,1,1,1
912,-32.0,-9.0,53.0,1645193468.0625,P16,D10,1,1,1
913,-32.0,-9.0,53.0,1645193468.09375,P16,D10,1,1,1
914,-32.0,-9.0,54.0,1645193468.125,P16,D10,1,1,1
915,-32.0,-9.0,53.0,1645193468.15625,P16,D10,1,1,1
916,-33.0,-9.0,53.0,1645193468.1875,P16,D10,1,1,1
917,-32.0,-9.0,54.0,1645193468.21875,P16,D10,1,1,1
918,-32.0,-9.0,54.0,1645193468.25,P16,D10,1,1,1
919,-32.0,-9.0,54.0,1645193468.28125,P16,D10,1,1,1
920,-32.0,-9.0,53.0,1645193468.3125,P16,D10,1,1,1
921,-33.0,-9.0,53.0,1645193468.34375,P16,D10,1,1,1
922,-32.0,-9.0,53.0,1645193468.375,P16,D10,1,1,1
923,-32.0,-9.0,53.0,1645193468.40625,P16,D10,1,1,1
924,-33.0,-10.0,53.0,1645193468.4375,P16,D10,1,1,1
925,-32.0,-9.0,53.0,1645193468.46875,P16,D10,1,1,1
926,-32.0,-9.0,53.0,1645193468.5,P16,D10,1,1,1
927,-32.0,-9.0,53.0,1645193468.53125,P16,D10,1,1,1
928,-33.0,-10.0,53.0,1645193468.5625,P16,D10,1,1,1
929,-33.0,-10.0,53.0,1645193468.59375,P16,D10,1,1,1
930,-33.0,-10.0,53.0,1645193468.625,P16,D10,1,1,1
931,-33.0,-10.0,53.0,1645193468.65625,P16,D10,1,1,1
932,-33.0,-10.0,53.0,1645193468.6875,P16,D10,1,1,1
933,-33.0,-10.0,53.0,1645193468.71875,P16,D10,1,1,1
934,-33.0,-10.0,53.0,1645193468.75,P16,D10,1,1,1
935,-33.0,-9.0,53.0,1645193468.78125,P16,D10,1,1,1
936,-33.0,-10.0,53.0,1645193468.8125,P16,D10,1,1,1
937,-33.0,-10.0,53.0,1645193468.84375,P16,D10,1,1,1
938,-33.0,-10.0,53.0,1645193468.875,P16,D10,1,1,1
939,-33.0,-10.0,53.0,1645193468.90625,P16,D10,1,1,1
940,-32.0,-10.0,53.0,1645193468.9375,P16,D10,1,1,1
941,-33.0,-10.0,53.0,1645193468.96875,P16,D10,1,1,1
942,-33.0,-10.0,53.0,1645193469.0,P16,D10,1,1,1
943,-33.0,-10.0,53.0,1645193469.03125,P16,D10,1,1,1
944,-33.0,-10.0,53.0,1645193469.0625,P16,D10,1,1,1
945,-33.0,-10.0,53.0,1645193469.09375,P16,D10,1,1,1
946,-33.0,-10.0,53.0,1645193469.125,P16,D10,1,1,1
947,-33.0,-10.0,53.0,1645193469.15625,P16,D10,1,1,1
948,-33.0,-10.0,53.0,1645193469.1875,P16,D10,1,1,1
949,-33.0,-10.0,53.0,1645193469.21875,P16,D10,1,1,1
950,-33.0,-10.0,53.0,1645193469.25,P16,D10,1,1,1
951,-33.0,-10.0,53.0,1645193469.28125,P16,D10,1,1,1
952,-33.0,-10.0,53.0,1645193469.3125,P16,D10,1,1,1
953,-33.0,-10.0,53.0,1645193469.34375,P16,D10,1,1,1
954,-33.0,-10.0,53.0,1645193469.375,P16,D10,1,1,1
955,-32.0,-10.0,53.0,1645193469.40625,P16,D10,1,1,1
956,-32.0,-10.0,53.0,1645193469.4375,P16,D10,1,1,1
957,-33.0,-10.0,53.0,1645193469.46875,P16,D10,1,1,1
958,-33.0,-10.0,53.0,1645193469.5,P16,D10,1,1,1
959,-33.0,-10.0,53.0,1645193469.53125,P16,D10,1,1,1
960,-33.0,-10.0,53.0,1645193469.5625,P16,D10,1,1,1
961,-32.0,-10.0,53.0,1645193469.59375,P16,D10,1,1,1
962,-33.0,-10.0,53.0,1645193469.625,P16,D10,1,1,1
963,-33.0,-10.0,53.0,1645193469.65625,P16,D10,1,1,1
964,-32.0,-10.0,53.0,1645193469.6875,P16,D10,1,1,1
965,-33.0,-10.0,53.0,1645193469.71875,P16,D10,1,1,1
966,-33.0,-10.0,53.0,1645193469.75,P16,D10,1,1,1
967,-33.0,-10.0,53.0,1645193469.78125,P16,D10,1,1,1
968,-32.0,-10.0,53.0,1645193469.8125,P16,D10,1,1,1
969,-33.0,-10.0,53.0,1645193469.84375,P16,D10,1,1,1
970,-32.0,-10.0,53.0,1645193469.875,P16,D10,1,1,1
971,-33.0,-10.0,53.0,1645193469.90625,P16,D10,1,1,1
972,-32.0,-10.0,53.0,1645193469.9375,P16,D10,1,1,1
973,-33.0,-10.0,53.0,1645193469.96875,P16,D10,1,1,1
974,-33.0,-10.0,53.0,1645193470.0,P16,D10,1,1,1
975,-32.0,-9.0,53.0,1645193470.03125,P16,D10,1,1,1
976,-33.0,-9.0,53.0,1645193470.0625,P16,D10,1,1,1
977,-32.0,-9.0,53.0,1645193470.09375,P16,D10,1,1,1
978,-32.0,-9.0,53.0,1645193470.125,P16,D10,1,1,1
979,-33.0,-9.0,53.0,1645193470.15625,P16,D10,1,1,1
980,-32.0,-9.0,53.0,1645193470.1875,P16,D10,1,1,1
981,-32.0,-9.0,53.0,1645193470.21875,P16,D10,1,1,1
982,-32.0,-9.0,54.0,1645193470.25,P16,D10,1,1,1
983,-33.0,-9.0,53.0,1645193470.28125,P16,D10,1,1,1
984,-32.0,-9.0,54.0,1645193470.3125,P16,D10,1,1,1
985,-32.0,-9.0,54.0,1645193470.34375,P16,D10,1,1,1
986,-32.0,-9.0,53.0,1645193470.375,P16,D10,1,1,1
987,-32.0,-9.0,53.0,1645193470.40625,P16,D10,1,1,1
988,-32.0,-9.0,53.0,1645193470.4375,P16,D10,1,1,1
989,-32.0,-9.0,54.0,1645193470.46875,P16,D10,1,1,1
990,-32.0,-9.0,54.0,1645193470.5,P16,D10,1,1,1
991,-32.0,-9.0,54.0,1645193470.53125,P16,D10,1,1,1
992,-32.0,-9.0,53.0,1645193470.5625,P16,D10,1,1,1
993,-32.0,-9.0,53.0,1645193470.59375,P16,D10,1,1,1
994,-32.0,-9.0,53.0,1645193470.625,P16,D10,1,1,1
995,-32.0,-9.0,54.0,1645193470.65625,P16,D10,1,1,1
996,-32.0,-9.0,53.0,1645193470.6875,P16,D10,1,1,1
997,-32.0,-9.0,53.0,1645193470.71875,P16,D10,1,1,1
998,-32.0,-9.0,54.0,1645193470.75,P16,D10,1,1,1
999,-32.0,-9.0,53.0,1645193470.78125,P16,D10,1,1,1
1000,-32.0,-9.0,54.0,1645193470.8125,P16,D10,1,1,1
1001,-33.0,-9.0,53.0,1645193470.84375,P16,D10,1,1,1
1002,-32.0,-9.0,53.0,1645193470.875,P16,D10,1,1,1
1003,-32.0,-9.0,54.0,1645193470.90625,P16,D10,1,1,1
1004,-32.0,-9.0,53.0,1645193470.9375,P16,D10,1,1,1
1005,-32.0,-9.0,53.0,1645193470.96875,P16,D10,1,1,1
1006,-32.0,-9.0,54.0,1645193471.0,P16,D10,1,1,1
1007,-32.0,-9.0,54.0,1645193471.03125,P16,D10,1,1,1
1008,-32.0,-9.0,54.0,1645193471.0625,P16,D10,1,1,1
1009,-32.0,-9.0,53.0,1645193471.09375,P16,D10,1,1,1
1010,-32.0,-9.0,54.0,1645193471.125,P16,D10,1,1,1
1011,-32.0,-9.0,54.0,1645193471.15625,P16,D10,1,1,1
1012,-32.0,-9.0,53.0,1645193471.1875,P16,D10,1,1,1
1013,-33.0,-9.0,53.0,1645193471.21875,P16,D10,1,1,1
1014,-32.0,-9.0,54.0,1645193471.25,P16,D10,1,1,1
1015,-32.0,-10.0,53.0,1645193471.28125,P16,D10,1,1,1
1016,-33.0,-9.0,53.0,1645193471.3125,P16,D10,1,1,1
1017,-33.0,-9.0,54.0,1645193471.34375,P16,D10,1,1,1
1018,-32.0,-9.0,54.0,1645193471.375,P16,D10,1,1,1
1019,-32.0,-9.0,54.0,1645193471.40625,P16,D10,1,1,1
1020,-33.0,-9.0,53.0,1645193471.4375,P16,D10,1,1,1
1021,-33.0,-9.0,53.0,1645193471.46875,P16,D10,1,1,1
1022,-32.0,-9.0,53.0,1645193471.5,P16,D10,1,1,1
1023,-32.0,-9.0,53.0,1645193471.53125,P16,D10,1,1,1
1024,-33.0,-9.0,53.0,1645193471.5625,P16,D10,1,1,1
1025,-32.0,-9.0,53.0,1645193471.59375,P16,D10,1,1,1
1026,-32.0,-9.0,54.0,1645193471.625,P16,D10,1,1,1
1027,-33.0,-9.0,53.0,1645193471.65625,P16,D10,1,1,1
1028,-32.0,-10.0,53.0,1645193471.6875,P16,D10,1,1,1
1029,-32.0,-10.0,53.0,1645193471.71875,P16,D10,1,1,1
1030,-32.0,-9.0,53.0,1645193471.75,P16,D10,1,1,1
1031,-32.0,-9.0,53.0,1645193471.78125,P16,D10,1,1,1
1032,-32.0,-9.0,53.0,1645193471.8125,P16,D10,1,1,1
1033,-32.0,-9.0,53.0,1645193471.84375,P16,D10,1,1,1
1034,-32.0,-9.0,53.0,1645193471.875,P16,D10,1,1,1
1035,-32.0,-9.0,54.0,1645193471.90625,P16,D10,1,1,1
1036,-32.0,-9.0,53.0,1645193471.9375,P16,D10,1,1,1
1037,-32.0,-9.0,53.0,1645193471.96875,P16,D10,1,1,1
1038,-32.0,-9.0,53.0,1645193472.0,P16,D10,1,1,1
1039,-32.0,-9.0,54.0,1645193472.03125,P16,D10,1,1,1
1040,-32.0,-10.0,53.0,1645193472.0625,P16,D10,1,1,1
1041,-33.0,-9.0,54.0,1645193472.09375,P16,D10,1,1,1
1042,-32.0,-9.0,54.0,1645193472.125,P16,D10,1,1,1
1043,-32.0,-9.0,54.0,1645193472.15625,P16,D10,1,1,1
1044,-33.0,-9.0,53.0,1645193472.1875,P16,D10,1,1,1
1045,-33.0,-9.0,54.0,1645193472.21875,P16,D10,1,1,1
1046,-32.0,-9.0,53.0,1645193472.25,P16,D10,1,1,1
1047,-33.0,-9.0,53.0,1645193472.28125,P16,D10,1,1,1
1048,-32.0,-9.0,54.0,1645193472.3125,P16,D10,1,1,1
1049,-32.0,-9.0,53.0,1645193472.34375,P16,D10,1,1,1
1050,-32.0,-9.0,53.0,1645193472.375,P16,D10,1,1,1
1051,-32.0,-9.0,53.0,1645193472.40625,P16,D10,1,1,1
1052,-32.0,-10.0,53.0,1645193472.4375,P16,D10,1,1,1
1053,-32.0,-9.0,53.0,1645193472.46875,P16,D10,1,1,1
1054,-32.0,-9.0,53.0,1645193472.5,P16,D10,1,1,1
1055,-32.0,-9.0,54.0,1645193472.53125,P16,D10,1,1,1
1056,-32.0,-10.0,53.0,1645193472.5625,P16,D10,1,1,1
1057,-33.0,-10.0,53.0,1645193472.59375,P16,D10,1,1,1
1058,-33.0,-9.0,53.0,1645193472.625,P16,D10,1,1,1
1059,-33.0,-10.0,53.0,1645193472.65625,P16,D10,1,1,1
1060,-32.0,-10.0,53.0,1645193472.6875,P16,D10,1,1,1
1061,-32.0,-9.0,53.0,1645193472.71875,P16,D10,1,1,1
1062,-32.0,-9.0,53.0,1645193472.75,P16,D10,1,1,1
1063,-33.0,-10.0,53.0,1645193472.78125,P16,D10,1,1,1
1064,-33.0,-9.0,53.0,1645193472.8125,P16,D10,1,1,1
1065,-32.0,-9.0,53.0,1645193472.84375,P16,D10,1,1,1
1066,-33.0,-9.0,53.0,1645193472.875,P16,D10,1,1,1
1067,-33.0,-10.0,53.0,1645193472.90625,P16,D10,1,1,1
1068,-32.0,-10.0,53.0,1645193472.9375,P16,D10,1,1,1
1069,-32.0,-10.0,53.0,1645193472.96875,P16,D10,1,1,1
1070,-33.0,-10.0,53.0,1645193473.0,P16,D10,1,1,1
1071,-33.0,-10.0,53.0,1645193473.03125,P16,D10,1,1,1
1072,-32.0,-10.0,53.0,1645193473.0625,P16,D10,1,1,1
1073,-33.0,-9.0,53.0,1645193473.09375,P16,D10,1,1,1
1074,-33.0,-10.0,53.0,1645193473.125,P16,D10,1,1,1
1075,-33.0,-9.0,53.0,1645193473.15625,P16,D10,1,1,1
1076,-32.0,-9.0,53.0,1645193473.1875,P16,D10,1,1,1
1077,-33.0,-9.0,53.0,1645193473.21875,P16,D10,1,1,1
1078,-33.0,-9.0,53.0,1645193473.25,P16,D10,1,1,1
1079,-32.0,-10.0,53.0,1645193473.28125,P16,D10,1,1,1
1080,-33.0,-9.0,53.0,1645193473.3125,P16,D10,1,1,1
1081,-33.0,-10.0,53.0,1645193473.34375,P16,D10,1,1,1
1082,-33.0,-10.0,53.0,1645193473.375,P16,D10,1,1,1
1083,-33.0,-9.0,53.0,1645193473.40625,P16,D10,1,1,1
1084,-32.0,-9.0,53.0,1645193473.4375,P16,D10,1,1,1
1085,-33.0,-9.0,53.0,1645193473.46875,P16,D10,1,1,1
1086,-33.0,-10.0,53.0,1645193473.5,P16,D10,1,1,1
1087,-33.0,-10.0,53.0,1645193473.53125,P16,D10,1,1,1
1088,-33.0,-9.0,53.0,1645193473.5625,P16,D10,1,1,1
1089,-33.0,-10.0,53.0,1645193473.59375,P16,D10,1,1,1
1090,-32.0,-9.0,53.0,1645193473.625,P16,D10,1,1,1
1091,-33.0,-10.0,53.0,1645193473.65625,P16,D10,1,1,1
1092,-32.0,-9.0,53.0,1645193473.6875,P16,D10,1,1,1
1093,-32.0,-10.0,53.0,1645193473.71875,P16,D10,1,1,1
1094,-32.0,-9.0,53.0,1645193473.75,P16,D10,1,1,1
1095,-32.0,-10.0,53.0,1645193473.78125,P16,D10,1,1,1
1096,-33.0,-9.0,54.0,1645193473.8125,P16,D10,1,1,1
1097,-33.0,-9.0,53.0,1645193473.84375,P16,D10,1,1,1
1098,-33.0,-10.0,53.0,1645193473.875,P16,D10,1,1,1
1099,-32.0,-9.0,53.0,1645193473.90625,P16,D10,1,1,1
1100,-32.0,-9.0,53.0,1645193473.9375,P16,D10,1,1,1
1101,-32.0,-9.0,53.0,1645193473.96875,P16,D10,1,1,1
1102,-32.0,-10.0,53.0,1645193474.0,P16,D10,1,1,1
1103,-33.0,-9.0,53.0,1645193474.03125,P16,D10,1,1,1
1104,-33.0,-9.0,53.0,1645193474.0625,P16,D10,1,1,1
1105,-33.0,-10.0,53.0,1645193474.09375,P16,D10,1,1,1
1106,-32.0,-10.0,53.0,1645193474.125,P16,D10,1,1,1
1107,-33.0,-9.0,53.0,1645193474.15625,P16,D10,1,1,1
1108,-33.0,-9.0,53.0,1645193474.1875,P16,D10,1,1,1
1109,-33.0,-10.0,53.0,1645193474.21875,P16,D10,1,1,1
1110,-33.0,-10.0,53.0,1645193474.25,P16,D10,1,1,1
1111,-33.0,-10.0,53.0,1645193474.28125,P16,D10,1,1,1
1112,-32.0,-9.0,53.0,1645193474.3125,P16,D10,1,1,1
1113,-33.0,-9.0,53.0,1645193474.34375,P16,D10,1,1,1
1114,-33.0,-9.0,53.0,1645193474.375,P16,D10,1,1,1
1115,-33.0,-9.0,53.0,1645193474.40625,P16,D10,1,1,1
1116,-33.0,-9.0,53.0,1645193474.4375,P16,D10,1,1,1
1117,-33.0,-9.0,53.0,1645193474.46875,P16,D10,1,1,1
1118,-33.0,-9.0,53.0,1645193474.5,P16,D10,1,1,1
1119,-32.0,-9.0,53.0,1645193474.53125,P16,D10,1,1,1
1120,-33.0,-9.0,53.0,1645193474.5625,P16,D10,1,1,1
1121,-32.0,-9.0,53.0,1645193474.59375,P16,D10,1,1,1
1122,-33.0,-9.0,53.0,1645193474.625,P16,D10,1,1,1
1123,-32.0,-9.0,53.0,1645193474.65625,P16,D10,1,1,1
1124,-32.0,-9.0,53.0,1645193474.6875,P16,D10,1,1,1
1125,-33.0,-9.0,53.0,1645193474.71875,P16,D10,1,1,1
1126,-32.0,-9.0,53.0,1645193474.75,P16,D10,1,1,1
1127,-33.0,-9.0,54.0,1645193474.78125,P16,D10,1,1,1
1128,-32.0,-9.0,53.0,1645193474.8125,P16,D10,1,1,1
1129,-32.0,-9.0,53.0,1645193474.84375,P16,D10,1,1,1
1130,-33.0,-9.0,54.0,1645193474.875,P16,D10,1,1,1
1131,-32.0,-9.0,53.0,1645193474.90625,P16,D10,1,1,1
1132,-32.0,-9.0,54.0,1645193474.9375,P16,D10,1,1,1
1133,-32.0,-9.0,54.0,1645193474.96875,P16,D10,1,1,1
1134,-32.0,-8.0,54.0,1645193475.0,P16,D10,1,1,1
1135,-32.0,-9.0,53.0,1645193475.03125,P16,D10,1,1,1
1136,-32.0,-9.0,53.0,1645193475.0625,P16,D10,1,1,1
1137,-32.0,-9.0,54.0,1645193475.09375,P16,D10,1,1,1
1138,-32.0,-9.0,54.0,1645193475.125,P16,D10,1,1,1
1139,-32.0,-9.0,54.0,1645193475.15625,P16,D10,1,1,1
1140,-32.0,-9.0,54.0,1645193475.1875,P16,D10,1,1,1
1141,-32.0,-9.0,54.0,1645193475.21875,P16,D10,1,1,1
1142,-32.0,-9.0,53.0,1645193475.25,P16,D10,1,1,1
1143,-32.0,-9.0,54.0,1645193475.28125,P16,D10,1,1,1
1144,-32.0,-9.0,54.0,1645193475.3125,P16,D10,1,1,1
1145,-32.0,-9.0,54.0,1645193475.34375,P16,D10,1,1,1
1146,-33.0,-9.0,53.0,1645193475.375,P16,D10,1,1,1
1147,-32.0,-9.0,54.0,1645193475.40625,P16,D10,1,1,1
1148,-32.0,-9.0,54.0,1645193475.4375,P16,D10,1,1,1
1149,-32.0,-9.0,53.0,1645193475.46875,P16,D10,1,1,1
1150,-32.0,-9.0,53.0,1645193475.5,P16,D10,1,1,1
1151,-32.0,-9.0,54.0,1645193475.53125,P16,D10,1,1,1
1152,-32.0,-9.0,54.0,1645193475.5625,P16,D10,1,1,1
1153,-32.0,-9.0,53.0,1645193475.59375,P16,D10,1,1,1
1154,-33.0,-9.0,53.0,1645193475.625,P16,D10,1,1,1
1155,-32.0,-9.0,54.0,1645193475.65625,P16,D10,1,1,1
1156,-32.0,-9.0,54.0,1645193475.6875,P16,D10,1,1,1
1157,-32.0,-9.0,53.0,1645193475.71875,P16,D10,1,1,1
1158,-32.0,-9.0,53.0,1645193475.75,P16,D10,1,1,1
1159,-32.0,-9.0,53.0,1645193475.78125,P16,D10,1,1,1
1160,-33.0,-9.0,53.0,1645193475.8125,P16,D10,1,1,1
1161,-32.0,-9.0,53.0,1645193475.84375,P16,D10,1,1,1
1162,-32.0,-9.0,53.0,1645193475.875,P16,D10,1,1,1
1163,-32.0,-9.0,53.0,1645193475.90625,P16,D10,1,1,1
1164,-32.0,-9.0,53.0,1645193475.9375,P16,D10,1,1,1
1165,-32.0,-9.0,53.0,1645193475.96875,P16,D10,1,1,1
1166,-32.0,-9.0,53.0,1645193476.0,P16,D10,1,1,1
1167,-33.0,-9.0,53.0,1645193476.03125,P16,D10,1,1,1
1168,-32.0,-9.0,53.0,1645193476.0625,P16,D10,1,1,1
1169,-32.0,-9.0,53.0,1645193476.09375,P16,D10,1,1,1
1170,-32.0,-9.0,53.0,1645193476.125,P16,D10,1,1,1
1171,-32.0,-9.0,54.0,1645193476.15625,P16,D10,1,1,1
1172,-32.0,-9.0,53.0,1645193476.1875,P16,D10,1,1,1
1173,-32.0,-10.0,54.0,1645193476.21875,P16,D10,1,1,1
1174,-33.0,-9.0,53.0,1645193476.25,P16,D10,1,1,1
1175,-32.0,-9.0,53.0,1645193476.28125,P16,D10,1,1,1
1176,-32.0,-9.0,53.0,1645193476.3125,P16,D10,1,1,1
1177,-32.0,-9.0,53.0,1645193476.34375,P16,D10,1,1,1
1178,-32.0,-9.0,53.0,1645193476.375,P16,D10,1,1,1
1179,-33.0,-9.0,53.0,1645193476.40625,P16,D10,1,1,1
1180,-33.0,-9.0,53.0,1645193476.4375,P16,D10,1,1,1
1181,-32.0,-9.0,53.0,1645193476.46875,P16,D10,1,1,1
1182,-32.0,-9.0,54.0,1645193476.5,P16,D10,1,1,1
1183,-32.0,-9.0,53.0,1645193476.53125,P16,D10,1,1,1
1184,-32.0,-9.0,54.0,1645193476.5625,P16,D10,1,1,1
1185,-32.0,-9.0,53.0,1645193476.59375,P16,D10,1,1,1
1186,-32.0,-9.0,53.0,1645193476.625,P16,D10,1,1,1
1187,-32.0,-9.0,53.0,1645193476.65625,P16,D10,1,1,1
1188,-32.0,-9.0,53.0,1645193476.6875,P16,D10,1,1,1
1189,-32.0,-9.0,54.0,1645193476.71875,P16,D10,1,1,1
1190,-32.0,-9.0,53.0,1645193476.75,P16,D10,1,1,1
1191,-32.0,-9.0,54.0,1645193476.78125,P16,D10,1,1,1
1192,-32.0,-9.0,53.0,1645193476.8125,P16,D10,1,1,1
1193,-32.0,-10.0,54.0,1645193476.84375,P16,D10,1,1,1
1194,-32.0,-9.0,54.0,1645193476.875,P16,D10,1,1,1
1195,-32.0,-9.0,54.0,1645193476.90625,P16,D10,1,1,1
1196,-32.0,-9.0,53.0,1645193476.9375,P16,D10,1,1,1
1197,-32.0,-9.0,54.0,1645193476.96875,P16,D10,1,1,1
1198,-32.0,-9.0,53.0,1645193477.0,P16,D10,1,1,1
1199,-32.0,-9.0,54.0,1645193477.03125,P16,D10,1,1,1
1200,-33.0,-9.0,53.0,1645193477.0625,P16,D10,1,1,1
1201,-32.0,-9.0,53.0,1645193477.09375,P16,D10,1,1,1
1202,-32.0,-9.0,54.0,1645193477.125,P16,D10,1,1,1
1203,-32.0,-9.0,53.0,1645193477.15625,P16,D10,1,1,1
1204,-32.0,-9.0,53.0,1645193477.1875,P16,D10,1,1,1
1205,-33.0,-9.0,53.0,1645193477.21875,P16,D10,1,1,1
1206,-33.0,-9.0,54.0,1645193477.25,P16,D10,1,1,1
1207,-32.0,-9.0,54.0,1645193477.28125,P16,D10,1,1,1
1208,-32.0,-9.0,54.0,1645193477.3125,P16,D10,1,1,1
1209,-32.0,-9.0,53.0,1645193477.34375,P16,D10,1,1,1
1210,-32.0,-9.0,53.0,1645193477.375,P16,D10,1,1,1
1211,-32.0,-9.0,53.0,1645193477.40625,P16,D10,1,1,1
1212,-32.0,-9.0,54.0,1645193477.4375,P16,D10,1,1,1
1213,-32.0,-9.0,53.0,1645193477.46875,P16,D10,1,1,1
1214,-32.0,-9.0,54.0,1645193477.5,P16,D10,1,1,1
1215,-33.0,-9.0,54.0,1645193477.53125,P16,D10,1,1,1
1216,-32.0,-8.0,53.0,1645193477.5625,P16,D10,1,1,1
1217,-32.0,-9.0,53.0,1645193477.59375,P16,D10,1,1,1
1218,-32.0,-9.0,54.0,1645193477.625,P16,D10,1,1,1
1219,-33.0,-9.0,53.0,1645193477.65625,P16,D10,1,1,1
1220,-32.0,-9.0,53.0,1645193477.6875,P16,D10,1,1,1
1221,-32.0,-9.0,54.0,1645193477.71875,P16,D10,1,1,1
1222,-32.0,-9.0,54.0,1645193477.75,P16,D10,1,1,1
1223,-32.0,-9.0,54.0,1645193477.78125,P16,D10,1,1,1
1224,-32.0,-9.0,53.0,1645193477.8125,P16,D10,1,1,1
1225,-32.0,-9.0,54.0,1645193477.84375,P16,D10,1,1,1
1226,-32.0,-9.0,54.0,1645193477.875,P16,D10,1,1,1
1227,-32.0,-9.0,54.0,1645193477.90625,P16,D10,1,1,1
1228,-32.0,-9.0,53.0,1645193477.9375,P16,D10,1,1,1
1229,-32.0,-9.0,54.0,1645193477.96875,P16,D10,1,1,1
1230,-32.0,-9.0,54.0,1645193478.0,P16,D10,1,1,1
1231,-32.0,-9.0,54.0,1645193478.03125,P16,D10,1,1,1
1232,-32.0,-9.0,53.0,1645193478.0625,P16,D10,1,1,1
1233,-32.0,-9.0,54.0,1645193478.09375,P16,D10,1,1,1
1234,-32.0,-9.0,54.0,1645193478.125,P16,D10,1,1,1
1235,-32.0,-9.0,54.0,1645193478.15625,P16,D10,1,1,1
1236,-32.0,-9.0,54.0,1645193478.1875,P16,D10,1,1,1
1237,-33.0,-9.0,53.0,1645193478.21875,P16,D10,1,1,1
1238,-33.0,-9.0,54.0,1645193478.25,P16,D10,1,1,1
1239,-32.0,-9.0,53.0,1645193478.28125,P16,D10,1,1,1
1240,-32.0,-9.0,54.0,1645193478.3125,P16,D10,1,1,1
1241,-32.0,-9.0,53.0,1645193478.34375,P16,D10,1,1,1
1242,-32.0,-9.0,53.0,1645193478.375,P16,D10,1,1,1
1243,-32.0,-9.0,53.0,1645193478.40625,P16,D10,1,1,1
1244,-32.0,-9.0,53.0,1645193478.4375,P16,D10,1,1,1
1245,-32.0,-9.0,54.0,1645193478.46875,P16,D10,1,1,1
1246,-32.0,-9.0,54.0,1645193478.5,P16,D10,1,1,1
1247,-32.0,-9.0,53.0,1645193478.53125,P16,D10,1,1,1
1248,-32.0,-9.0,53.0,1645193478.5625,P16,D10,1,1,1
1249,-32.0,-9.0,54.0,1645193478.59375,P16,D10,1,1,1
1250,-32.0,-9.0,53.0,1645193478.625,P16,D10,1,1,1
1251,-32.0,-9.0,53.0,1645193478.65625,P16,D10,1,1,1
1252,-32.0,-9.0,54.0,1645193478.6875,P16,D10,1,1,1
1253,-32.0,-9.0,54.0,1645193478.71875,P16,D10,1,1,1
1254,-32.0,-9.0,53.0,1645193478.75,P16,D10,1,1,1
1255,-32.0,-9.0,54.0,1645193478.78125,P16,D10,1,1,1
1256,-32.0,-9.0,53.0,1645193478.8125,P16,D10,1,1,1
1257,-32.0,-9.0,54.0,1645193478.84375,P16,D10,1,1,1
1258,-32.0,-9.0,54.0,1645193478.875,P16,D10,1,1,1
1259,-32.0,-9.0,53.0,1645193478.90625,P16,D10,1,1,1
1260,-32.0,-9.0,54.0,1645193478.9375,P16,D10,1,1,1
1261,-32.0,-9.0,54.0,1645193478.96875,P16,D10,1,1,1
1262,-32.0,-9.0,53.0,1645193479.0,P16,D10,1,1,1
1263,-32.0,-9.0,54.0,1645193479.03125,P16,D10,1,1,1
1264,-32.0,-9.0,54.0,1645193479.0625,P16,D10,1,1,1
1265,-32.0,-9.0,54.0,1645193479.09375,P16,D10,1,1,1
1266,-32.0,-9.0,53.0,1645193479.125,P16,D10,1,1,1
1267,-32.0,-9.0,53.0,1645193479.15625,P16,D10,1,1,1
1268,-32.0,-9.0,54.0,1645193479.1875,P16,D10,1,1,1
1269,-32.0,-9.0,54.0,1645193479.21875,P16,D10,1,1,1
1270,-32.0,-9.0,54.0,1645193479.25,P16,D10,1,1,1
1271,-32.0,-9.0,54.0,1645193479.28125,P16,D10,1,1,1
1272,-32.0,-9.0,54.0,1645193479.3125,P16,D10,1,1,1
1273,-32.0,-9.0,54.0,1645193479.34375,P16,D10,1,1,1
1274,-32.0,-9.0,54.0,1645193479.375,P16,D10,1,1,1
1275,-32.0,-9.0,53.0,1645193479.40625,P16,D10,1,1,1
1276,-32.0,-9.0,53.0,1645193479.4375,P16,D10,1,1,1
1277,-32.0,-9.0,54.0,1645193479.46875,P16,D10,1,1,1
1278,-32.0,-9.0,54.0,1645193479.5,P16,D10,1,1,1
1279,-32.0,-9.0,53.0,1645193479.53125,P16,D10,1,1,1
1280,-32.0,-9.0,54.0,1645193479.5625,P16,D10,1,1,1
1281,-32.0,-9.0,53.0,1645193479.59375,P16,D10,1,1,1
1282,-32.0,-9.0,53.0,1645193479.625,P16,D10,1,1,1
1283,-32.0,-9.0,53.0,1645193479.65625,P16,D10,1,1,1
1284,-32.0,-9.0,53.0,1645193479.6875,P16,D10,1,1,1
1285,-32.0,-9.0,54.0,1645193479.71875,P16,D10,1,1,1
1286,-32.0,-9.0,54.0,1645193479.75,P16,D10,1,1,1
1287,-32.0,-9.0,54.0,1645193479.78125,P16,D10,1,1,1
1288,-32.0,-9.0,54.0,1645193479.8125,P16,D10,1,1,1
1289,-32.0,-9.0,53.0,1645193479.84375,P16,D10,1,1,1
1290,-32.0,-9.0,54.0,1645193479.875,P16,D10,1,1,1
1291,-32.0,-9.0,54.0,1645193479.90625,P16,D10,1,1,1
1292,-32.0,-9.0,53.0,1645193479.9375,P16,D10,1,1,1
1293,-32.0,-9.0,53.0,1645193479.96875,P16,D10,1,1,1
1294,-32.0,-9.0,53.0,1645193480.0,P16,D10,1,1,1
1295,-32.0,-9.0,53.0,1645193480.03125,P16,D10,1,1,1
1296,-33.0,-9.0,53.0,1645193480.0625,P16,D10,1,1,1
1297,-32.0,-9.0,53.0,1645193480.09375,P16,D10,1,1,1
1298,-32.0,-9.0,53.0,1645193480.125,P16,D10,1,1,1
1299,-32.0,-9.0,53.0,1645193480.15625,P16,D10,1,1,1
1300,-32.0,-9.0,53.0,1645193480.1875,P16,D10,1,1,1
1301,-32.0,-9.0,53.0,1645193480.21875,P16,D10,1,1,1
1302,-32.0,-9.0,54.0,1645193480.25,P16,D10,1,1,1
1303,-33.0,-9.0,53.0,1645193480.28125,P16,D10,1,1,1
1304,-32.0,-9.0,54.0,1645193480.3125,P16,D10,1,1,1
1305,-32.0,-9.0,53.0,1645193480.34375,P16,D10,1,1,1
1306,-32.0,-9.0,54.0,1645193480.375,P16,D10,1,1,1
1307,-32.0,-9.0,53.0,1645193480.40625,P16,D10,1,1,1
1308,-32.0,-9.0,54.0,1645193480.4375,P16,D10,1,1,1
1309,-32.0,-9.0,54.0,1645193480.46875,P16,D10,1,1,1
1310,-32.0,-9.0,54.0,1645193480.5,P16,D10,1,1,1
1311,-33.0,-9.0,53.0,1645193480.53125,P16,D10,1,1,1
1312,-33.0,-9.0,54.0,1645193480.5625,P16,D10,1,1,1
1313,-32.0,-9.0,54.0,1645193480.59375,P16,D10,1,1,1
1314,-32.0,-9.0,53.0,1645193480.625,P16,D10,1,1,1
1315,-33.0,-9.0,54.0,1645193480.65625,P16,D10,1,1,1
1316,-32.0,-9.0,53.0,1645193480.6875,P16,D10,1,1,1
1317,-32.0,-9.0,54.0,1645193480.71875,P16,D10,1,1,1
1318,-32.0,-9.0,54.0,1645193480.75,P16,D10,1,1,1
1319,-32.0,-9.0,53.0,1645193480.78125,P16,D10,1,1,1
1320,-32.0,-9.0,54.0,1645193480.8125,P16,D10,1,1,1
1321,-32.0,-9.0,54.0,1645193480.84375,P16,D10,1,1,1
1322,-32.0,-8.0,54.0,1645193480.875,P16,D10,1,1,1
1323,-32.0,-8.0,54.0,1645193480.90625,P16,D10,1,1,1
1324,-32.0,-8.0,53.0,1645193480.9375,P16,D10,1,1,1
1325,-32.0,-9.0,54.0,1645193480.96875,P16,D10,1,1,1
1326,-32.0,-9.0,54.0,1645193481.0,P16,D10,1,1,1
1327,-32.0,-9.0,54.0,1645193481.03125,P16,D10,1,1,1
1328,-32.0,-8.0,54.0,1645193481.0625,P16,D10,1,1,1
1329,-32.0,-8.0,54.0,1645193481.09375,P16,D10,1,1,1
1330,-32.0,-9.0,54.0,1645193481.125,P16,D10,1,1,1
1331,-32.0,-8.0,54.0,1645193481.15625,P16,D10,1,1,1
1332,-32.0,-8.0,54.0,1645193481.1875,P16,D10,1,1,1
1333,-32.0,-8.0,54.0,1645193481.21875,P16,D10,1,1,1
1334,-32.0,-8.0,54.0,1645193481.25,P16,D10,1,1,1
1335,-32.0,-8.0,54.0,1645193481.28125,P16,D10,1,1,1
1336,-32.0,-8.0,54.0,1645193481.3125,P16,D10,1,1,1
1337,-32.0,-8.0,54.0,1645193481.34375,P16,D10,1,1,1
1338,-32.0,-8.0,54.0,1645193481.375,P16,D10,1,1,1
1339,-32.0,-8.0,54.0,1645193481.40625,P16,D10,1,1,1
1340,-32.0,-8.0,54.0,1645193481.4375,P16,D10,1,1,1
1341,-32.0,-8.0,54.0,1645193481.46875,P16,D10,1,1,1
1342,-32.0,-8.0,54.0,1645193481.5,P16,D10,1,1,1
1343,-32.0,-8.0,54.0,1645193481.53125,P16,D10,1,1,1
1344,-32.0,-8.0,54.0,1645193481.5625,P16,D10,1,1,1
1345,-32.0,-8.0,54.0,1645193481.59375,P16,D10,1,1,1
1346,-32.0,-8.0,54.0,1645193481.625,P16,D10,1,1,1
1347,-32.0,-8.0,54.0,1645193481.65625,P16,D10,1,1,1
1348,-32.0,-8.0,54.0,1645193481.6875,P16,D10,1,1,1
1349,-32.0,-8.0,54.0,1645193481.71875,P16,D10,1,1,1
1350,-32.0,-8.0,54.0,1645193481.75,P16,D10,1,1,1
1351,-32.0,-8.0,54.0,1645193481.78125,P16,D10,1,1,1
1352,-32.0,-8.0,54.0,1645193481.8125,P16,D10,1,1,1
1353,-32.0,-8.0,54.0,1645193481.84375,P16,D10,1,1,1
1354,-32.0,-9.0,54.0,1645193481.875,P16,D10,1,1,1
1355,-32.0,-9.0,53.0,1645193481.90625,P16,D10,1,1,1
1356,-32.0,-9.0,54.0,1645193481.9375,P16,D10,1,1,1
1357,-32.0,-9.0,54.0,1645193481.96875,P16,D10,1,1,1
1358,-32.0,-9.0,54.0,1645193482.0,P16,D10,1,1,1
1359,-32.0,-9.0,53.0,1645193482.03125,P16,D10,1,1,1
1360,-32.0,-9.0,53.0,1645193482.0625,P16,D10,1,1,1
1361,-33.0,-9.0,54.0,1645193482.09375,P16,D10,1,1,1
1362,-32.0,-9.0,53.0,1645193482.125,P16,D10,1,1,1
1363,-32.0,-9.0,53.0,1645193482.15625,P16,D10,1,1,1
1364,-32.0,-9.0,53.0,1645193482.1875,P16,D10,1,1,1
1365,-32.0,-9.0,53.0,1645193482.21875,P16,D10,1,1,1
1366,-32.0,-9.0,53.0,1645193482.25,P16,D10,1,1,1
1367,-33.0,-9.0,53.0,1645193482.28125,P16,D10,1,1,1
1368,-32.0,-9.0,54.0,1645193482.3125,P16,D10,1,1,1
1369,-33.0,-9.0,54.0,1645193482.34375,P16,D10,1,1,1
1370,-32.0,-9.0,54.0,1645193482.375,P16,D10,1,1,1
1371,-32.0,-9.0,54.0,1645193482.40625,P16,D10,1,1,1
1372,-33.0,-9.0,54.0,1645193482.4375,P16,D10,1,1,1
1373,-32.0,-9.0,54.0,1645193482.46875,P16,D10,1,1,1
1374,-32.0,-9.0,53.0,1645193482.5,P16,D10,1,1,1
1375,-32.0,-9.0,53.0,1645193482.53125,P16,D10,1,1,1
1376,-32.0,-9.0,54.0,1645193482.5625,P16,D10,1,1,1
1377,-32.0,-9.0,54.0,1645193482.59375,P16,D10,1,1,1
1378,-32.0,-9.0,54.0,1645193482.625,P16,D10,1,1,1
1379,-32.0,-9.0,54.0,1645193482.65625,P16,D10,1,1,1
1380,-32.0,-9.0,54.0,1645193482.6875,P16,D10,1,1,1
1381,-32.0,-9.0,54.0,1645193482.71875,P16,D10,1,1,1
1382,-32.0,-9.0,53.0,1645193482.75,P16,D10,1,1,1
1383,-32.0,-9.0,53.0,1645193482.78125,P16,D10,1,1,1
1384,-32.0,-9.0,53.0,1645193482.8125,P16,D10,1,1,1
1385,-32.0,-9.0,53.0,1645193482.84375,P16,D10,1,1,1
1386,-32.0,-9.0,54.0,1645193482.875,P16,D10,1,1,1
1387,-32.0,-9.0,53.0,1645193482.90625,P16,D10,1,1,1
1388,-32.0,-9.0,54.0,1645193482.9375,P16,D10,1,1,1
1389,-32.0,-9.0,54.0,1645193482.96875,P16,D10,1,1,1
1390,-32.0,-9.0,54.0,1645193483.0,P16,D10,1,1,1
1391,-32.0,-9.0,54.0,1645193483.03125,P16,D10,1,1,1
1392,-32.0,-9.0,54.0,1645193483.0625,P16,D10,1,1,1
1393,-32.0,-9.0,54.0,1645193483.09375,P16,D10,1,1,1
1394,-32.0,-9.0,54.0,1645193483.125,P16,D10,1,1,1
1395,-32.0,-9.0,53.0,1645193483.15625,P16,D10,1,1,1
1396,-32.0,-9.0,54.0,1645193483.1875,P16,D10,1,1,1
1397,-32.0,-9.0,54.0,1645193483.21875,P16,D10,1,1,1
1398,-32.0,-9.0,54.0,1645193483.25,P16,D10,1,1,1
1399,-32.0,-9.0,53.0,1645193483.28125,P16,D10,1,1,1
1400,-32.0,-9.0,53.0,1645193483.3125,P16,D10,1,1,1
1401,-32.0,-9.0,54.0,1645193483.34375,P16,D10,1,1,1
1402,-32.0,-9.0,54.0,1645193483.375,P16,D10,1,1,1
1403,-32.0,-9.0,54.0,1645193483.40625,P16,D10,1,1,1
1404,-32.0,-9.0,53.0,1645193483.4375,P16,D10,1,1,1
1405,-32.0,-9.0,53.0,1645193483.46875,P16,D10,1,1,1
1406,-32.0,-9.0,54.0,1645193483.5,P16,D10,1,1,1
1407,-32.0,-9.0,53.0,1645193483.53125,P16,D10,1,1,1
1408,-32.0,-9.0,54.0,1645193483.5625,P16,D10,1,1,1
1409,-33.0,-9.0,53.0,1645193483.59375,P16,D10,1,1,1
1410,-32.0,-9.0,54.0,1645193483.625,P16,D10,1,1,1
1411,-32.0,-9.0,54.0,1645193483.65625,P16,D10,1,1,1
1412,-33.0,-9.0,53.0,1645193483.6875,P16,D10,1,1,1
1413,-33.0,-9.0,53.0,1645193483.71875,P16,D10,1,1,1
1414,-32.0,-9.0,54.0,1645193483.75,P16,D10,1,1,1
1415,-32.0,-9.0,53.0,1645193483.78125,P16,D10,1,1,1
1416,-32.0,-9.0,54.0,1645193483.8125,P16,D10,1,1,1
1417,-33.0,-9.0,53.0,1645193483.84375,P16,D10,1,1,1
1418,-32.0,-9.0,53.0,1645193483.875,P16,D10,1,1,1
1419,-32.0,-9.0,54.0,1645193483.90625,P16,D10,1,1,1
1420,-32.0,-9.0,54.0,1645193483.9375,P16,D10,1,1,1
1421,-32.0,-9.0,53.0,1645193483.96875,P16,D10,1,1,1
1422,-32.0,-9.0,54.0,1645193484.0,P16,D10,1,1,1
1423,-32.0,-9.0,54.0,1645193484.03125,P16,D10,1,1,1
1424,-32.0,-9.0,54.0,1645193484.0625,P16,D10,1,1,1
1425,-32.0,-9.0,53.0,1645193484.09375,P16,D10,1,1,1
1426,-32.0,-9.0,54.0,1645193484.125,P16,D10,1,1,1
1427,-32.0,-9.0,53.0,1645193484.15625,P16,D10,1,1,1
1428,-32.0,-9.0,54.0,1645193484.1875,P16,D10,1,1,1
1429,-32.0,-9.0,54.0,1645193484.21875,P16,D10,1,1,1
1430,-32.0,-9.0,54.0,1645193484.25,P16,D10,1,1,1
1431,-32.0,-8.0,54.0,1645193484.28125,P16,D10,1,1,1
1432,-32.0,-9.0,54.0,1645193484.3125,P16,D10,1,1,1
1433,-32.0,-9.0,54.0,1645193484.34375,P16,D10,1,1,1
1434,-32.0,-9.0,54.0,1645193484.375,P16,D10,1,1,1
1435,-32.0,-9.0,54.0,1645193484.40625,P16,D10,1,1,1
1436,-32.0,-9.0,54.0,1645193484.4375,P16,D10,1,1,1
1437,-32.0,-8.0,53.0,1645193484.46875,P16,D10,1,1,1
1438,-32.0,-9.0,54.0,1645193484.5,P16,D10,1,1,1
1439,-32.0,-9.0,54.0,1645193484.53125,P16,D10,1,1,1
1440,-32.0,-9.0,54.0,1645193484.5625,P16,D10,1,1,1
1441,-32.0,-8.0,54.0,1645193484.59375,P16,D10,1,1,1
1442,-32.0,-8.0,54.0,1645193484.625,P16,D10,1,1,1
1443,-32.0,-9.0,54.0,1645193484.65625,P16,D10,1,1,1
1444,-32.0,-9.0,54.0,1645193484.6875,P16,D10,1,1,1
1445,-32.0,-9.0,54.0,1645193484.71875,P16,D10,1,1,1
1446,-32.0,-8.0,53.0,1645193484.75,P16,D10,1,1,1
1447,-32.0,-8.0,54.0,1645193484.78125,P16,D10,1,1,1
1448,-32.0,-8.0,54.0,1645193484.8125,P16,D10,1,1,1
1449,-32.0,-9.0,54.0,1645193484.84375,P16,D10,1,1,1
1450,-32.0,-9.0,54.0,1645193484.875,P16,D10,1,1,1
1451,-32.0,-9.0,54.0,1645193484.90625,P16,D10,1,1,1
1452,-32.0,-9.0,54.0,1645193484.9375,P16,D10,1,1,1
1453,-32.0,-9.0,54.0,1645193484.96875,P16,D10,1,1,1
1454,-32.0,-8.0,53.0,1645193485.0,P16,D10,1,1,1
1455,-32.0,-9.0,54.0,1645193485.03125,P16,D10,1,1,1
1456,-32.0,-9.0,54.0,1645193485.0625,P16,D10,1,1,1
1457,-32.0,-9.0,54.0,1645193485.09375,P16,D10,1,1,1
1458,-32.0,-9.0,54.0,1645193485.125,P16,D10,1,1,1
1459,-32.0,-9.0,54.0,1645193485.15625,P16,D10,1,1,1
1460,-32.0,-9.0,53.0,1645193485.1875,P16,D10,1,1,1
1461,-32.0,-8.0,54.0,1645193485.21875,P16,D10,1,1,1
1462,-32.0,-9.0,53.0,1645193485.25,P16,D10,1,1,1
1463,-32.0,-9.0,54.0,1645193485.28125,P16,D10,1,1,1
1464,-32.0,-9.0,54.0,1645193485.3125,P16,D10,1,1,1
1465,-32.0,-9.0,54.0,1645193485.34375,P16,D10,1,1,1
1466,-32.0,-9.0,54.0,1645193485.375,P16,D10,1,1,1
1467,-32.0,-9.0,53.0,1645193485.40625,P16,D10,1,1,1
1468,-32.0,-9.0,53.0,1645193485.4375,P16,D10,1,1,1
1469,-32.0,-9.0,53.0,1645193485.46875,P16,D10,1,1,1
1470,-32.0,-9.0,54.0,1645193485.5,P16,D10,1,1,1
1471,-32.0,-9.0,54.0,1645193485.53125,P16,D10,1,1,1
1472,-32.0,-9.0,53.0,1645193485.5625,P16,D10,1,1,1
1473,-32.0,-9.0,54.0,1645193485.59375,P16,D10,1,1,1
1474,-32.0,-9.0,54.0,1645193485.625,P16,D10,1,1,1
1475,-32.0,-9.0,54.0,1645193485.65625,P16,D10,1,1,1
1476,-32.0,-9.0,53.0,1645193485.6875,P16,D10,1,1,1
1477,-32.0,-9.0,54.0,1645193485.71875,P16,D10,1,1,1
1478,-32.0,-9.0,53.0,1645193485.75,P16,D10,1,1,1
1479,-33.0,-9.0,54.0,1645193485.78125,P16,D10,1,1,1
1480,-32.0,-9.0,53.0,1645193485.8125,P16,D10,1,1,1
1481,-32.0,-9.0,53.0,1645193485.84375,P16,D10,1,1,1
1482,-32.0,-9.0,54.0,1645193485.875,P16,D10,1,1,1
1483,-32.0,-9.0,53.0,1645193485.90625,P16,D10,1,1,1
1484,-32.0,-9.0,53.0,1645193485.9375,P16,D10,1,1,1
1485,-32.0,-9.0,53.0,1645193485.96875,P16,D10,1,1,1
1486,-33.0,-9.0,53.0,1645193486.0,P16,D10,1,1,1
1487,-32.0,-9.0,54.0,1645193486.03125,P16,D10,1,1,1
1488,-33.0,-9.0,53.0,1645193486.0625,P16,D10,1,1,1
1489,-32.0,-9.0,53.0,1645193486.09375,P16,D10,1,1,1
1490,-32.0,-9.0,53.0,1645193486.125,P16,D10,1,1,1
1491,-33.0,-9.0,53.0,1645193486.15625,P16,D10,1,1,1
1492,-32.0,-9.0,53.0,1645193486.1875,P16,D10,1,1,1
1493,-33.0,-9.0,54.0,1645193486.21875,P16,D10,1,1,1
1494,-32.0,-9.0,53.0,1645193486.25,P16,D10,1,1,1
1495,-32.0,-9.0,54.0,1645193486.28125,P16,D10,1,1,1
1496,-32.0,-9.0,53.0,1645193486.3125,P16,D10,1,1,1
1497,-32.0,-9.0,54.0,1645193486.34375,P16,D10,1,1,1
1498,-33.0,-9.0,53.0,1645193486.375,P16,D10,1,1,1
1499,-32.0,-9.0,53.0,1645193486.40625,P16,D10,1,1,1
1500,-32.0,-9.0,54.0,1645193486.4375,P16,D10,1,1,1
1501,-32.0,-9.0,53.0,1645193486.46875,P16,D10,1,1,1
1502,-32.0,-9.0,53.0,1645193486.5,P16,D10,1,1,1
1503,-32.0,-9.0,54.0,1645193486.53125,P16,D10,1,1,1
1504,-32.0,-9.0,53.0,1645193486.5625,P16,D10,1,1,1
1505,-32.0,-9.0,54.0,1645193486.59375,P16,D10,1,1,1
1506,-32.0,-9.0,54.0,1645193486.625,P16,D10,1,1,1
1507,-32.0,-9.0,53.0,1645193486.65625,P16,D10,1,1,1
1508,-32.0,-9.0,53.0,1645193486.6875,P16,D10,1,1,1
1509,-32.0,-9.0,53.0,1645193486.71875,P16,D10,1,1,1
1510,-32.0,-9.0,53.0,1645193486.75,P16,D10,1,1,1
1511,-32.0,-9.0,53.0,1645193486.78125,P16,D10,1,1,1
1512,-32.0,-9.0,53.0,1645193486.8125,P16,D10,1,1,1
1513,-33.0,-9.0,53.0,1645193486.84375,P16,D10,1,1,1
1514,-32.0,-9.0,53.0,1645193486.875,P16,D10,1,1,1
1515,-32.0,-9.0,54.0,1645193486.90625,P16,D10,1,1,1
1516,-32.0,-9.0,53.0,1645193486.9375,P16,D10,1,1,1
1517,-33.0,-9.0,53.0,1645193486.96875,P16,D10,1,1,1
1518,-32.0,-9.0,53.0,1645193487.0,P16,D10,1,1,1
1519,-32.0,-9.0,53.0,1645193487.03125,P16,D10,1,1,1
1520,-33.0,-9.0,53.0,1645193487.0625,P16,D10,1,1,1
1521,-33.0,-9.0,53.0,1645193487.09375,P16,D10,1,1,1
1522,-32.0,-9.0,53.0,1645193487.125,P16,D10,1,1,1
1523,-33.0,-9.0,53.0,1645193487.15625,P16,D10,1,1,1
1524,-32.0,-9.0,53.0,1645193487.1875,P16,D10,1,1,1
1525,-32.0,-9.0,53.0,1645193487.21875,P16,D10,1,1,1
1526,-33.0,-9.0,53.0,1645193487.25,P16,D10,1,1,1
1527,-32.0,-9.0,53.0,1645193487.28125,P16,D10,1,1,1
1528,-33.0,-9.0,53.0,1645193487.3125,P16,D10,1,1,1
1529,-32.0,-9.0,53.0,1645193487.34375,P16,D10,1,1,1
1530,-32.0,-9.0,53.0,1645193487.375,P16,D10,1,1,1
1531,-33.0,-9.0,54.0,1645193487.40625,P16,D10,1,1,1
1532,-32.0,-9.0,54.0,1645193487.4375,P16,D10,1,1,1
1533,-32.0,-9.0,53.0,1645193487.46875,P16,D10,1,1,1
1534,-32.0,-9.0,53.0,1645193487.5,P16,D10,1,1,1
1535,-32.0,-9.0,54.0,1645193487.53125,P16,D10,1,1,1
1536,-32.0,-9.0,53.0,1645193487.5625,P16,D10,1,1,1
1537,-32.0,-9.0,53.0,1645193487.59375,P16,D10,1,1,1
1538,-33.0,-9.0,53.0,1645193487.625,P16,D10,1,1,1
1539,-32.0,-9.0,53.0,1645193487.65625,P16,D10,1,1,1
1540,-33.0,-9.0,53.0,1645193487.6875,P16,D10,1,1,1
1541,-32.0,-9.0,53.0,1645193487.71875,P16,D10,1,1,1
1542,-33.0,-9.0,53.0,1645193487.75,P16,D10,1,1,1
1543,-32.0,-9.0,53.0,1645193487.78125,P16,D10,1,1,1
1544,-32.0,-9.0,53.0,1645193487.8125,P16,D10,1,1,1
1545,-32.0,-9.0,53.0,1645193487.84375,P16,D10,1,1,1
1546,-33.0,-9.0,53.0,1645193487.875,P16,D10,1,1,1
1547,-32.0,-9.0,53.0,1645193487.90625,P16,D10,1,1,1
1548,-32.0,-9.0,53.0,1645193487.9375,P16,D10,1,1,1
1549,-32.0,-9.0,53.0,1645193487.96875,P16,D10,1,1,1
1550,-32.0,-9.0,53.0,1645193488.0,P16,D10,1,1,1
1551,-32.0,-9.0,54.0,1645193488.03125,P16,D10,1,1,1
1552,-33.0,-9.0,54.0,1645193488.0625,P16,D10,1,1,1
1553,-32.0,-9.0,53.0,1645193488.09375,P16,D10,1,1,1
1554,-32.0,-9.0,53.0,1645193488.125,P16,D10,1,1,1
1555,-32.0,-9.0,53.0,1645193488.15625,P16,D10,1,1,1
1556,-33.0,-9.0,53.0,1645193488.1875,P16,D10,1,1,1
1557,-33.0,-9.0,54.0,1645193488.21875,P16,D10,1,1,1
1558,-33.0,-8.0,53.0,1645193488.25,P16,D10,1,1,1
1559,-33.0,-8.0,53.0,1645193488.28125,P16,D10,1,1,1
1560,-32.0,-9.0,54.0,1645193488.3125,P16,D10,1,1,1
1561,-32.0,-9.0,53.0,1645193488.34375,P16,D10,1,1,1
1562,-33.0,-9.0,53.0,1645193488.375,P16,D10,1,1,1
1563,-32.0,-8.0,54.0,1645193488.40625,P16,D10,1,1,1
1564,-32.0,-9.0,53.0,1645193488.4375,P16,D10,1,1,1
1565,-33.0,-9.0,53.0,1645193488.46875,P16,D10,1,1,1
1566,-33.0,-9.0,53.0,1645193488.5,P16,D10,1,1,1
1567,-32.0,-9.0,54.0,1645193488.53125,P16,D10,1,1,1
1568,-32.0,-9.0,54.0,1645193488.5625,P16,D10,1,1,1
1569,-32.0,-8.0,54.0,1645193488.59375,P16,D10,1,1,1
1570,-32.0,-9.0,54.0,1645193488.625,P16,D10,1,1,1
1571,-32.0,-9.0,53.0,1645193488.65625,P16,D10,1,1,1
1572,-32.0,-9.0,54.0,1645193488.6875,P16,D10,1,1,1
1573,-33.0,-9.0,53.0,1645193488.71875,P16,D10,1,1,1
1574,-32.0,-9.0,53.0,1645193488.75,P16,D10,1,1,1
1575,-33.0,-9.0,53.0,1645193488.78125,P16,D10,1,1,1
1576,-32.0,-9.0,53.0,1645193488.8125,P16,D10,1,1,1
1577,-32.0,-9.0,54.0,1645193488.84375,P16,D10,1,1,1
1578,-32.0,-9.0,53.0,1645193488.875,P16,D10,1,1,1
1579,-32.0,-8.0,54.0,1645193488.90625,P16,D10,1,1,1
1580,-32.0,-9.0,54.0,1645193488.9375,P16,D10,1,1,1
1581,-33.0,-9.0,53.0,1645193488.96875,P16,D10,1,1,1
1582,-33.0,-9.0,53.0,1645193489.0,P16,D10,1,1,1
1583,-33.0,-9.0,53.0,1645193489.03125,P16,D10,1,1,1
1584,-33.0,-9.0,53.0,1645193489.0625,P16,D10,1,1,1
1585,-32.0,-8.0,53.0,1645193489.09375,P16,D10,1,1,1
1586,-33.0,-9.0,53.0,1645193489.125,P16,D10,1,1,1
1587,-33.0,-9.0,53.0,1645193489.15625,P16,D10,1,1,1
1588,-32.0,-9.0,54.0,1645193489.1875,P16,D10,1,1,1
1589,-32.0,-9.0,53.0,1645193489.21875,P16,D10,1,1,1
1590,-32.0,-9.0,53.0,1645193489.25,P16,D10,1,1,1
1591,-32.0,-9.0,54.0,1645193489.28125,P16,D10,1,1,1
1592,-33.0,-9.0,54.0,1645193489.3125,P16,D10,1,1,1
1593,-32.0,-9.0,53.0,1645193489.34375,P16,D10,1,1,1
1594,-32.0,-9.0,53.0,1645193489.375,P16,D10,1,1,1
1595,-33.0,-9.0,54.0,1645193489.40625,P16,D10,1,1,1
1596,-32.0,-9.0,53.0,1645193489.4375,P16,D10,1,1,1
1597,-32.0,-9.0,53.0,1645193489.46875,P16,D10,1,1,1
1598,-32.0,-8.0,54.0,1645193489.5,P16,D10,1,1,1
1599,-33.0,-8.0,54.0,1645193489.53125,P16,D10,1,1,1
1600,-33.0,-9.0,53.0,1645193489.5625,P16,D10,1,1,1
1601,-32.0,-9.0,54.0,1645193489.59375,P16,D10,1,1,1
1602,-33.0,-9.0,54.0,1645193489.625,P16,D10,1,1,1
1603,-32.0,-9.0,53.0,1645193489.65625,P16,D10,1,1,1
1604,-32.0,-9.0,54.0,1645193489.6875,P16,D10,1,1,1
1605,-32.0,-9.0,53.0,1645193489.71875,P16,D10,1,1,1
1606,-32.0,-9.0,53.0,1645193489.75,P16,D10,1,1,1
1607,-33.0,-9.0,53.0,1645193489.78125,P16,D10,1,1,1
1608,-32.0,-9.0,53.0,1645193489.8125,P16,D10,1,1,1
1609,-32.0,-8.0,54.0,1645193489.84375,P16,D10,1,1,1
1610,-33.0,-9.0,53.0,1645193489.875,P16,D10,1,1,1
1611,-32.0,-9.0,54.0,1645193489.90625,P16,D10,1,1,1
1612,-33.0,-9.0,53.0,1645193489.9375,P16,D10,1,1,1
1613,-32.0,-9.0,53.0,1645193489.96875,P16,D10,1,1,1
1614,-33.0,-9.0,54.0,1645193490.0,P16,D10,1,1,1
1615,-32.0,-9.0,54.0,1645193490.03125,P16,D10,1,1,1
1616,-32.0,-9.0,53.0,1645193490.0625,P16,D10,1,1,1
1617,-33.0,-9.0,53.0,1645193490.09375,P16,D10,1,1,1
1618,-32.0,-9.0,53.0,1645193490.125,P16,D10,1,1,1
1619,-33.0,-9.0,53.0,1645193490.15625,P16,D10,1,1,1
1620,-32.0,-9.0,53.0,1645193490.1875,P16,D10,1,1,1
1621,-33.0,-9.0,53.0,1645193490.21875,P16,D10,1,1,1
1622,-32.0,-9.0,53.0,1645193490.25,P16,D10,1,1,1
1623,-33.0,-9.0,53.0,1645193490.28125,P16,D10,1,1,1
1624,-33.0,-9.0,53.0,1645193490.3125,P16,D10,1,1,1
1625,-32.0,-9.0,53.0,1645193490.34375,P16,D10,1,1,1
1626,-32.0,-9.0,53.0,1645193490.375,P16,D10,1,1,1
1627,-32.0,-9.0,54.0,1645193490.40625,P16,D10,1,1,1
1628,-32.0,-9.0,54.0,1645193490.4375,P16,D10,1,1,1
1629,-32.0,-9.0,54.0,1645193490.46875,P16,D10,1,1,1
1630,-32.0,-9.0,53.0,1645193490.5,P16,D10,1,1,1
1631,-32.0,-9.0,54.0,1645193490.53125,P16,D10,1,1,1
1632,-32.0,-9.0,54.0,1645193490.5625,P16,D10,1,1,1
1633,-33.0,-9.0,53.0,1645193490.59375,P16,D10,1,1,1
1634,-32.0,-9.0,54.0,1645193490.625,P16,D10,1,1,1
1635,-32.0,-9.0,54.0,1645193490.65625,P16,D10,1,1,1
1636,-33.0,-9.0,54.0,1645193490.6875,P16,D10,1,1,1
1637,-32.0,-9.0,53.0,1645193490.71875,P16,D10,1,1,1
1638,-33.0,-9.0,54.0,1645193490.75,P16,D10,1,1,1
1639,-32.0,-9.0,54.0,1645193490.78125,P16,D10,1,1,1
1640,-32.0,-9.0,54.0,1645193490.8125,P16,D10,1,1,1
1641,-33.0,-9.0,53.0,1645193490.84375,P16,D10,1,1,1
1642,-32.0,-8.0,53.0,1645193490.875,P16,D10,1,1,1
1643,-32.0,-8.0,54.0,1645193490.90625,P16,D10,1,1,1
1644,-32.0,-8.0,54.0,1645193490.9375,P16,D10,1,1,1
1645,-32.0,-9.0,54.0,1645193490.96875,P16,D10,1,1,1
1646,-33.0,-8.0,53.0,1645193491.0,P16,D10,1,1,1
1647,-32.0,-9.0,53.0,1645193491.03125,P16,D10,1,1,1
1648,-32.0,-9.0,54.0,1645193491.0625,P16,D10,1,1,1
1649,-32.0,-8.0,53.0,1645193491.09375,P16,D10,1,1,1
1650,-32.0,-8.0,54.0,1645193491.125,P16,D10,1,1,1
1651,-32.0,-9.0,54.0,1645193491.15625,P16,D10,1,1,1
1652,-32.0,-9.0,54.0,1645193491.1875,P16,D10,1,1,1
1653,-32.0,-8.0,54.0,1645193491.21875,P16,D10,1,1,1
1654,-32.0,-8.0,54.0,1645193491.25,P16,D10,1,1,1
1655,-32.0,-8.0,53.0,1645193491.28125,P16,D10,1,1,1
1656,-33.0,-9.0,54.0,1645193491.3125,P16,D10,1,1,1
1657,-32.0,-8.0,54.0,1645193491.34375,P16,D10,1,1,1
1658,-32.0,-8.0,54.0,1645193491.375,P16,D10,1,1,1
1659,-32.0,-8.0,54.0,1645193491.40625,P16,D10,1,1,1
1660,-32.0,-8.0,53.0,1645193491.4375,P16,D10,1,1,1
1661,-32.0,-8.0,54.0,1645193491.46875,P16,D10,1,1,1
1662,-32.0,-8.0,53.0,1645193491.5,P16,D10,1,1,1
1663,-32.0,-8.0,53.0,1645193491.53125,P16,D10,1,1,1
1664,-32.0,-9.0,53.0,1645193491.5625,P16,D10,1,1,1
1665,-32.0,-8.0,54.0,1645193491.59375,P16,D10,1,1,1
1666,-32.0,-9.0,54.0,1645193491.625,P16,D10,1,1,1
1667,-32.0,-8.0,54.0,1645193491.65625,P16,D10,1,1,1
1668,-32.0,-8.0,54.0,1645193491.6875,P16,D10,1,1,1
1669,-32.0,-8.0,54.0,1645193491.71875,P16,D10,1,1,1
1670,-33.0,-8.0,53.0,1645193491.75,P16,D10,1,1,1
1671,-32.0,-8.0,54.0,1645193491.78125,P16,D10,1,1,1
1672,-32.0,-8.0,54.0,1645193491.8125,P16,D10,1,1,1
1673,-32.0,-8.0,54.0,1645193491.84375,P16,D10,1,1,1
1674,-32.0,-8.0,53.0,1645193491.875,P16,D10,1,1,1
1675,-32.0,-9.0,53.0,1645193491.90625,P16,D10,1,1,1
1676,-32.0,-8.0,54.0,1645193491.9375,P16,D10,1,1,1
1677,-33.0,-8.0,54.0,1645193491.96875,P16,D10,1,1,1
1678,-32.0,-8.0,54.0,1645193492.0,P16,D10,1,1,1
1679,-32.0,-9.0,54.0,1645193492.03125,P16,D10,1,1,1
1680,-32.0,-9.0,54.0,1645193492.0625,P16,D10,1,1,1
1681,-33.0,-8.0,54.0,1645193492.09375,P16,D10,1,1,1
1682,-32.0,-9.0,54.0,1645193492.125,P16,D10,1,1,1
1683,-32.0,-9.0,54.0,1645193492.15625,P16,D10,1,1,1
1684,-33.0,-8.0,53.0,1645193492.1875,P16,D10,1,1,1
1685,-33.0,-9.0,54.0,1645193492.21875,P16,D10,1,1,1
1686,-32.0,-9.0,53.0,1645193492.25,P16,D10,1,1,1
1687,-32.0,-9.0,53.0,1645193492.28125,P16,D10,1,1,1
1688,-33.0,-9.0,53.0,1645193492.3125,P16,D10,1,1,1
1689,-33.0,-9.0,53.0,1645193492.34375,P16,D10,1,1,1
1690,-33.0,-9.0,53.0,1645193492.375,P16,D10,1,1,1
1691,-33.0,-9.0,53.0,1645193492.40625,P16,D10,1,1,1
1692,-33.0,-9.0,53.0,1645193492.4375,P16,D10,1,1,1
1693,-33.0,-9.0,53.0,1645193492.46875,P16,D10,1,1,1
1694,-33.0,-9.0,53.0,1645193492.5,P16,D10,1,1,1
1695,-33.0,-9.0,53.0,1645193492.53125,P16,D10,1,1,1
1696,-33.0,-9.0,53.0,1645193492.5625,P16,D10,1,1,1
1697,-33.0,-9.0,53.0,1645193492.59375,P16,D10,1,1,1
1698,-33.0,-9.0,53.0,1645193492.625,P16,D10,1,1,1
1699,-33.0,-9.0,53.0,1645193492.65625,P16,D10,1,1,1
1700,-33.0,-9.0,53.0,1645193492.6875,P16,D10,1,1,1
1701,-33.0,-9.0,53.0,1645193492.71875,P16,D10,1,1,1
1702,-33.0,-9.0,53.0,1645193492.75,P16,D10,1,1,1
1703,-33.0,-9.0,53.0,1645193492.78125,P16,D10,1,1,1
1704,-33.0,-9.0,53.0,1645193492.8125,P16,D10,1,1,1
1705,-33.0,-9.0,53.0,1645193492.84375,P16,D10,1,1,1
1706,-33.0,-9.0,53.0,1645193492.875,P16,D10,1,1,1
1707,-33.0,-9.0,53.0,1645193492.90625,P16,D10,1,1,1
1708,-33.0,-9.0,53.0,1645193492.9375,P16,D10,1,1,1
1709,-33.0,-9.0,53.0,1645193492.96875,P16,D10,1,1,1
1710,-33.0,-9.0,53.0,1645193493.0,P16,D10,1,1,1
1711,-33.0,-9.0,53.0,1645193493.03125,P16,D10,1,1,1
1712,-33.0,-9.0,53.0,1645193493.0625,P16,D10,1,1,1
1713,-33.0,-9.0,53.0,1645193493.09375,P16,D10,1,1,1
1714,-33.0,-9.0,53.0,1645193493.125,P16,D10,1,1,1
1715,-33.0,-9.0,53.0,1645193493.15625,P16,D10,1,1,1
1716,-33.0,-9.0,53.0,1645193493.1875,P16,D10,1,1,1
1717,-33.0,-9.0,53.0,1645193493.21875,P16,D10,1,1,1
1718,-33.0,-9.0,53.0,1645193493.25,P16,D10,1,1,1
1719,-33.0,-9.0,53.0,1645193493.28125,P16,D10,1,1,1
1720,-32.0,-9.0,53.0,1645193493.3125,P16,D10,1,1,1
1721,-33.0,-9.0,53.0,1645193493.34375,P16,D10,1,1,1
1722,-33.0,-9.0,53.0,1645193493.375,P16,D10,1,1,1
1723,-32.0,-9.0,53.0,1645193493.40625,P16,D10,1,1,1
1724,-33.0,-9.0,53.0,1645193493.4375,P16,D10,1,1,1
1725,-33.0,-9.0,53.0,1645193493.46875,P16,D10,1,1,1
1726,-32.0,-9.0,53.0,1645193493.5,P16,D10,1,1,1
1727,-33.0,-9.0,53.0,1645193493.53125,P16,D10,1,1,1
1728,-33.0,-9.0,53.0,1645193493.5625,P16,D10,1,1,1
1729,-33.0,-9.0,53.0,1645193493.59375,P16,D10,1,1,1
1730,-33.0,-9.0,53.0,1645193493.625,P16,D10,1,1,1
1731,-33.0,-9.0,53.0,1645193493.65625,P16,D10,1,1,1
1732,-33.0,-9.0,53.0,1645193493.6875,P16,D10,1,1,1
1733,-33.0,-9.0,53.0,1645193493.71875,P16,D10,1,1,1
1734,-33.0,-9.0,53.0,1645193493.75,P16,D10,1,1,1
1735,-33.0,-9.0,53.0,1645193493.78125,P16,D10,1,1,1
1736,-33.0,-9.0,53.0,1645193493.8125,P16,D10,1,1,1
1737,-32.0,-9.0,53.0,1645193493.84375,P16,D10,1,1,1
1738,-33.0,-9.0,53.0,1645193493.875,P16,D10,1,1,1
1739,-33.0,-9.0,53.0,1645193493.90625,P16,D10,1,1,1
1740,-33.0,-9.0,53.0,1645193493.9375,P16,D10,1,1,1
1741,-33.0,-9.0,53.0,1645193493.96875,P16,D10,1,1,1
1742,-33.0,-9.0,53.0,1645193494.0,P16,D10,1,1,1
1743,-33.0,-9.0,53.0,1645193494.03125,P16,D10,1,1,1
1744,-33.0,-9.0,53.0,1645193494.0625,P16,D10,1,1,1
1745,-33.0,-9.0,53.0,1645193494.09375,P16,D10,1,1,1
1746,-33.0,-9.0,53.0,1645193494.125,P16,D10,1,1,1
1747,-33.0,-9.0,53.0,1645193494.15625,P16,D10,1,1,1
1748,-33.0,-9.0,53.0,1645193494.1875,P16,D10,1,1,1
1749,-33.0,-9.0,53.0,1645193494.21875,P16,D10,1,1,1
1750,-33.0,-9.0,53.0,1645193494.25,P16,D10,1,1,1
1751,-33.0,-9.0,53.0,1645193494.28125,P16,D10,1,1,1
1752,-33.0,-9.0,53.0,1645193494.3125,P16,D10,1,1,1
1753,-33.0,-8.0,53.0,1645193494.34375,P16,D10,1,1,1
1754,-33.0,-9.0,53.0,1645193494.375,P16,D10,1,1,1
1755,-33.0,-9.0,53.0,1645193494.40625,P16,D10,1,1,1
1756,-33.0,-8.0,53.0,1645193494.4375,P16,D10,1,1,1
1757,-33.0,-9.0,53.0,1645193494.46875,P16,D10,1,1,1
1758,-33.0,-9.0,53.0,1645193494.5,P16,D10,1,1,1
1759,-33.0,-9.0,53.0,1645193494.53125,P16,D10,1,1,1
1760,-33.0,-9.0,53.0,1645193494.5625,P16,D10,1,1,1
1761,-34.0,-9.0,53.0,1645193494.59375,P16,D10,1,1,1
1762,-33.0,-9.0,53.0,1645193494.625,P16,D10,1,1,1
1763,-33.0,-8.0,53.0,1645193494.65625,P16,D10,1,1,1
1764,-33.0,-8.0,53.0,1645193494.6875,P16,D10,1,1,1
1765,-33.0,-9.0,53.0,1645193494.71875,P16,D10,1,1,1
1766,-33.0,-9.0,53.0,1645193494.75,P16,D10,1,1,1
1767,-33.0,-9.0,53.0,1645193494.78125,P16,D10,1,1,1
1768,-33.0,-8.0,53.0,1645193494.8125,P16,D10,1,1,1
1769,-32.0,-8.0,53.0,1645193494.84375,P16,D10,1,1,1
1770,-33.0,-8.0,53.0,1645193494.875,P16,D10,1,1,1
1771,-33.0,-9.0,53.0,1645193494.90625,P16,D10,1,1,1
1772,-33.0,-9.0,53.0,1645193494.9375,P16,D10,1,1,1
1773,-33.0,-9.0,53.0,1645193494.96875,P16,D10,1,1,1
1774,-33.0,-8.0,53.0,1645193495.0,P16,D10,1,1,1
1775,-32.0,-8.0,53.0,1645193495.03125,P16,D10,1,1,1
1776,-33.0,-8.0,53.0,1645193495.0625,P16,D10,1,1,1
1777,-33.0,-9.0,53.0,1645193495.09375,P16,D10,1,1,1
1778,-34.0,-10.0,53.0,1645193495.125,P16,D10,1,1,1
1779,-34.0,-10.0,53.0,1645193495.15625,P16,D10,1,1,1
1780,-33.0,-9.0,53.0,1645193495.1875,P16,D10,1,1,1
1781,-33.0,-8.0,53.0,1645193495.21875,P16,D10,1,1,1
1782,-34.0,-8.0,53.0,1645193495.25,P16,D10,1,1,1
1783,-35.0,-8.0,53.0,1645193495.28125,P16,D10,1,1,1
1784,-32.0,-10.0,54.0,1645193495.3125,P16,D10,1,1,1
1785,-35.0,-10.0,53.0,1645193495.34375,P16,D10,1,1,1
1786,-33.0,-9.0,54.0,1645193495.375,P16,D10,1,1,1
1787,-33.0,-8.0,53.0,1645193495.40625,P16,D10,1,1,1
1788,-34.0,-8.0,53.0,1645193495.4375,P16,D10,1,1,1
1789,-31.0,-8.0,54.0,1645193495.46875,P16,D10,1,1,1
1790,-31.0,-8.0,54.0,1645193495.5,P16,D10,1,1,1
1791,-35.0,-8.0,52.0,1645193495.53125,P16,D10,1,1,1
1792,-34.0,-9.0,53.0,1645193495.5625,P16,D10,1,1,1
1793,-32.0,-8.0,54.0,1645193495.59375,P16,D10,1,1,1
1794,-33.0,-8.0,53.0,1645193495.625,P16,D10,1,1,1
1795,-34.0,-8.0,53.0,1645193495.65625,P16,D10,1,1,1
1796,-32.0,-8.0,54.0,1645193495.6875,P16,D10,1,1,1
1797,-33.0,-8.0,53.0,1645193495.71875,P16,D10,1,1,1
1798,-33.0,-9.0,53.0,1645193495.75,P16,D10,1,1,1
1799,-33.0,-9.0,53.0,1645193495.78125,P16,D10,1,1,1
1800,-33.0,-8.0,53.0,1645193495.8125,P16,D10,1,1,1
1801,-33.0,-8.0,53.0,1645193495.84375,P16,D10,1,1,1
1802,-33.0,-8.0,53.0,1645193495.875,P16,D10,1,1,1
1803,-34.0,-8.0,53.0,1645193495.90625,P16,D10,1,1,1
1804,-33.0,-8.0,53.0,1645193495.9375,P16,D10,1,1,1
1805,-34.0,-8.0,53.0,1645193495.96875,P16,D10,1,1,1
1806,-34.0,-9.0,53.0,1645193496.0,P16,D10,1,1,1
1807,-33.0,-9.0,53.0,1645193496.03125,P16,D10,1,1,1
1808,-34.0,-9.0,53.0,1645193496.0625,P16,D10,1,1,1
1809,-33.0,-8.0,53.0,1645193496.09375,P16,D10,1,1,1
1810,-33.0,-8.0,53.0,1645193496.125,P16,D10,1,1,1
1811,-34.0,-9.0,53.0,1645193496.15625,P16,D10,1,1,1
1812,-34.0,-8.0,52.0,1645193496.1875,P16,D10,1,1,1
1813,-34.0,-9.0,53.0,1645193496.21875,P16,D10,1,1,1
1814,-34.0,-9.0,53.0,1645193496.25,P16,D10,1,1,1
1815,-34.0,-9.0,53.0,1645193496.28125,P16,D10,1,1,1
1816,-34.0,-9.0,53.0,1645193496.3125,P16,D10,1,1,1
1817,-34.0,-9.0,53.0,1645193496.34375,P16,D10,1,1,1
1818,-34.0,-9.0,53.0,1645193496.375,P16,D10,1,1,1
1819,-34.0,-9.0,52.0,1645193496.40625,P16,D10,1,1,1
1820,-34.0,-9.0,53.0,1645193496.4375,P16,D10,1,1,1
1821,-34.0,-9.0,53.0,1645193496.46875,P16,D10,1,1,1
1822,-34.0,-9.0,53.0,1645193496.5,P16,D10,1,1,1
1823,-34.0,-9.0,53.0,1645193496.53125,P16,D10,1,1,1
1824,-34.0,-10.0,53.0,1645193496.5625,P16,D10,1,1,1
1825,-34.0,-10.0,53.0,1645193496.59375,P16,D10,1,1,1
1826,-34.0,-10.0,53.0,1645193496.625,P16,D10,1,1,1
1827,-34.0,-9.0,53.0,1645193496.65625,P16,D10,1,1,1
1828,-34.0,-8.0,53.0,1645193496.6875,P16,D10,1,1,1
1829,-34.0,-8.0,53.0,1645193496.71875,P16,D10,1,1,1
1830,-34.0,-9.0,53.0,1645193496.75,P16,D10,1,1,1
1831,-34.0,-9.0,53.0,1645193496.78125,P16,D10,1,1,1
1832,-34.0,-9.0,53.0,1645193496.8125,P16,D10,1,1,1
1833,-34.0,-9.0,53.0,1645193496.84375,P16,D10,1,1,1
1834,-34.0,-9.0,53.0,1645193496.875,P16,D10,1,1,1
1835,-34.0,-9.0,53.0,1645193496.90625,P16,D10,1,1,1
1836,-34.0,-9.0,53.0,1645193496.9375,P16,D10,1,1,1
1837,-34.0,-9.0,53.0,1645193496.96875,P16,D10,1,1,1
1838,-34.0,-9.0,53.0,1645193497.0,P16,D10,1,1,1
1839,-34.0,-9.0,53.0,1645193497.03125,P16,D10,1,1,1
1840,-34.0,-9.0,53.0,1645193497.0625,P16,D10,1,1,1
