,acc_x,acc_y,acc_z,timestamp,participant,document,val,arou,eng
0,-38.0,-7.0,50.0,1645192816.28125,P16,D08,1,1,1
1,-39.0,-7.0,50.0,1645192816.3125,P16,D08,1,1,1
2,-38.0,-7.0,50.0,1645192816.34375,P16,D08,1,1,1
3,-38.0,-7.0,50.0,1645192816.375,P16,D08,1,1,1
4,-38.0,-7.0,50.0,1645192816.40625,P16,D08,1,1,1
5,-38.0,-7.0,50.0,1645192816.4375,P16,D08,1,1,1
6,-38.0,-7.0,50.0,1645192816.46875,P16,D08,1,1,1
7,-38.0,-7.0,50.0,1645192816.5,P16,D08,1,1,1
8,-38.0,-7.0,50.0,1645192816.53125,P16,D08,1,1,1
9,-38.0,-7.0,50.0,1645192816.5625,P16,D08,1,1,1
10,-38.0,-7.0,50.0,1645192816.59375,P16,D08,1,1,1
11,-38.0,-7.0,50.0,1645192816.625,P16,D08,1,1,1
12,-38.0,-7.0,50.0,1645192816.65625,P16,D08,1,1,1
13,-38.0,-7.0,50.0,1645192816.6875,P16,D08,1,1,1
14,-38.0,-7.0,50.0,1645192816.71875,P16,D08,1,1,1
15,-38.0,-7.0,50.0,1645192816.75,P16,D08,1,1,1
16,-38.0,-7.0,50.0,1645192816.78125,P16,D08,1,1,1
17,-38.0,-7.0,50.0,1645192816.8125,P16,D08,1,1,1
18,-39.0,-7.0,50.0,1645192816.84375,P16,D08,1,1,1
19,-38.0,-7.0,50.0,1645192816.875,P16,D08,1,1,1
20,-38.0,-7.0,50.0,1645192816.90625,P16,D08,1,1,1
21,-38.0,-7.0,50.0,1645192816.9375,P16,D08,1,1,1
22,-38.0,-7.0,50.0,1645192816.96875,P16,D08,1,1,1
23,-38.0,-7.0,50.0,1645192817.0,P16,D08,1,1,1
24,-38.0,-7.0,50.0,1645192817.03125,P16,D08,1,1,1
25,-38.0,-7.0,50.0,1645192817.0625,P16,D08,1,1,1
26,-39.0,-7.0,50.0,1645192817.09375,P16,D08,1,1,1
27,-38.0,-7.0,50.0,1645192817.125,P16,D08,1,1,1
28,-38.0,-7.0,50.0,1645192817.15625,P16,D08,1,1,1
29,-38.0,-7.0,50.0,1645192817.1875,P16,D08,1,1,1
30,-38.0,-7.0,50.0,1645192817.21875,P16,D08,1,1,1
31,-38.0,-7.0,50.0,1645192817.25,P16,D08,1,1,1
32,-38.0,-7.0,50.0,1645192817.28125,P16,D08,1,1,1
33,-38.0,-7.0,50.0,1645192817.3125,P16,D08,1,1,1
34,-38.0,-7.0,50.0,1645192817.34375,P16,D08,1,1,1
35,-38.0,-7.0,50.0,1645192817.375,P16,D08,1,1,1
36,-38.0,-7.0,50.0,1645192817.40625,P16,D08,1,1,1
37,-38.0,-7.0,50.0,1645192817.4375,P16,D08,1,1,1
38,-38.0,-7.0,50.0,1645192817.46875,P16,D08,1,1,1
39,-38.0,-7.0,50.0,1645192817.5,P16,D08,1,1,1
40,-38.0,-7.0,50.0,1645192817.53125,P16,D08,1,1,1
41,-38.0,-7.0,50.0,1645192817.5625,P16,D08,1,1,1
42,-38.0,-7.0,50.0,1645192817.59375,P16,D08,1,1,1
43,-38.0,-7.0,50.0,1645192817.625,P16,D08,1,1,1
44,-38.0,-7.0,50.0,1645192817.65625,P16,D08,1,1,1
45,-38.0,-7.0,50.0,1645192817.6875,P16,D08,1,1,1
46,-38.0,-7.0,50.0,1645192817.71875,P16,D08,1,1,1
47,-38.0,-7.0,50.0,1645192817.75,P16,D08,1,1,1
48,-38.0,-7.0,50.0,1645192817.78125,P16,D08,1,1,1
49,-38.0,-7.0,50.0,1645192817.8125,P16,D08,1,1,1
50,-38.0,-7.0,50.0,1645192817.84375,P16,D08,1,1,1
51,-38.0,-7.0,50.0,1645192817.875,P16,D08,1,1,1
52,-38.0,-7.0,50.0,1645192817.90625,P16,D08,1,1,1
53,-38.0,-7.0,50.0,1645192817.9375,P16,D08,1,1,1
54,-38.0,-7.0,50.0,1645192817.96875,P16,D08,1,1,1
55,-38.0,-7.0,50.0,1645192818.0,P16,D08,1,1,1
56,-38.0,-7.0,50.0,1645192818.03125,P16,D08,1,1,1
57,-38.0,-7.0,50.0,1645192818.0625,P16,D08,1,1,1
58,-38.0,-7.0,50.0,1645192818.09375,P16,D08,1,1,1
59,-38.0,-7.0,50.0,1645192818.125,P16,D08,1,1,1
60,-38.0,-7.0,50.0,1645192818.15625,P16,D08,1,1,1
61,-38.0,-7.0,50.0,1645192818.1875,P16,D08,1,1,1
62,-38.0,-7.0,50.0,1645192818.21875,P16,D08,1,1,1
63,-38.0,-7.0,50.0,1645192818.25,P16,D08,1,1,1
64,-38.0,-7.0,50.0,1645192818.28125,P16,D08,1,1,1
65,-38.0,-7.0,50.0,1645192818.3125,P16,D08,1,1,1
66,-38.0,-7.0,50.0,1645192818.34375,P16,D08,1,1,1
67,-38.0,-7.0,50.0,1645192818.375,P16,D08,1,1,1
68,-38.0,-7.0,50.0,1645192818.40625,P16,D08,1,1,1
69,-39.0,-7.0,50.0,1645192818.4375,P16,D08,1,1,1
70,-38.0,-7.0,50.0,1645192818.46875,P16,D08,1,1,1
71,-38.0,-7.0,50.0,1645192818.5,P16,D08,1,1,1
72,-38.0,-7.0,50.0,1645192818.53125,P16,D08,1,1,1
73,-38.0,-7.0,50.0,1645192818.5625,P16,D08,1,1,1
74,-39.0,-7.0,50.0,1645192818.59375,P16,D08,1,1,1
75,-39.0,-7.0,51.0,1645192818.625,P16,D08,1,1,1
76,-38.0,-7.0,50.0,1645192818.65625,P16,D08,1,1,1
77,-39.0,-7.0,50.0,1645192818.6875,P16,D08,1,1,1
78,-38.0,-7.0,50.0,1645192818.71875,P16,D08,1,1,1
79,-38.0,-7.0,50.0,1645192818.75,P16,D08,1,1,1
80,-39.0,-7.0,50.0,1645192818.78125,P16,D08,1,1,1
81,-39.0,-7.0,50.0,1645192818.8125,P16,D08,1,1,1
82,-38.0,-7.0,50.0,1645192818.84375,P16,D08,1,1,1
83,-38.0,-7.0,50.0,1645192818.875,P16,D08,1,1,1
84,-38.0,-8.0,50.0,1645192818.90625,P16,D08,1,1,1
85,-39.0,-7.0,50.0,1645192818.9375,P16,D08,1,1,1
86,-39.0,-7.0,50.0,1645192818.96875,P16,D08,1,1,1
87,-39.0,-7.0,50.0,1645192819.0,P16,D08,1,1,1
88,-39.0,-7.0,50.0,1645192819.03125,P16,D08,1,1,1
89,-39.0,-7.0,50.0,1645192819.0625,P16,D08,1,1,1
90,-40.0,-6.0,49.0,1645192819.09375,P16,D08,1,1,1
91,-39.0,-7.0,49.0,1645192819.125,P16,D08,1,1,1
92,-39.0,-6.0,50.0,1645192819.15625,P16,D08,1,1,1
93,-39.0,-7.0,50.0,1645192819.1875,P16,D08,1,1,1
94,-40.0,-6.0,49.0,1645192819.21875,P16,D08,1,1,1
95,-40.0,-6.0,49.0,1645192819.25,P16,D08,1,1,1
96,-40.0,-8.0,49.0,1645192819.28125,P16,D08,1,1,1
97,-40.0,-6.0,50.0,1645192819.3125,P16,D08,1,1,1
98,-38.0,-5.0,50.0,1645192819.34375,P16,D08,1,1,1
99,-38.0,-5.0,50.0,1645192819.375,P16,D08,1,1,1
100,-39.0,-7.0,50.0,1645192819.40625,P16,D08,1,1,1
101,-39.0,-6.0,50.0,1645192819.4375,P16,D08,1,1,1
102,-40.0,-6.0,49.0,1645192819.46875,P16,D08,1,1,1
103,-39.0,-6.0,49.0,1645192819.5,P16,D08,1,1,1
104,-38.0,-7.0,50.0,1645192819.53125,P16,D08,1,1,1
105,-38.0,-7.0,50.0,1645192819.5625,P16,D08,1,1,1
106,-39.0,-7.0,50.0,1645192819.59375,P16,D08,1,1,1
107,-39.0,-7.0,49.0,1645192819.625,P16,D08,1,1,1
108,-39.0,-8.0,50.0,1645192819.65625,P16,D08,1,1,1
109,-39.0,-7.0,50.0,1645192819.6875,P16,D08,1,1,1
110,-39.0,-8.0,49.0,1645192819.71875,P16,D08,1,1,1
111,-40.0,-9.0,49.0,1645192819.75,P16,D08,1,1,1
112,-40.0,-8.0,49.0,1645192819.78125,P16,D08,1,1,1
113,-40.0,-8.0,49.0,1645192819.8125,P16,D08,1,1,1
114,-39.0,-8.0,50.0,1645192819.84375,P16,D08,1,1,1
115,-38.0,-7.0,51.0,1645192819.875,P16,D08,1,1,1
116,-38.0,-7.0,51.0,1645192819.90625,P16,D08,1,1,1
117,-38.0,-7.0,51.0,1645192819.9375,P16,D08,1,1,1
118,-37.0,-7.0,51.0,1645192819.96875,P16,D08,1,1,1
119,-38.0,-6.0,50.0,1645192820.0,P16,D08,1,1,1
120,-38.0,-6.0,51.0,1645192820.03125,P16,D08,1,1,1
121,-38.0,-6.0,50.0,1645192820.0625,P16,D08,1,1,1
122,-38.0,-7.0,50.0,1645192820.09375,P16,D08,1,1,1
123,-38.0,-7.0,50.0,1645192820.125,P16,D08,1,1,1
124,-38.0,-6.0,50.0,1645192820.15625,P16,D08,1,1,1
125,-38.0,-6.0,50.0,1645192820.1875,P16,D08,1,1,1
126,-38.0,-6.0,50.0,1645192820.21875,P16,D08,1,1,1
127,-38.0,-7.0,51.0,1645192820.25,P16,D08,1,1,1
128,-38.0,-7.0,51.0,1645192820.28125,P16,D08,1,1,1
129,-38.0,-7.0,51.0,1645192820.3125,P16,D08,1,1,1
130,-38.0,-7.0,51.0,1645192820.34375,P16,D08,1,1,1
131,-38.0,-7.0,51.0,1645192820.375,P16,D08,1,1,1
132,-38.0,-6.0,50.0,1645192820.40625,P16,D08,1,1,1
133,-38.0,-6.0,50.0,1645192820.4375,P16,D08,1,1,1
134,-39.0,-7.0,50.0,1645192820.46875,P16,D08,1,1,1
135,-38.0,-7.0,50.0,1645192820.5,P16,D08,1,1,1
136,-38.0,-7.0,50.0,1645192820.53125,P16,D08,1,1,1
137,-38.0,-7.0,51.0,1645192820.5625,P16,D08,1,1,1
138,-38.0,-6.0,50.0,1645192820.59375,P16,D08,1,1,1
139,-38.0,-6.0,50.0,1645192820.625,P16,D08,1,1,1
140,-38.0,-6.0,50.0,1645192820.65625,P16,D08,1,1,1
141,-38.0,-7.0,51.0,1645192820.6875,P16,D08,1,1,1
142,-38.0,-6.0,50.0,1645192820.71875,P16,D08,1,1,1
143,-38.0,-5.0,50.0,1645192820.75,P16,D08,1,1,1
144,-38.0,-5.0,51.0,1645192820.78125,P16,D08,1,1,1
145,-38.0,-5.0,50.0,1645192820.8125,P16,D08,1,1,1
146,-39.0,-6.0,50.0,1645192820.84375,P16,D08,1,1,1
147,-38.0,-6.0,50.0,1645192820.875,P16,D08,1,1,1
148,-38.0,-6.0,50.0,1645192820.90625,P16,D08,1,1,1
149,-38.0,-6.0,50.0,1645192820.9375,P16,D08,1,1,1
150,-38.0,-5.0,50.0,1645192820.96875,P16,D08,1,1,1
151,-38.0,-5.0,50.0,1645192821.0,P16,D08,1,1,1
152,-38.0,-6.0,51.0,1645192821.03125,P16,D08,1,1,1
153,-38.0,-7.0,51.0,1645192821.0625,P16,D08,1,1,1
154,-39.0,-6.0,51.0,1645192821.09375,P16,D08,1,1,1
155,-38.0,-6.0,51.0,1645192821.125,P16,D08,1,1,1
156,-38.0,-6.0,51.0,1645192821.15625,P16,D08,1,1,1
157,-38.0,-6.0,50.0,1645192821.1875,P16,D08,1,1,1
158,-38.0,-6.0,50.0,1645192821.21875,P16,D08,1,1,1
159,-38.0,-6.0,50.0,1645192821.25,P16,D08,1,1,1
160,-38.0,-6.0,50.0,1645192821.28125,P16,D08,1,1,1
161,-38.0,-6.0,51.0,1645192821.3125,P16,D08,1,1,1
162,-38.0,-5.0,51.0,1645192821.34375,P16,D08,1,1,1
163,-38.0,-4.0,51.0,1645192821.375,P16,D08,1,1,1
164,-38.0,-4.0,51.0,1645192821.40625,P16,D08,1,1,1
165,-38.0,-6.0,52.0,1645192821.4375,P16,D08,1,1,1
166,-37.0,-5.0,50.0,1645192821.46875,P16,D08,1,1,1
167,-38.0,-4.0,50.0,1645192821.5,P16,D08,1,1,1
168,-40.0,-4.0,51.0,1645192821.53125,P16,D08,1,1,1
169,-39.0,-4.0,51.0,1645192821.5625,P16,D08,1,1,1
170,-36.0,-4.0,52.0,1645192821.59375,P16,D08,1,1,1
171,-37.0,-4.0,52.0,1645192821.625,P16,D08,1,1,1
172,-36.0,-3.0,52.0,1645192821.65625,P16,D08,1,1,1
173,-34.0,-3.0,52.0,1645192821.6875,P16,D08,1,1,1
174,-36.0,-3.0,52.0,1645192821.71875,P16,D08,1,1,1
175,-36.0,-3.0,52.0,1645192821.75,P16,D08,1,1,1
176,-35.0,-2.0,52.0,1645192821.78125,P16,D08,1,1,1
177,-35.0,-2.0,53.0,1645192821.8125,P16,D08,1,1,1
178,-35.0,-3.0,53.0,1645192821.84375,P16,D08,1,1,1
179,-36.0,-3.0,52.0,1645192821.875,P16,D08,1,1,1
180,-36.0,-2.0,52.0,1645192821.90625,P16,D08,1,1,1
181,-35.0,-3.0,53.0,1645192821.9375,P16,D08,1,1,1
182,-35.0,-3.0,53.0,1645192821.96875,P16,D08,1,1,1
183,-34.0,-3.0,53.0,1645192822.0,P16,D08,1,1,1
184,-36.0,-4.0,53.0,1645192822.03125,P16,D08,1,1,1
185,-36.0,-4.0,52.0,1645192822.0625,P16,D08,1,1,1
186,-36.0,-3.0,52.0,1645192822.09375,P16,D08,1,1,1
187,-35.0,-3.0,52.0,1645192822.125,P16,D08,1,1,1
188,-36.0,-3.0,52.0,1645192822.15625,P16,D08,1,1,1
189,-38.0,-4.0,51.0,1645192822.1875,P16,D08,1,1,1
190,-37.0,-4.0,52.0,1645192822.21875,P16,D08,1,1,1
191,-36.0,-4.0,52.0,1645192822.25,P16,D08,1,1,1
192,-36.0,-4.0,52.0,1645192822.28125,P16,D08,1,1,1
193,-37.0,-4.0,52.0,1645192822.3125,P16,D08,1,1,1
194,-36.0,-4.0,52.0,1645192822.34375,P16,D08,1,1,1
195,-37.0,-5.0,52.0,1645192822.375,P16,D08,1,1,1
196,-36.0,-4.0,52.0,1645192822.40625,P16,D08,1,1,1
197,-35.0,-4.0,52.0,1645192822.4375,P16,D08,1,1,1
198,-36.0,-4.0,52.0,1645192822.46875,P16,D08,1,1,1
199,-37.0,-5.0,51.0,1645192822.5,P16,D08,1,1,1
200,-38.0,-5.0,51.0,1645192822.53125,P16,D08,1,1,1
201,-36.0,-5.0,51.0,1645192822.5625,P16,D08,1,1,1
202,-36.0,-5.0,52.0,1645192822.59375,P16,D08,1,1,1
203,-35.0,-5.0,53.0,1645192822.625,P16,D08,1,1,1
204,-36.0,-5.0,52.0,1645192822.65625,P16,D08,1,1,1
205,-37.0,-6.0,51.0,1645192822.6875,P16,D08,1,1,1
206,-37.0,-6.0,52.0,1645192822.71875,P16,D08,1,1,1
207,-37.0,-5.0,51.0,1645192822.75,P16,D08,1,1,1
208,-37.0,-6.0,51.0,1645192822.78125,P16,D08,1,1,1
209,-37.0,-6.0,52.0,1645192822.8125,P16,D08,1,1,1
210,-37.0,-6.0,51.0,1645192822.84375,P16,D08,1,1,1
211,-37.0,-6.0,51.0,1645192822.875,P16,D08,1,1,1
212,-37.0,-6.0,51.0,1645192822.90625,P16,D08,1,1,1
213,-37.0,-6.0,51.0,1645192822.9375,P16,D08,1,1,1
214,-37.0,-6.0,51.0,1645192822.96875,P16,D08,1,1,1
215,-37.0,-6.0,51.0,1645192823.0,P16,D08,1,1,1
216,-37.0,-7.0,51.0,1645192823.03125,P16,D08,1,1,1
217,-37.0,-7.0,51.0,1645192823.0625,P16,D08,1,1,1
218,-37.0,-7.0,51.0,1645192823.09375,P16,D08,1,1,1
219,-37.0,-7.0,51.0,1645192823.125,P16,D08,1,1,1
220,-37.0,-7.0,51.0,1645192823.15625,P16,D08,1,1,1
221,-37.0,-7.0,51.0,1645192823.1875,P16,D08,1,1,1
222,-37.0,-6.0,51.0,1645192823.21875,P16,D08,1,1,1
223,-37.0,-6.0,51.0,1645192823.25,P16,D08,1,1,1
224,-37.0,-6.0,51.0,1645192823.28125,P16,D08,1,1,1
225,-37.0,-7.0,51.0,1645192823.3125,P16,D08,1,1,1
226,-37.0,-7.0,51.0,1645192823.34375,P16,D08,1,1,1
227,-38.0,-6.0,51.0,1645192823.375,P16,D08,1,1,1
228,-37.0,-6.0,51.0,1645192823.40625,P16,D08,1,1,1
229,-37.0,-6.0,51.0,1645192823.4375,P16,D08,1,1,1
230,-37.0,-6.0,51.0,1645192823.46875,P16,D08,1,1,1
231,-37.0,-6.0,51.0,1645192823.5,P16,D08,1,1,1
232,-37.0,-6.0,51.0,1645192823.53125,P16,D08,1,1,1
233,-38.0,-7.0,51.0,1645192823.5625,P16,D08,1,1,1
234,-38.0,-6.0,51.0,1645192823.59375,P16,D08,1,1,1
235,-37.0,-6.0,51.0,1645192823.625,P16,D08,1,1,1
236,-37.0,-6.0,51.0,1645192823.65625,P16,D08,1,1,1
237,-37.0,-5.0,51.0,1645192823.6875,P16,D08,1,1,1
238,-37.0,-5.0,51.0,1645192823.71875,P16,D08,1,1,1
239,-37.0,-6.0,51.0,1645192823.75,P16,D08,1,1,1
240,-37.0,-6.0,51.0,1645192823.78125,P16,D08,1,1,1
241,-37.0,-6.0,51.0,1645192823.8125,P16,D08,1,1,1
242,-37.0,-6.0,51.0,1645192823.84375,P16,D08,1,1,1
243,-37.0,-6.0,51.0,1645192823.875,P16,D08,1,1,1
244,-37.0,-6.0,51.0,1645192823.90625,P16,D08,1,1,1
245,-37.0,-6.0,51.0,1645192823.9375,P16,D08,1,1,1
246,-37.0,-6.0,51.0,1645192823.96875,P16,D08,1,1,1
247,-37.0,-6.0,51.0,1645192824.0,P16,D08,1,1,1
248,-37.0,-6.0,51.0,1645192824.03125,P16,D08,1,1,1
249,-37.0,-6.0,51.0,1645192824.0625,P16,D08,1,1,1
250,-37.0,-6.0,51.0,1645192824.09375,P16,D08,1,1,1
251,-37.0,-6.0,51.0,1645192824.125,P16,D08,1,1,1
252,-37.0,-7.0,51.0,1645192824.15625,P16,D08,1,1,1
253,-37.0,-6.0,51.0,1645192824.1875,P16,D08,1,1,1
254,-37.0,-6.0,51.0,1645192824.21875,P16,D08,1,1,1
255,-37.0,-6.0,51.0,1645192824.25,P16,D08,1,1,1
256,-37.0,-8.0,51.0,1645192824.28125,P16,D08,1,1,1
257,-38.0,-8.0,51.0,1645192824.3125,P16,D08,1,1,1
258,-38.0,-7.0,51.0,1645192824.34375,P16,D08,1,1,1
259,-37.0,-7.0,51.0,1645192824.375,P16,D08,1,1,1
260,-37.0,-6.0,51.0,1645192824.40625,P16,D08,1,1,1
261,-37.0,-6.0,51.0,1645192824.4375,P16,D08,1,1,1
262,-37.0,-6.0,51.0,1645192824.46875,P16,D08,1,1,1
263,-38.0,-7.0,51.0,1645192824.5,P16,D08,1,1,1
264,-38.0,-7.0,51.0,1645192824.53125,P16,D08,1,1,1
265,-38.0,-7.0,50.0,1645192824.5625,P16,D08,1,1,1
266,-37.0,-6.0,51.0,1645192824.59375,P16,D08,1,1,1
267,-36.0,-5.0,52.0,1645192824.625,P16,D08,1,1,1
268,-36.0,-6.0,52.0,1645192824.65625,P16,D08,1,1,1
269,-38.0,-6.0,51.0,1645192824.6875,P16,D08,1,1,1
270,-37.0,-5.0,51.0,1645192824.71875,P16,D08,1,1,1
271,-37.0,-6.0,51.0,1645192824.75,P16,D08,1,1,1
272,-37.0,-6.0,51.0,1645192824.78125,P16,D08,1,1,1
273,-37.0,-6.0,51.0,1645192824.8125,P16,D08,1,1,1
274,-37.0,-6.0,51.0,1645192824.84375,P16,D08,1,1,1
275,-37.0,-6.0,51.0,1645192824.875,P16,D08,1,1,1
276,-37.0,-5.0,51.0,1645192824.90625,P16,D08,1,1,1
277,-37.0,-6.0,52.0,1645192824.9375,P16,D08,1,1,1
278,-36.0,-6.0,52.0,1645192824.96875,P16,D08,1,1,1
279,-37.0,-6.0,52.0,1645192825.0,P16,D08,1,1,1
280,-37.0,-5.0,51.0,1645192825.03125,P16,D08,1,1,1
281,-37.0,-6.0,52.0,1645192825.0625,P16,D08,1,1,1
282,-37.0,-5.0,51.0,1645192825.09375,P16,D08,1,1,1
283,-37.0,-5.0,51.0,1645192825.125,P16,D08,1,1,1
284,-37.0,-5.0,51.0,1645192825.15625,P16,D08,1,1,1
285,-37.0,-5.0,51.0,1645192825.1875,P16,D08,1,1,1
286,-37.0,-5.0,51.0,1645192825.21875,P16,D08,1,1,1
287,-37.0,-6.0,51.0,1645192825.25,P16,D08,1,1,1
288,-37.0,-5.0,52.0,1645192825.28125,P16,D08,1,1,1
289,-36.0,-5.0,52.0,1645192825.3125,P16,D08,1,1,1
290,-37.0,-5.0,51.0,1645192825.34375,P16,D08,1,1,1
291,-38.0,-5.0,50.0,1645192825.375,P16,D08,1,1,1
292,-38.0,-5.0,51.0,1645192825.40625,P16,D08,1,1,1
293,-37.0,-5.0,51.0,1645192825.4375,P16,D08,1,1,1
294,-37.0,-5.0,51.0,1645192825.46875,P16,D08,1,1,1
295,-38.0,-5.0,51.0,1645192825.5,P16,D08,1,1,1
296,-38.0,-5.0,51.0,1645192825.53125,P16,D08,1,1,1
297,-37.0,-5.0,51.0,1645192825.5625,P16,D08,1,1,1
298,-36.0,-6.0,52.0,1645192825.59375,P16,D08,1,1,1
299,-37.0,-6.0,51.0,1645192825.625,P16,D08,1,1,1
300,-37.0,-6.0,51.0,1645192825.65625,P16,D08,1,1,1
301,-37.0,-5.0,51.0,1645192825.6875,P16,D08,1,1,1
302,-37.0,-5.0,52.0,1645192825.71875,P16,D08,1,1,1
303,-37.0,-5.0,51.0,1645192825.75,P16,D08,1,1,1
304,-37.0,-6.0,52.0,1645192825.78125,P16,D08,1,1,1
305,-37.0,-6.0,52.0,1645192825.8125,P16,D08,1,1,1
306,-36.0,-5.0,51.0,1645192825.84375,P16,D08,1,1,1
307,-36.0,-5.0,52.0,1645192825.875,P16,D08,1,1,1
308,-36.0,-5.0,52.0,1645192825.90625,P16,D08,1,1,1
309,-37.0,-5.0,52.0,1645192825.9375,P16,D08,1,1,1
310,-37.0,-5.0,52.0,1645192825.96875,P16,D08,1,1,1
311,-37.0,-5.0,52.0,1645192826.0,P16,D08,1,1,1
312,-36.0,-5.0,52.0,1645192826.03125,P16,D08,1,1,1
313,-37.0,-5.0,51.0,1645192826.0625,P16,D08,1,1,1
314,-37.0,-5.0,51.0,1645192826.09375,P16,D08,1,1,1
315,-36.0,-5.0,52.0,1645192826.125,P16,D08,1,1,1
316,-36.0,-5.0,52.0,1645192826.15625,P16,D08,1,1,1
317,-36.0,-5.0,51.0,1645192826.1875,P16,D08,1,1,1
318,-36.0,-5.0,52.0,1645192826.21875,P16,D08,1,1,1
319,-37.0,-6.0,51.0,1645192826.25,P16,D08,1,1,1
320,-36.0,-6.0,52.0,1645192826.28125,P16,D08,1,1,1
321,-36.0,-6.0,52.0,1645192826.3125,P16,D08,1,1,1
322,-36.0,-6.0,52.0,1645192826.34375,P16,D08,1,1,1
323,-37.0,-6.0,52.0,1645192826.375,P16,D08,1,1,1
324,-37.0,-6.0,51.0,1645192826.40625,P16,D08,1,1,1
325,-37.0,-6.0,51.0,1645192826.4375,P16,D08,1,1,1
326,-37.0,-7.0,51.0,1645192826.46875,P16,D08,1,1,1
327,-37.0,-6.0,51.0,1645192826.5,P16,D08,1,1,1
328,-37.0,-7.0,51.0,1645192826.53125,P16,D08,1,1,1
329,-36.0,-6.0,51.0,1645192826.5625,P16,D08,1,1,1
330,-37.0,-7.0,52.0,1645192826.59375,P16,D08,1,1,1
331,-38.0,-8.0,51.0,1645192826.625,P16,D08,1,1,1
332,-39.0,-7.0,50.0,1645192826.65625,P16,D08,1,1,1
333,-38.0,-6.0,50.0,1645192826.6875,P16,D08,1,1,1
334,-39.0,-6.0,51.0,1645192826.71875,P16,D08,1,1,1
335,-38.0,-6.0,51.0,1645192826.75,P16,D08,1,1,1
336,-38.0,-6.0,50.0,1645192826.78125,P16,D08,1,1,1
337,-38.0,-6.0,51.0,1645192826.8125,P16,D08,1,1,1
338,-37.0,-6.0,51.0,1645192826.84375,P16,D08,1,1,1
339,-37.0,-6.0,51.0,1645192826.875,P16,D08,1,1,1
340,-38.0,-6.0,51.0,1645192826.90625,P16,D08,1,1,1
341,-38.0,-6.0,51.0,1645192826.9375,P16,D08,1,1,1
342,-38.0,-6.0,51.0,1645192826.96875,P16,D08,1,1,1
343,-38.0,-6.0,51.0,1645192827.0,P16,D08,1,1,1
344,-37.0,-5.0,51.0,1645192827.03125,P16,D08,1,1,1
345,-37.0,-5.0,51.0,1645192827.0625,P16,D08,1,1,1
346,-37.0,-6.0,51.0,1645192827.09375,P16,D08,1,1,1
347,-37.0,-6.0,51.0,1645192827.125,P16,D08,1,1,1
348,-37.0,-6.0,51.0,1645192827.15625,P16,D08,1,1,1
349,-38.0,-6.0,51.0,1645192827.1875,P16,D08,1,1,1
350,-38.0,-5.0,51.0,1645192827.21875,P16,D08,1,1,1
351,-38.0,-5.0,51.0,1645192827.25,P16,D08,1,1,1
352,-37.0,-4.0,51.0,1645192827.28125,P16,D08,1,1,1
353,-37.0,-5.0,52.0,1645192827.3125,P16,D08,1,1,1
354,-37.0,-5.0,51.0,1645192827.34375,P16,D08,1,1,1
355,-38.0,-5.0,51.0,1645192827.375,P16,D08,1,1,1
356,-37.0,-4.0,51.0,1645192827.40625,P16,D08,1,1,1
357,-37.0,-4.0,51.0,1645192827.4375,P16,D08,1,1,1
358,-37.0,-5.0,52.0,1645192827.46875,P16,D08,1,1,1
359,-38.0,-5.0,51.0,1645192827.5,P16,D08,1,1,1
360,-37.0,-5.0,51.0,1645192827.53125,P16,D08,1,1,1
361,-38.0,-4.0,51.0,1645192827.5625,P16,D08,1,1,1
362,-37.0,-4.0,51.0,1645192827.59375,P16,D08,1,1,1
363,-37.0,-4.0,51.0,1645192827.625,P16,D08,1,1,1
364,-37.0,-4.0,51.0,1645192827.65625,P16,D08,1,1,1
365,-38.0,-4.0,51.0,1645192827.6875,P16,D08,1,1,1
366,-37.0,-4.0,51.0,1645192827.71875,P16,D08,1,1,1
367,-37.0,-4.0,51.0,1645192827.75,P16,D08,1,1,1
368,-37.0,-5.0,52.0,1645192827.78125,P16,D08,1,1,1
369,-38.0,-5.0,51.0,1645192827.8125,P16,D08,1,1,1
370,-37.0,-5.0,51.0,1645192827.84375,P16,D08,1,1,1
371,-37.0,-5.0,51.0,1645192827.875,P16,D08,1,1,1
372,-37.0,-5.0,51.0,1645192827.90625,P16,D08,1,1,1
373,-37.0,-5.0,51.0,1645192827.9375,P16,D08,1,1,1
374,-37.0,-5.0,51.0,1645192827.96875,P16,D08,1,1,1
375,-37.0,-5.0,51.0,1645192828.0,P16,D08,1,1,1
376,-37.0,-5.0,51.0,1645192828.03125,P16,D08,1,1,1
377,-37.0,-5.0,51.0,1645192828.0625,P16,D08,1,1,1
378,-37.0,-5.0,51.0,1645192828.09375,P16,D08,1,1,1
379,-37.0,-5.0,51.0,1645192828.125,P16,D08,1,1,1
380,-37.0,-5.0,52.0,1645192828.15625,P16,D08,1,1,1
381,-36.0,-4.0,51.0,1645192828.1875,P16,D08,1,1,1
382,-37.0,-6.0,52.0,1645192828.21875,P16,D08,1,1,1
383,-38.0,-6.0,52.0,1645192828.25,P16,D08,1,1,1
384,-37.0,-5.0,52.0,1645192828.28125,P16,D08,1,1,1
385,-39.0,-3.0,50.0,1645192828.3125,P16,D08,1,1,1
386,-38.0,-3.0,50.0,1645192828.34375,P16,D08,1,1,1
387,-37.0,-5.0,51.0,1645192828.375,P16,D08,1,1,1
388,-37.0,-5.0,51.0,1645192828.40625,P16,D08,1,1,1
389,-38.0,-4.0,51.0,1645192828.4375,P16,D08,1,1,1
390,-38.0,-4.0,51.0,1645192828.46875,P16,D08,1,1,1
391,-37.0,-5.0,51.0,1645192828.5,P16,D08,1,1,1
392,-38.0,-3.0,51.0,1645192828.53125,P16,D08,1,1,1
393,-38.0,-4.0,51.0,1645192828.5625,P16,D08,1,1,1
394,-37.0,-5.0,52.0,1645192828.59375,P16,D08,1,1,1
395,-37.0,-5.0,52.0,1645192828.625,P16,D08,1,1,1
396,-38.0,-3.0,51.0,1645192828.65625,P16,D08,1,1,1
397,-38.0,-3.0,51.0,1645192828.6875,P16,D08,1,1,1
398,-37.0,-4.0,51.0,1645192828.71875,P16,D08,1,1,1
399,-37.0,-5.0,52.0,1645192828.75,P16,D08,1,1,1
400,-38.0,-4.0,51.0,1645192828.78125,P16,D08,1,1,1
401,-37.0,-4.0,51.0,1645192828.8125,P16,D08,1,1,1
402,-37.0,-5.0,52.0,1645192828.84375,P16,D08,1,1,1
403,-37.0,-5.0,51.0,1645192828.875,P16,D08,1,1,1
404,-37.0,-4.0,51.0,1645192828.90625,P16,D08,1,1,1
405,-36.0,-5.0,51.0,1645192828.9375,P16,D08,1,1,1
406,-37.0,-5.0,52.0,1645192828.96875,P16,D08,1,1,1
407,-37.0,-5.0,51.0,1645192829.0,P16,D08,1,1,1
408,-37.0,-5.0,51.0,1645192829.03125,P16,D08,1,1,1
409,-36.0,-5.0,52.0,1645192829.0625,P16,D08,1,1,1
410,-36.0,-5.0,52.0,1645192829.09375,P16,D08,1,1,1
411,-37.0,-6.0,51.0,1645192829.125,P16,D08,1,1,1
412,-37.0,-5.0,51.0,1645192829.15625,P16,D08,1,1,1
413,-37.0,-6.0,51.0,1645192829.1875,P16,D08,1,1,1
414,-37.0,-6.0,51.0,1645192829.21875,P16,D08,1,1,1
415,-38.0,-6.0,51.0,1645192829.25,P16,D08,1,1,1
416,-36.0,-5.0,51.0,1645192829.28125,P16,D08,1,1,1
417,-36.0,-5.0,52.0,1645192829.3125,P16,D08,1,1,1
418,-36.0,-5.0,51.0,1645192829.34375,P16,D08,1,1,1
419,-37.0,-6.0,51.0,1645192829.375,P16,D08,1,1,1
420,-37.0,-6.0,51.0,1645192829.40625,P16,D08,1,1,1
421,-37.0,-6.0,51.0,1645192829.4375,P16,D08,1,1,1
422,-37.0,-6.0,52.0,1645192829.46875,P16,D08,1,1,1
423,-37.0,-5.0,52.0,1645192829.5,P16,D08,1,1,1
424,-37.0,-5.0,52.0,1645192829.53125,P16,D08,1,1,1
425,-36.0,-6.0,52.0,1645192829.5625,P16,D08,1,1,1
426,-35.0,-6.0,52.0,1645192829.59375,P16,D08,1,1,1
427,-36.0,-5.0,52.0,1645192829.625,P16,D08,1,1,1
428,-37.0,-5.0,52.0,1645192829.65625,P16,D08,1,1,1
429,-36.0,-5.0,52.0,1645192829.6875,P16,D08,1,1,1
430,-37.0,-5.0,52.0,1645192829.71875,P16,D08,1,1,1
431,-36.0,-5.0,52.0,1645192829.75,P16,D08,1,1,1
432,-36.0,-5.0,52.0,1645192829.78125,P16,D08,1,1,1
433,-36.0,-5.0,52.0,1645192829.8125,P16,D08,1,1,1
434,-36.0,-5.0,52.0,1645192829.84375,P16,D08,1,1,1
435,-36.0,-5.0,52.0,1645192829.875,P16,D08,1,1,1
436,-36.0,-5.0,52.0,1645192829.90625,P16,D08,1,1,1
437,-36.0,-5.0,52.0,1645192829.9375,P16,D08,1,1,1
438,-36.0,-5.0,52.0,1645192829.96875,P16,D08,1,1,1
439,-36.0,-5.0,52.0,1645192830.0,P16,D08,1,1,1
440,-36.0,-6.0,52.0,1645192830.03125,P16,D08,1,1,1
441,-36.0,-5.0,52.0,1645192830.0625,P16,D08,1,1,1
442,-36.0,-5.0,52.0,1645192830.09375,P16,D08,1,1,1
443,-36.0,-5.0,52.0,1645192830.125,P16,D08,1,1,1
444,-36.0,-5.0,52.0,1645192830.15625,P16,D08,1,1,1
445,-37.0,-6.0,52.0,1645192830.1875,P16,D08,1,1,1
446,-36.0,-6.0,52.0,1645192830.21875,P16,D08,1,1,1
447,-36.0,-6.0,52.0,1645192830.25,P16,D08,1,1,1
448,-36.0,-5.0,52.0,1645192830.28125,P16,D08,1,1,1
449,-36.0,-6.0,52.0,1645192830.3125,P16,D08,1,1,1
450,-36.0,-6.0,52.0,1645192830.34375,P16,D08,1,1,1
451,-36.0,-5.0,52.0,1645192830.375,P16,D08,1,1,1
452,-36.0,-6.0,52.0,1645192830.40625,P16,D08,1,1,1
453,-36.0,-5.0,52.0,1645192830.4375,P16,D08,1,1,1
454,-36.0,-5.0,52.0,1645192830.46875,P16,D08,1,1,1
455,-37.0,-6.0,52.0,1645192830.5,P16,D08,1,1,1
456,-37.0,-6.0,52.0,1645192830.53125,P16,D08,1,1,1
457,-36.0,-6.0,52.0,1645192830.5625,P16,D08,1,1,1
458,-36.0,-6.0,52.0,1645192830.59375,P16,D08,1,1,1
459,-36.0,-6.0,52.0,1645192830.625,P16,D08,1,1,1
460,-36.0,-6.0,52.0,1645192830.65625,P16,D08,1,1,1
461,-36.0,-6.0,52.0,1645192830.6875,P16,D08,1,1,1
462,-36.0,-6.0,52.0,1645192830.71875,P16,D08,1,1,1
463,-36.0,-6.0,52.0,1645192830.75,P16,D08,1,1,1
464,-36.0,-6.0,52.0,1645192830.78125,P16,D08,1,1,1
465,-37.0,-6.0,51.0,1645192830.8125,P16,D08,1,1,1
466,-36.0,-6.0,51.0,1645192830.84375,P16,D08,1,1,1
467,-36.0,-5.0,52.0,1645192830.875,P16,D08,1,1,1
468,-36.0,-6.0,52.0,1645192830.90625,P16,D08,1,1,1
469,-37.0,-6.0,52.0,1645192830.9375,P16,D08,1,1,1
470,-37.0,-6.0,51.0,1645192830.96875,P16,D08,1,1,1
471,-37.0,-6.0,52.0,1645192831.0,P16,D08,1,1,1
472,-36.0,-6.0,52.0,1645192831.03125,P16,D08,1,1,1
473,-37.0,-6.0,51.0,1645192831.0625,P16,D08,1,1,1
474,-36.0,-6.0,51.0,1645192831.09375,P16,D08,1,1,1
475,-37.0,-6.0,51.0,1645192831.125,P16,D08,1,1,1
476,-37.0,-6.0,51.0,1645192831.15625,P16,D08,1,1,1
477,-37.0,-6.0,52.0,1645192831.1875,P16,D08,1,1,1
478,-37.0,-6.0,52.0,1645192831.21875,P16,D08,1,1,1
479,-37.0,-6.0,52.0,1645192831.25,P16,D08,1,1,1
480,-37.0,-6.0,51.0,1645192831.28125,P16,D08,1,1,1
481,-36.0,-6.0,52.0,1645192831.3125,P16,D08,1,1,1
482,-36.0,-6.0,51.0,1645192831.34375,P16,D08,1,1,1
483,-37.0,-6.0,51.0,1645192831.375,P16,D08,1,1,1
484,-37.0,-6.0,52.0,1645192831.40625,P16,D08,1,1,1
485,-37.0,-6.0,52.0,1645192831.4375,P16,D08,1,1,1
486,-37.0,-6.0,51.0,1645192831.46875,P16,D08,1,1,1
487,-37.0,-6.0,51.0,1645192831.5,P16,D08,1,1,1
488,-37.0,-6.0,51.0,1645192831.53125,P16,D08,1,1,1
489,-37.0,-6.0,51.0,1645192831.5625,P16,D08,1,1,1
490,-37.0,-6.0,51.0,1645192831.59375,P16,D08,1,1,1
491,-37.0,-6.0,51.0,1645192831.625,P16,D08,1,1,1
492,-37.0,-6.0,51.0,1645192831.65625,P16,D08,1,1,1
493,-37.0,-6.0,51.0,1645192831.6875,P16,D08,1,1,1
494,-37.0,-6.0,51.0,1645192831.71875,P16,D08,1,1,1
495,-37.0,-7.0,51.0,1645192831.75,P16,D08,1,1,1
496,-37.0,-6.0,51.0,1645192831.78125,P16,D08,1,1,1
497,-37.0,-6.0,51.0,1645192831.8125,P16,D08,1,1,1
498,-37.0,-6.0,51.0,1645192831.84375,P16,D08,1,1,1
499,-37.0,-6.0,51.0,1645192831.875,P16,D08,1,1,1
500,-37.0,-6.0,51.0,1645192831.90625,P16,D08,1,1,1
501,-37.0,-6.0,51.0,1645192831.9375,P16,D08,1,1,1
502,-37.0,-6.0,51.0,1645192831.96875,P16,D08,1,1,1
503,-37.0,-6.0,51.0,1645192832.0,P16,D08,1,1,1
504,-37.0,-6.0,51.0,1645192832.03125,P16,D08,1,1,1
505,-37.0,-6.0,52.0,1645192832.0625,P16,D08,1,1,1
506,-37.0,-6.0,51.0,1645192832.09375,P16,D08,1,1,1
507,-37.0,-6.0,51.0,1645192832.125,P16,D08,1,1,1
508,-37.0,-6.0,51.0,1645192832.15625,P16,D08,1,1,1
509,-37.0,-7.0,51.0,1645192832.1875,P16,D08,1,1,1
510,-37.0,-6.0,51.0,1645192832.21875,P16,D08,1,1,1
511,-37.0,-6.0,51.0,1645192832.25,P16,D08,1,1,1
512,-37.0,-6.0,51.0,1645192832.28125,P16,D08,1,1,1
513,-37.0,-6.0,51.0,1645192832.3125,P16,D08,1,1,1
514,-37.0,-6.0,51.0,1645192832.34375,P16,D08,1,1,1
515,-37.0,-6.0,51.0,1645192832.375,P16,D08,1,1,1
516,-37.0,-6.0,51.0,1645192832.40625,P16,D08,1,1,1
517,-37.0,-6.0,51.0,1645192832.4375,P16,D08,1,1,1
518,-37.0,-6.0,51.0,1645192832.46875,P16,D08,1,1,1
519,-37.0,-6.0,51.0,1645192832.5,P16,D08,1,1,1
520,-37.0,-6.0,51.0,1645192832.53125,P16,D08,1,1,1
521,-37.0,-6.0,51.0,1645192832.5625,P16,D08,1,1,1
522,-37.0,-6.0,51.0,1645192832.59375,P16,D08,1,1,1
523,-37.0,-6.0,51.0,1645192832.625,P16,D08,1,1,1
524,-37.0,-6.0,51.0,1645192832.65625,P16,D08,1,1,1
525,-37.0,-6.0,51.0,1645192832.6875,P16,D08,1,1,1
526,-37.0,-6.0,51.0,1645192832.71875,P16,D08,1,1,1
527,-37.0,-6.0,51.0,1645192832.75,P16,D08,1,1,1
528,-37.0,-6.0,51.0,1645192832.78125,P16,D08,1,1,1
529,-37.0,-6.0,51.0,1645192832.8125,P16,D08,1,1,1
530,-37.0,-6.0,51.0,1645192832.84375,P16,D08,1,1,1
531,-37.0,-6.0,51.0,1645192832.875,P16,D08,1,1,1
532,-37.0,-6.0,51.0,1645192832.90625,P16,D08,1,1,1
533,-37.0,-6.0,51.0,1645192832.9375,P16,D08,1,1,1
534,-37.0,-6.0,51.0,1645192832.96875,P16,D08,1,1,1
535,-37.0,-6.0,51.0,1645192833.0,P16,D08,1,1,1
536,-37.0,-6.0,51.0,1645192833.03125,P16,D08,1,1,1
537,-37.0,-6.0,51.0,1645192833.0625,P16,D08,1,1,1
538,-37.0,-6.0,51.0,1645192833.09375,P16,D08,1,1,1
539,-37.0,-6.0,51.0,1645192833.125,P16,D08,1,1,1
540,-37.0,-6.0,51.0,1645192833.15625,P16,D08,1,1,1
541,-37.0,-6.0,51.0,1645192833.1875,P16,D08,1,1,1
542,-37.0,-6.0,51.0,1645192833.21875,P16,D08,1,1,1
543,-37.0,-6.0,51.0,1645192833.25,P16,D08,1,1,1
544,-37.0,-6.0,51.0,1645192833.28125,P16,D08,1,1,1
545,-37.0,-6.0,51.0,1645192833.3125,P16,D08,1,1,1
546,-37.0,-6.0,51.0,1645192833.34375,P16,D08,1,1,1
547,-37.0,-6.0,51.0,1645192833.375,P16,D08,1,1,1
548,-37.0,-6.0,51.0,1645192833.40625,P16,D08,1,1,1
549,-37.0,-6.0,51.0,1645192833.4375,P16,D08,1,1,1
550,-37.0,-6.0,51.0,1645192833.46875,P16,D08,1,1,1
551,-37.0,-6.0,51.0,1645192833.5,P16,D08,1,1,1
552,-37.0,-6.0,51.0,1645192833.53125,P16,D08,1,1,1
553,-37.0,-6.0,51.0,1645192833.5625,P16,D08,1,1,1
554,-37.0,-6.0,51.0,1645192833.59375,P16,D08,1,1,1
555,-37.0,-6.0,51.0,1645192833.625,P16,D08,1,1,1
556,-37.0,-6.0,51.0,1645192833.65625,P16,D08,1,1,1
557,-37.0,-6.0,51.0,1645192833.6875,P16,D08,1,1,1
558,-37.0,-6.0,51.0,1645192833.71875,P16,D08,1,1,1
559,-37.0,-6.0,52.0,1645192833.75,P16,D08,1,1,1
560,-37.0,-6.0,52.0,1645192833.78125,P16,D08,1,1,1
561,-37.0,-6.0,51.0,1645192833.8125,P16,D08,1,1,1
562,-37.0,-6.0,51.0,1645192833.84375,P16,D08,1,1,1
563,-37.0,-6.0,51.0,1645192833.875,P16,D08,1,1,1
564,-37.0,-6.0,51.0,1645192833.90625,P16,D08,1,1,1
565,-37.0,-6.0,51.0,1645192833.9375,P16,D08,1,1,1
566,-37.0,-6.0,51.0,1645192833.96875,P16,D08,1,1,1
567,-37.0,-6.0,51.0,1645192834.0,P16,D08,1,1,1
568,-37.0,-6.0,51.0,1645192834.03125,P16,D08,1,1,1
569,-37.0,-6.0,51.0,1645192834.0625,P16,D08,1,1,1
570,-37.0,-6.0,51.0,1645192834.09375,P16,D08,1,1,1
571,-37.0,-6.0,51.0,1645192834.125,P16,D08,1,1,1
572,-37.0,-6.0,51.0,1645192834.15625,P16,D08,1,1,1
573,-37.0,-6.0,51.0,1645192834.1875,P16,D08,1,1,1
574,-37.0,-6.0,51.0,1645192834.21875,P16,D08,1,1,1
575,-37.0,-6.0,51.0,1645192834.25,P16,D08,1,1,1
576,-37.0,-6.0,51.0,1645192834.28125,P16,D08,1,1,1
577,-37.0,-6.0,52.0,1645192834.3125,P16,D08,1,1,1
578,-37.0,-6.0,51.0,1645192834.34375,P16,D08,1,1,1
579,-37.0,-6.0,51.0,1645192834.375,P16,D08,1,1,1
580,-37.0,-6.0,51.0,1645192834.40625,P16,D08,1,1,1
581,-37.0,-6.0,51.0,1645192834.4375,P16,D08,1,1,1
582,-37.0,-6.0,51.0,1645192834.46875,P16,D08,1,1,1
583,-37.0,-6.0,51.0,1645192834.5,P16,D08,1,1,1
584,-37.0,-6.0,51.0,1645192834.53125,P16,D08,1,1,1
585,-37.0,-6.0,51.0,1645192834.5625,P16,D08,1,1,1
586,-37.0,-6.0,51.0,1645192834.59375,P16,D08,1,1,1
587,-37.0,-6.0,51.0,1645192834.625,P16,D08,1,1,1
588,-37.0,-6.0,51.0,1645192834.65625,P16,D08,1,1,1
589,-37.0,-6.0,51.0,1645192834.6875,P16,D08,1,1,1
590,-37.0,-6.0,51.0,1645192834.71875,P16,D08,1,1,1
591,-37.0,-6.0,51.0,1645192834.75,P16,D08,1,1,1
592,-37.0,-6.0,51.0,1645192834.78125,P16,D08,1,1,1
593,-37.0,-7.0,51.0,1645192834.8125,P16,D08,1,1,1
594,-37.0,-6.0,51.0,1645192834.84375,P16,D08,1,1,1
595,-37.0,-6.0,51.0,1645192834.875,P16,D08,1,1,1
596,-37.0,-6.0,51.0,1645192834.90625,P16,D08,1,1,1
597,-37.0,-6.0,51.0,1645192834.9375,P16,D08,1,1,1
598,-37.0,-6.0,51.0,1645192834.96875,P16,D08,1,1,1
599,-37.0,-6.0,51.0,1645192835.0,P16,D08,1,1,1
600,-37.0,-7.0,51.0,1645192835.03125,P16,D08,1,1,1
601,-37.0,-7.0,51.0,1645192835.0625,P16,D08,1,1,1
602,-37.0,-6.0,51.0,1645192835.09375,P16,D08,1,1,1
603,-37.0,-5.0,51.0,1645192835.125,P16,D08,1,1,1
604,-37.0,-6.0,51.0,1645192835.15625,P16,D08,1,1,1
605,-37.0,-7.0,51.0,1645192835.1875,P16,D08,1,1,1
606,-37.0,-6.0,51.0,1645192835.21875,P16,D08,1,1,1
607,-37.0,-6.0,51.0,1645192835.25,P16,D08,1,1,1
608,-37.0,-7.0,51.0,1645192835.28125,P16,D08,1,1,1
609,-37.0,-7.0,51.0,1645192835.3125,P16,D08,1,1,1
610,-37.0,-7.0,51.0,1645192835.34375,P16,D08,1,1,1
611,-37.0,-7.0,51.0,1645192835.375,P16,D08,1,1,1
612,-37.0,-7.0,51.0,1645192835.40625,P16,D08,1,1,1
613,-37.0,-7.0,51.0,1645192835.4375,P16,D08,1,1,1
614,-37.0,-6.0,51.0,1645192835.46875,P16,D08,1,1,1
615,-37.0,-6.0,51.0,1645192835.5,P16,D08,1,1,1
616,-37.0,-6.0,51.0,1645192835.53125,P16,D08,1,1,1
617,-37.0,-6.0,51.0,1645192835.5625,P16,D08,1,1,1
618,-38.0,-7.0,51.0,1645192835.59375,P16,D08,1,1,1
619,-37.0,-7.0,51.0,1645192835.625,P16,D08,1,1,1
620,-37.0,-7.0,51.0,1645192835.65625,P16,D08,1,1,1
621,-37.0,-7.0,51.0,1645192835.6875,P16,D08,1,1,1
622,-37.0,-7.0,51.0,1645192835.71875,P16,D08,1,1,1
623,-37.0,-7.0,51.0,1645192835.75,P16,D08,1,1,1
624,-37.0,-7.0,51.0,1645192835.78125,P16,D08,1,1,1
625,-37.0,-6.0,51.0,1645192835.8125,P16,D08,1,1,1
626,-37.0,-7.0,51.0,1645192835.84375,P16,D08,1,1,1
627,-37.0,-7.0,51.0,1645192835.875,P16,D08,1,1,1
628,-37.0,-7.0,51.0,1645192835.90625,P16,D08,1,1,1
629,-37.0,-6.0,51.0,1645192835.9375,P16,D08,1,1,1
630,-37.0,-6.0,51.0,1645192835.96875,P16,D08,1,1,1
631,-37.0,-6.0,52.0,1645192836.0,P16,D08,1,1,1
632,-37.0,-6.0,51.0,1645192836.03125,P16,D08,1,1,1
633,-37.0,-6.0,51.0,1645192836.0625,P16,D08,1,1,1
634,-37.0,-6.0,51.0,1645192836.09375,P16,D08,1,1,1
635,-38.0,-7.0,51.0,1645192836.125,P16,D08,1,1,1
636,-38.0,-7.0,51.0,1645192836.15625,P16,D08,1,1,1
637,-37.0,-6.0,51.0,1645192836.1875,P16,D08,1,1,1
638,-37.0,-6.0,51.0,1645192836.21875,P16,D08,1,1,1
639,-37.0,-6.0,51.0,1645192836.25,P16,D08,1,1,1
640,-37.0,-6.0,51.0,1645192836.28125,P16,D08,1,1,1
641,-37.0,-6.0,51.0,1645192836.3125,P16,D08,1,1,1
642,-37.0,-6.0,51.0,1645192836.34375,P16,D08,1,1,1
643,-38.0,-6.0,51.0,1645192836.375,P16,D08,1,1,1
644,-37.0,-6.0,51.0,1645192836.40625,P16,D08,1,1,1
645,-37.0,-6.0,51.0,1645192836.4375,P16,D08,1,1,1
646,-37.0,-6.0,51.0,1645192836.46875,P16,D08,1,1,1
647,-37.0,-7.0,51.0,1645192836.5,P16,D08,1,1,1
648,-37.0,-6.0,51.0,1645192836.53125,P16,D08,1,1,1
649,-37.0,-6.0,51.0,1645192836.5625,P16,D08,1,1,1
650,-37.0,-6.0,51.0,1645192836.59375,P16,D08,1,1,1
651,-37.0,-7.0,51.0,1645192836.625,P16,D08,1,1,1
652,-37.0,-7.0,51.0,1645192836.65625,P16,D08,1,1,1
653,-37.0,-6.0,51.0,1645192836.6875,P16,D08,1,1,1
654,-37.0,-6.0,51.0,1645192836.71875,P16,D08,1,1,1
655,-37.0,-6.0,51.0,1645192836.75,P16,D08,1,1,1
656,-37.0,-6.0,51.0,1645192836.78125,P16,D08,1,1,1
657,-37.0,-6.0,51.0,1645192836.8125,P16,D08,1,1,1
658,-37.0,-6.0,51.0,1645192836.84375,P16,D08,1,1,1
659,-37.0,-7.0,51.0,1645192836.875,P16,D08,1,1,1
660,-37.0,-7.0,51.0,1645192836.90625,P16,D08,1,1,1
661,-37.0,-7.0,51.0,1645192836.9375,P16,D08,1,1,1
662,-37.0,-7.0,51.0,1645192836.96875,P16,D08,1,1,1
663,-37.0,-7.0,51.0,1645192837.0,P16,D08,1,1,1
664,-37.0,-7.0,51.0,1645192837.03125,P16,D08,1,1,1
665,-37.0,-7.0,51.0,1645192837.0625,P16,D08,1,1,1
666,-37.0,-7.0,51.0,1645192837.09375,P16,D08,1,1,1
667,-37.0,-7.0,51.0,1645192837.125,P16,D08,1,1,1
668,-37.0,-7.0,51.0,1645192837.15625,P16,D08,1,1,1
669,-37.0,-7.0,51.0,1645192837.1875,P16,D08,1,1,1
670,-37.0,-7.0,51.0,1645192837.21875,P16,D08,1,1,1
671,-37.0,-7.0,51.0,1645192837.25,P16,D08,1,1,1
672,-37.0,-7.0,51.0,1645192837.28125,P16,D08,1,1,1
673,-37.0,-7.0,51.0,1645192837.3125,P16,D08,1,1,1
674,-37.0,-6.0,51.0,1645192837.34375,P16,D08,1,1,1
675,-37.0,-6.0,51.0,1645192837.375,P16,D08,1,1,1
676,-37.0,-7.0,51.0,1645192837.40625,P16,D08,1,1,1
677,-37.0,-7.0,51.0,1645192837.4375,P16,D08,1,1,1
678,-38.0,-7.0,51.0,1645192837.46875,P16,D08,1,1,1
679,-37.0,-7.0,51.0,1645192837.5,P16,D08,1,1,1
680,-37.0,-7.0,51.0,1645192837.53125,P16,D08,1,1,1
681,-37.0,-7.0,51.0,1645192837.5625,P16,D08,1,1,1
682,-37.0,-7.0,51.0,1645192837.59375,P16,D08,1,1,1
683,-37.0,-7.0,51.0,1645192837.625,P16,D08,1,1,1
684,-37.0,-7.0,51.0,1645192837.65625,P16,D08,1,1,1
685,-37.0,-7.0,51.0,1645192837.6875,P16,D08,1,1,1
686,-37.0,-7.0,51.0,1645192837.71875,P16,D08,1,1,1
687,-37.0,-7.0,51.0,1645192837.75,P16,D08,1,1,1
688,-37.0,-7.0,51.0,1645192837.78125,P16,D08,1,1,1
689,-37.0,-7.0,51.0,1645192837.8125,P16,D08,1,1,1
690,-37.0,-7.0,51.0,1645192837.84375,P16,D08,1,1,1
691,-37.0,-7.0,51.0,1645192837.875,P16,D08,1,1,1
692,-37.0,-7.0,51.0,1645192837.90625,P16,D08,1,1,1
693,-37.0,-7.0,51.0,1645192837.9375,P16,D08,1,1,1
694,-37.0,-7.0,51.0,1645192837.96875,P16,D08,1,1,1
695,-37.0,-7.0,51.0,1645192838.0,P16,D08,1,1,1
696,-37.0,-7.0,51.0,1645192838.03125,P16,D08,1,1,1
697,-37.0,-7.0,51.0,1645192838.0625,P16,D08,1,1,1
698,-37.0,-7.0,51.0,1645192838.09375,P16,D08,1,1,1
699,-37.0,-7.0,51.0,1645192838.125,P16,D08,1,1,1
700,-37.0,-7.0,51.0,1645192838.15625,P16,D08,1,1,1
701,-37.0,-7.0,51.0,1645192838.1875,P16,D08,1,1,1
702,-37.0,-7.0,51.0,1645192838.21875,P16,D08,1,1,1
703,-37.0,-7.0,51.0,1645192838.25,P16,D08,1,1,1
704,-37.0,-7.0,51.0,1645192838.28125,P16,D08,1,1,1
705,-37.0,-7.0,51.0,1645192838.3125,P16,D08,1,1,1
706,-37.0,-7.0,51.0,1645192838.34375,P16,D08,1,1,1
707,-37.0,-7.0,51.0,1645192838.375,P16,D08,1,1,1
708,-37.0,-7.0,51.0,1645192838.40625,P16,D08,1,1,1
709,-37.0,-7.0,51.0,1645192838.4375,P16,D08,1,1,1
710,-37.0,-7.0,51.0,1645192838.46875,P16,D08,1,1,1
711,-37.0,-7.0,51.0,1645192838.5,P16,D08,1,1,1
712,-37.0,-7.0,51.0,1645192838.53125,P16,D08,1,1,1
713,-37.0,-7.0,51.0,1645192838.5625,P16,D08,1,1,1
714,-37.0,-7.0,51.0,1645192838.59375,P16,D08,1,1,1
715,-37.0,-7.0,51.0,1645192838.625,P16,D08,1,1,1
716,-37.0,-7.0,51.0,1645192838.65625,P16,D08,1,1,1
717,-37.0,-7.0,51.0,1645192838.6875,P16,D08,1,1,1
718,-37.0,-7.0,51.0,1645192838.71875,P16,D08,1,1,1
719,-37.0,-7.0,51.0,1645192838.75,P16,D08,1,1,1
720,-37.0,-7.0,51.0,1645192838.78125,P16,D08,1,1,1
721,-38.0,-7.0,51.0,1645192838.8125,P16,D08,1,1,1
722,-37.0,-7.0,51.0,1645192838.84375,P16,D08,1,1,1
723,-37.0,-7.0,51.0,1645192838.875,P16,D08,1,1,1
724,-37.0,-7.0,51.0,1645192838.90625,P16,D08,1,1,1
725,-37.0,-7.0,51.0,1645192838.9375,P16,D08,1,1,1
726,-37.0,-7.0,51.0,1645192838.96875,P16,D08,1,1,1
727,-38.0,-7.0,51.0,1645192839.0,P16,D08,1,1,1
728,-37.0,-7.0,51.0,1645192839.03125,P16,D08,1,1,1
729,-38.0,-7.0,51.0,1645192839.0625,P16,D08,1,1,1
730,-37.0,-7.0,51.0,1645192839.09375,P16,D08,1,1,1
731,-37.0,-7.0,51.0,1645192839.125,P16,D08,1,1,1
732,-38.0,-7.0,51.0,1645192839.15625,P16,D08,1,1,1
733,-37.0,-7.0,51.0,1645192839.1875,P16,D08,1,1,1
734,-37.0,-7.0,51.0,1645192839.21875,P16,D08,1,1,1
735,-38.0,-7.0,51.0,1645192839.25,P16,D08,1,1,1
736,-38.0,-7.0,51.0,1645192839.28125,P16,D08,1,1,1
737,-37.0,-7.0,51.0,1645192839.3125,P16,D08,1,1,1
738,-38.0,-7.0,51.0,1645192839.34375,P16,D08,1,1,1
739,-38.0,-7.0,51.0,1645192839.375,P16,D08,1,1,1
740,-37.0,-7.0,51.0,1645192839.40625,P16,D08,1,1,1
741,-38.0,-7.0,51.0,1645192839.4375,P16,D08,1,1,1
742,-38.0,-7.0,51.0,1645192839.46875,P16,D08,1,1,1
743,-38.0,-7.0,51.0,1645192839.5,P16,D08,1,1,1
744,-37.0,-7.0,51.0,1645192839.53125,P16,D08,1,1,1
745,-37.0,-7.0,51.0,1645192839.5625,P16,D08,1,1,1
746,-37.0,-7.0,51.0,1645192839.59375,P16,D08,1,1,1
747,-38.0,-7.0,50.0,1645192839.625,P16,D08,1,1,1
748,-38.0,-7.0,51.0,1645192839.65625,P16,D08,1,1,1
749,-38.0,-7.0,51.0,1645192839.6875,P16,D08,1,1,1
750,-38.0,-7.0,51.0,1645192839.71875,P16,D08,1,1,1
751,-38.0,-7.0,51.0,1645192839.75,P16,D08,1,1,1
752,-37.0,-7.0,51.0,1645192839.78125,P16,D08,1,1,1
753,-38.0,-7.0,51.0,1645192839.8125,P16,D08,1,1,1
754,-38.0,-7.0,51.0,1645192839.84375,P16,D08,1,1,1
755,-37.0,-7.0,51.0,1645192839.875,P16,D08,1,1,1
756,-38.0,-7.0,51.0,1645192839.90625,P16,D08,1,1,1
757,-37.0,-7.0,51.0,1645192839.9375,P16,D08,1,1,1
758,-37.0,-7.0,51.0,1645192839.96875,P16,D08,1,1,1
759,-37.0,-7.0,51.0,1645192840.0,P16,D08,1,1,1
760,-37.0,-7.0,51.0,1645192840.03125,P16,D08,1,1,1
761,-37.0,-7.0,51.0,1645192840.0625,P16,D08,1,1,1
762,-37.0,-7.0,51.0,1645192840.09375,P16,D08,1,1,1
763,-37.0,-7.0,51.0,1645192840.125,P16,D08,1,1,1
764,-37.0,-7.0,51.0,1645192840.15625,P16,D08,1,1,1
765,-37.0,-7.0,51.0,1645192840.1875,P16,D08,1,1,1
766,-37.0,-6.0,51.0,1645192840.21875,P16,D08,1,1,1
767,-37.0,-7.0,51.0,1645192840.25,P16,D08,1,1,1
768,-37.0,-7.0,51.0,1645192840.28125,P16,D08,1,1,1
769,-38.0,-7.0,51.0,1645192840.3125,P16,D08,1,1,1
770,-37.0,-7.0,51.0,1645192840.34375,P16,D08,1,1,1
771,-37.0,-7.0,51.0,1645192840.375,P16,D08,1,1,1
772,-37.0,-7.0,51.0,1645192840.40625,P16,D08,1,1,1
773,-38.0,-7.0,51.0,1645192840.4375,P16,D08,1,1,1
774,-37.0,-7.0,51.0,1645192840.46875,P16,D08,1,1,1
775,-37.0,-7.0,51.0,1645192840.5,P16,D08,1,1,1
776,-38.0,-7.0,51.0,1645192840.53125,P16,D08,1,1,1
777,-37.0,-7.0,51.0,1645192840.5625,P16,D08,1,1,1
778,-37.0,-7.0,50.0,1645192840.59375,P16,D08,1,1,1
779,-37.0,-7.0,51.0,1645192840.625,P16,D08,1,1,1
780,-38.0,-7.0,51.0,1645192840.65625,P16,D08,1,1,1
781,-37.0,-7.0,51.0,1645192840.6875,P16,D08,1,1,1
782,-38.0,-7.0,51.0,1645192840.71875,P16,D08,1,1,1
783,-38.0,-7.0,51.0,1645192840.75,P16,D08,1,1,1
784,-37.0,-7.0,51.0,1645192840.78125,P16,D08,1,1,1
785,-38.0,-7.0,51.0,1645192840.8125,P16,D08,1,1,1
786,-38.0,-7.0,51.0,1645192840.84375,P16,D08,1,1,1
787,-38.0,-7.0,51.0,1645192840.875,P16,D08,1,1,1
788,-38.0,-7.0,51.0,1645192840.90625,P16,D08,1,1,1
789,-38.0,-7.0,51.0,1645192840.9375,P16,D08,1,1,1
790,-38.0,-7.0,50.0,1645192840.96875,P16,D08,1,1,1
791,-37.0,-7.0,51.0,1645192841.0,P16,D08,1,1,1
792,-38.0,-7.0,51.0,1645192841.03125,P16,D08,1,1,1
793,-37.0,-7.0,51.0,1645192841.0625,P16,D08,1,1,1
794,-38.0,-8.0,51.0,1645192841.09375,P16,D08,1,1,1
795,-38.0,-7.0,50.0,1645192841.125,P16,D08,1,1,1
796,-38.0,-7.0,51.0,1645192841.15625,P16,D08,1,1,1
797,-37.0,-7.0,51.0,1645192841.1875,P16,D08,1,1,1
798,-38.0,-8.0,50.0,1645192841.21875,P16,D08,1,1,1
799,-38.0,-7.0,51.0,1645192841.25,P16,D08,1,1,1
800,-38.0,-7.0,51.0,1645192841.28125,P16,D08,1,1,1
801,-38.0,-7.0,51.0,1645192841.3125,P16,D08,1,1,1
802,-38.0,-8.0,50.0,1645192841.34375,P16,D08,1,1,1
803,-38.0,-8.0,50.0,1645192841.375,P16,D08,1,1,1
804,-38.0,-8.0,51.0,1645192841.40625,P16,D08,1,1,1
805,-38.0,-8.0,50.0,1645192841.4375,P16,D08,1,1,1
806,-38.0,-8.0,50.0,1645192841.46875,P16,D08,1,1,1
807,-38.0,-8.0,51.0,1645192841.5,P16,D08,1,1,1
808,-38.0,-8.0,50.0,1645192841.53125,P16,D08,1,1,1
809,-38.0,-8.0,50.0,1645192841.5625,P16,D08,1,1,1
810,-38.0,-8.0,50.0,1645192841.59375,P16,D08,1,1,1
811,-38.0,-8.0,51.0,1645192841.625,P16,D08,1,1,1
812,-38.0,-8.0,50.0,1645192841.65625,P16,D08,1,1,1
813,-38.0,-8.0,50.0,1645192841.6875,P16,D08,1,1,1
814,-38.0,-8.0,50.0,1645192841.71875,P16,D08,1,1,1
815,-38.0,-8.0,50.0,1645192841.75,P16,D08,1,1,1
816,-38.0,-8.0,50.0,1645192841.78125,P16,D08,1,1,1
817,-38.0,-8.0,50.0,1645192841.8125,P16,D08,1,1,1
818,-38.0,-9.0,50.0,1645192841.84375,P16,D08,1,1,1
819,-38.0,-8.0,50.0,1645192841.875,P16,D08,1,1,1
820,-38.0,-8.0,50.0,1645192841.90625,P16,D08,1,1,1
821,-38.0,-8.0,50.0,1645192841.9375,P16,D08,1,1,1
822,-38.0,-8.0,50.0,1645192841.96875,P16,D08,1,1,1
823,-38.0,-8.0,50.0,1645192842.0,P16,D08,1,1,1
824,-38.0,-8.0,50.0,1645192842.03125,P16,D08,1,1,1
825,-38.0,-8.0,50.0,1645192842.0625,P16,D08,1,1,1
826,-38.0,-8.0,50.0,1645192842.09375,P16,D08,1,1,1
827,-38.0,-8.0,50.0,1645192842.125,P16,D08,1,1,1
828,-38.0,-8.0,50.0,1645192842.15625,P16,D08,1,1,1
829,-38.0,-8.0,50.0,1645192842.1875,P16,D08,1,1,1
830,-38.0,-8.0,50.0,1645192842.21875,P16,D08,1,1,1
831,-38.0,-8.0,50.0,1645192842.25,P16,D08,1,1,1
832,-38.0,-8.0,50.0,1645192842.28125,P16,D08,1,1,1
833,-38.0,-8.0,50.0,1645192842.3125,P16,D08,1,1,1
834,-38.0,-8.0,50.0,1645192842.34375,P16,D08,1,1,1
835,-38.0,-8.0,50.0,1645192842.375,P16,D08,1,1,1
836,-38.0,-8.0,50.0,1645192842.40625,P16,D08,1,1,1
837,-38.0,-8.0,50.0,1645192842.4375,P16,D08,1,1,1
838,-38.0,-8.0,50.0,1645192842.46875,P16,D08,1,1,1
839,-38.0,-8.0,51.0,1645192842.5,P16,D08,1,1,1
840,-38.0,-8.0,50.0,1645192842.53125,P16,D08,1,1,1
841,-38.0,-8.0,51.0,1645192842.5625,P16,D08,1,1,1
842,-38.0,-8.0,50.0,1645192842.59375,P16,D08,1,1,1
843,-38.0,-7.0,51.0,1645192842.625,P16,D08,1,1,1
844,-38.0,-7.0,51.0,1645192842.65625,P16,D08,1,1,1
845,-38.0,-7.0,51.0,1645192842.6875,P16,D08,1,1,1
846,-38.0,-7.0,51.0,1645192842.71875,P16,D08,1,1,1
847,-37.0,-7.0,51.0,1645192842.75,P16,D08,1,1,1
848,-38.0,-7.0,51.0,1645192842.78125,P16,D08,1,1,1
849,-37.0,-7.0,51.0,1645192842.8125,P16,D08,1,1,1
850,-37.0,-7.0,51.0,1645192842.84375,P16,D08,1,1,1
851,-37.0,-7.0,51.0,1645192842.875,P16,D08,1,1,1
852,-38.0,-7.0,51.0,1645192842.90625,P16,D08,1,1,1
853,-38.0,-7.0,51.0,1645192842.9375,P16,D08,1,1,1
854,-38.0,-7.0,51.0,1645192842.96875,P16,D08,1,1,1
855,-37.0,-7.0,51.0,1645192843.0,P16,D08,1,1,1
856,-37.0,-7.0,51.0,1645192843.03125,P16,D08,1,1,1
857,-38.0,-7.0,51.0,1645192843.0625,P16,D08,1,1,1
858,-37.0,-7.0,50.0,1645192843.09375,P16,D08,1,1,1
859,-37.0,-7.0,51.0,1645192843.125,P16,D08,1,1,1
860,-37.0,-7.0,51.0,1645192843.15625,P16,D08,1,1,1
861,-38.0,-7.0,51.0,1645192843.1875,P16,D08,1,1,1
862,-38.0,-7.0,51.0,1645192843.21875,P16,D08,1,1,1
863,-37.0,-7.0,51.0,1645192843.25,P16,D08,1,1,1
864,-38.0,-7.0,51.0,1645192843.28125,P16,D08,1,1,1
865,-37.0,-7.0,51.0,1645192843.3125,P16,D08,1,1,1
866,-38.0,-7.0,51.0,1645192843.34375,P16,D08,1,1,1
867,-38.0,-7.0,51.0,1645192843.375,P16,D08,1,1,1
868,-37.0,-7.0,51.0,1645192843.40625,P16,D08,1,1,1
869,-38.0,-7.0,51.0,1645192843.4375,P16,D08,1,1,1
870,-37.0,-7.0,51.0,1645192843.46875,P16,D08,1,1,1
871,-38.0,-8.0,51.0,1645192843.5,P16,D08,1,1,1
872,-38.0,-7.0,51.0,1645192843.53125,P16,D08,1,1,1
873,-38.0,-7.0,51.0,1645192843.5625,P16,D08,1,1,1
874,-38.0,-7.0,51.0,1645192843.59375,P16,D08,1,1,1
875,-38.0,-7.0,51.0,1645192843.625,P16,D08,1,1,1
876,-38.0,-7.0,51.0,1645192843.65625,P16,D08,1,1,1
877,-38.0,-7.0,51.0,1645192843.6875,P16,D08,1,1,1
878,-38.0,-7.0,51.0,1645192843.71875,P16,D08,1,1,1
879,-38.0,-7.0,51.0,1645192843.75,P16,D08,1,1,1
880,-38.0,-7.0,51.0,1645192843.78125,P16,D08,1,1,1
881,-38.0,-7.0,50.0,1645192843.8125,P16,D08,1,1,1
882,-38.0,-7.0,51.0,1645192843.84375,P16,D08,1,1,1
883,-38.0,-8.0,50.0,1645192843.875,P16,D08,1,1,1
884,-38.0,-7.0,50.0,1645192843.90625,P16,D08,1,1,1
885,-38.0,-7.0,50.0,1645192843.9375,P16,D08,1,1,1
886,-38.0,-7.0,51.0,1645192843.96875,P16,D08,1,1,1
887,-38.0,-8.0,50.0,1645192844.0,P16,D08,1,1,1
888,-38.0,-8.0,51.0,1645192844.03125,P16,D08,1,1,1
889,-38.0,-8.0,51.0,1645192844.0625,P16,D08,1,1,1
890,-38.0,-7.0,51.0,1645192844.09375,P16,D08,1,1,1
891,-38.0,-7.0,51.0,1645192844.125,P16,D08,1,1,1
892,-38.0,-7.0,50.0,1645192844.15625,P16,D08,1,1,1
893,-38.0,-8.0,50.0,1645192844.1875,P16,D08,1,1,1
894,-38.0,-7.0,50.0,1645192844.21875,P16,D08,1,1,1
895,-38.0,-8.0,50.0,1645192844.25,P16,D08,1,1,1
896,-38.0,-8.0,51.0,1645192844.28125,P16,D08,1,1,1
897,-38.0,-8.0,50.0,1645192844.3125,P16,D08,1,1,1
898,-38.0,-8.0,51.0,1645192844.34375,P16,D08,1,1,1
899,-38.0,-7.0,51.0,1645192844.375,P16,D08,1,1,1
900,-38.0,-8.0,51.0,1645192844.40625,P16,D08,1,1,1
901,-38.0,-8.0,50.0,1645192844.4375,P16,D08,1,1,1
902,-38.0,-8.0,50.0,1645192844.46875,P16,D08,1,1,1
903,-38.0,-8.0,51.0,1645192844.5,P16,D08,1,1,1
904,-38.0,-8.0,51.0,1645192844.53125,P16,D08,1,1,1
905,-38.0,-8.0,50.0,1645192844.5625,P16,D08,1,1,1
906,-38.0,-8.0,50.0,1645192844.59375,P16,D08,1,1,1
907,-38.0,-7.0,51.0,1645192844.625,P16,D08,1,1,1
908,-38.0,-8.0,51.0,1645192844.65625,P16,D08,1,1,1
909,-38.0,-8.0,50.0,1645192844.6875,P16,D08,1,1,1
910,-38.0,-8.0,50.0,1645192844.71875,P16,D08,1,1,1
911,-38.0,-7.0,50.0,1645192844.75,P16,D08,1,1,1
912,-38.0,-8.0,51.0,1645192844.78125,P16,D08,1,1,1
913,-38.0,-8.0,51.0,1645192844.8125,P16,D08,1,1,1
914,-38.0,-8.0,50.0,1645192844.84375,P16,D08,1,1,1
915,-38.0,-8.0,50.0,1645192844.875,P16,D08,1,1,1
916,-38.0,-8.0,51.0,1645192844.90625,P16,D08,1,1,1
917,-38.0,-8.0,51.0,1645192844.9375,P16,D08,1,1,1
918,-38.0,-8.0,50.0,1645192844.96875,P16,D08,1,1,1
919,-38.0,-8.0,51.0,1645192845.0,P16,D08,1,1,1
920,-38.0,-8.0,51.0,1645192845.03125,P16,D08,1,1,1
921,-38.0,-8.0,51.0,1645192845.0625,P16,D08,1,1,1
922,-38.0,-8.0,50.0,1645192845.09375,P16,D08,1,1,1
923,-38.0,-8.0,51.0,1645192845.125,P16,D08,1,1,1
924,-38.0,-8.0,50.0,1645192845.15625,P16,D08,1,1,1
925,-38.0,-8.0,50.0,1645192845.1875,P16,D08,1,1,1
926,-38.0,-8.0,50.0,1645192845.21875,P16,D08,1,1,1
927,-38.0,-8.0,51.0,1645192845.25,P16,D08,1,1,1
928,-38.0,-8.0,50.0,1645192845.28125,P16,D08,1,1,1
929,-38.0,-8.0,50.0,1645192845.3125,P16,D08,1,1,1
930,-38.0,-8.0,50.0,1645192845.34375,P16,D08,1,1,1
931,-38.0,-8.0,51.0,1645192845.375,P16,D08,1,1,1
932,-38.0,-7.0,50.0,1645192845.40625,P16,D08,1,1,1
933,-38.0,-8.0,50.0,1645192845.4375,P16,D08,1,1,1
934,-38.0,-7.0,51.0,1645192845.46875,P16,D08,1,1,1
935,-38.0,-7.0,51.0,1645192845.5,P16,D08,1,1,1
936,-38.0,-7.0,50.0,1645192845.53125,P16,D08,1,1,1
937,-38.0,-8.0,50.0,1645192845.5625,P16,D08,1,1,1
938,-38.0,-8.0,51.0,1645192845.59375,P16,D08,1,1,1
939,-38.0,-7.0,50.0,1645192845.625,P16,D08,1,1,1
940,-37.0,-7.0,50.0,1645192845.65625,P16,D08,1,1,1
941,-38.0,-7.0,51.0,1645192845.6875,P16,D08,1,1,1
942,-38.0,-8.0,51.0,1645192845.71875,P16,D08,1,1,1
943,-38.0,-8.0,51.0,1645192845.75,P16,D08,1,1,1
944,-38.0,-8.0,50.0,1645192845.78125,P16,D08,1,1,1
945,-38.0,-8.0,51.0,1645192845.8125,P16,D08,1,1,1
946,-38.0,-8.0,50.0,1645192845.84375,P16,D08,1,1,1
947,-38.0,-7.0,50.0,1645192845.875,P16,D08,1,1,1
948,-38.0,-8.0,50.0,1645192845.90625,P16,D08,1,1,1
949,-38.0,-8.0,50.0,1645192845.9375,P16,D08,1,1,1
950,-38.0,-8.0,50.0,1645192845.96875,P16,D08,1,1,1
951,-38.0,-8.0,50.0,1645192846.0,P16,D08,1,1,1
952,-38.0,-7.0,50.0,1645192846.03125,P16,D08,1,1,1
953,-38.0,-8.0,50.0,1645192846.0625,P16,D08,1,1,1
954,-38.0,-8.0,50.0,1645192846.09375,P16,D08,1,1,1
955,-38.0,-8.0,50.0,1645192846.125,P16,D08,1,1,1
956,-38.0,-8.0,50.0,1645192846.15625,P16,D08,1,1,1
957,-38.0,-8.0,50.0,1645192846.1875,P16,D08,1,1,1
958,-38.0,-8.0,50.0,1645192846.21875,P16,D08,1,1,1
959,-38.0,-8.0,50.0,1645192846.25,P16,D08,1,1,1
960,-37.0,-8.0,51.0,1645192846.28125,P16,D08,1,1,1
961,-38.0,-8.0,51.0,1645192846.3125,P16,D08,1,1,1
962,-38.0,-7.0,50.0,1645192846.34375,P16,D08,1,1,1
963,-38.0,-8.0,50.0,1645192846.375,P16,D08,1,1,1
964,-38.0,-8.0,50.0,1645192846.40625,P16,D08,1,1,1
965,-38.0,-8.0,50.0,1645192846.4375,P16,D08,1,1,1
966,-38.0,-7.0,51.0,1645192846.46875,P16,D08,1,1,1
967,-38.0,-8.0,51.0,1645192846.5,P16,D08,1,1,1
968,-38.0,-8.0,51.0,1645192846.53125,P16,D08,1,1,1
969,-38.0,-7.0,50.0,1645192846.5625,P16,D08,1,1,1
970,-38.0,-7.0,50.0,1645192846.59375,P16,D08,1,1,1
971,-38.0,-7.0,50.0,1645192846.625,P16,D08,1,1,1
972,-38.0,-7.0,50.0,1645192846.65625,P16,D08,1,1,1
973,-37.0,-7.0,51.0,1645192846.6875,P16,D08,1,1,1
974,-38.0,-7.0,51.0,1645192846.71875,P16,D08,1,1,1
975,-37.0,-7.0,51.0,1645192846.75,P16,D08,1,1,1
976,-38.0,-7.0,51.0,1645192846.78125,P16,D08,1,1,1
977,-38.0,-7.0,51.0,1645192846.8125,P16,D08,1,1,1
978,-38.0,-7.0,50.0,1645192846.84375,P16,D08,1,1,1
979,-38.0,-7.0,51.0,1645192846.875,P16,D08,1,1,1
980,-38.0,-7.0,51.0,1645192846.90625,P16,D08,1,1,1
981,-38.0,-7.0,51.0,1645192846.9375,P16,D08,1,1,1
982,-37.0,-7.0,51.0,1645192846.96875,P16,D08,1,1,1
983,-37.0,-7.0,51.0,1645192847.0,P16,D08,1,1,1
984,-37.0,-7.0,51.0,1645192847.03125,P16,D08,1,1,1
985,-38.0,-7.0,51.0,1645192847.0625,P16,D08,1,1,1
986,-38.0,-7.0,51.0,1645192847.09375,P16,D08,1,1,1
987,-37.0,-7.0,51.0,1645192847.125,P16,D08,1,1,1
988,-37.0,-7.0,51.0,1645192847.15625,P16,D08,1,1,1
989,-38.0,-7.0,51.0,1645192847.1875,P16,D08,1,1,1
990,-37.0,-7.0,51.0,1645192847.21875,P16,D08,1,1,1
991,-38.0,-7.0,51.0,1645192847.25,P16,D08,1,1,1
992,-38.0,-7.0,51.0,1645192847.28125,P16,D08,1,1,1
993,-38.0,-7.0,51.0,1645192847.3125,P16,D08,1,1,1
994,-38.0,-7.0,51.0,1645192847.34375,P16,D08,1,1,1
995,-38.0,-7.0,51.0,1645192847.375,P16,D08,1,1,1
996,-38.0,-7.0,51.0,1645192847.40625,P16,D08,1,1,1
997,-37.0,-7.0,51.0,1645192847.4375,P16,D08,1,1,1
998,-37.0,-7.0,51.0,1645192847.46875,P16,D08,1,1,1
999,-37.0,-7.0,51.0,1645192847.5,P16,D08,1,1,1
1000,-37.0,-7.0,51.0,1645192847.53125,P16,D08,1,1,1
1001,-38.0,-7.0,51.0,1645192847.5625,P16,D08,1,1,1
1002,-37.0,-7.0,51.0,1645192847.59375,P16,D08,1,1,1
1003,-37.0,-7.0,51.0,1645192847.625,P16,D08,1,1,1
1004,-38.0,-7.0,51.0,1645192847.65625,P16,D08,1,1,1
1005,-37.0,-7.0,51.0,1645192847.6875,P16,D08,1,1,1
1006,-37.0,-7.0,51.0,1645192847.71875,P16,D08,1,1,1
1007,-38.0,-7.0,51.0,1645192847.75,P16,D08,1,1,1
1008,-38.0,-7.0,51.0,1645192847.78125,P16,D08,1,1,1
1009,-37.0,-7.0,51.0,1645192847.8125,P16,D08,1,1,1
1010,-38.0,-7.0,51.0,1645192847.84375,P16,D08,1,1,1
1011,-38.0,-7.0,51.0,1645192847.875,P16,D08,1,1,1
1012,-38.0,-7.0,51.0,1645192847.90625,P16,D08,1,1,1
1013,-38.0,-7.0,51.0,1645192847.9375,P16,D08,1,1,1
1014,-38.0,-7.0,51.0,1645192847.96875,P16,D08,1,1,1
1015,-38.0,-7.0,51.0,1645192848.0,P16,D08,1,1,1
1016,-38.0,-7.0,50.0,1645192848.03125,P16,D08,1,1,1
1017,-38.0,-7.0,51.0,1645192848.0625,P16,D08,1,1,1
1018,-38.0,-7.0,51.0,1645192848.09375,P16,D08,1,1,1
1019,-38.0,-7.0,51.0,1645192848.125,P16,D08,1,1,1
1020,-38.0,-7.0,51.0,1645192848.15625,P16,D08,1,1,1
1021,-38.0,-7.0,51.0,1645192848.1875,P16,D08,1,1,1
1022,-38.0,-7.0,50.0,1645192848.21875,P16,D08,1,1,1
1023,-38.0,-7.0,51.0,1645192848.25,P16,D08,1,1,1
1024,-38.0,-7.0,51.0,1645192848.28125,P16,D08,1,1,1
1025,-38.0,-7.0,51.0,1645192848.3125,P16,D08,1,1,1
1026,-38.0,-7.0,51.0,1645192848.34375,P16,D08,1,1,1
1027,-38.0,-7.0,51.0,1645192848.375,P16,D08,1,1,1
1028,-38.0,-7.0,50.0,1645192848.40625,P16,D08,1,1,1
1029,-37.0,-7.0,51.0,1645192848.4375,P16,D08,1,1,1
1030,-37.0,-7.0,51.0,1645192848.46875,P16,D08,1,1,1
1031,-38.0,-7.0,51.0,1645192848.5,P16,D08,1,1,1
1032,-38.0,-7.0,50.0,1645192848.53125,P16,D08,1,1,1
1033,-38.0,-8.0,50.0,1645192848.5625,P16,D08,1,1,1
1034,-38.0,-7.0,51.0,1645192848.59375,P16,D08,1,1,1
1035,-38.0,-7.0,50.0,1645192848.625,P16,D08,1,1,1
1036,-38.0,-7.0,50.0,1645192848.65625,P16,D08,1,1,1
1037,-38.0,-7.0,51.0,1645192848.6875,P16,D08,1,1,1
1038,-38.0,-7.0,51.0,1645192848.71875,P16,D08,1,1,1
1039,-38.0,-7.0,51.0,1645192848.75,P16,D08,1,1,1
1040,-38.0,-7.0,51.0,1645192848.78125,P16,D08,1,1,1
1041,-38.0,-7.0,51.0,1645192848.8125,P16,D08,1,1,1
1042,-38.0,-7.0,51.0,1645192848.84375,P16,D08,1,1,1
1043,-38.0,-7.0,51.0,1645192848.875,P16,D08,1,1,1
1044,-38.0,-7.0,51.0,1645192848.90625,P16,D08,1,1,1
1045,-38.0,-7.0,51.0,1645192848.9375,P16,D08,1,1,1
1046,-38.0,-7.0,51.0,1645192848.96875,P16,D08,1,1,1
1047,-38.0,-7.0,50.0,1645192849.0,P16,D08,1,1,1
1048,-38.0,-7.0,51.0,1645192849.03125,P16,D08,1,1,1
1049,-38.0,-7.0,51.0,1645192849.0625,P16,D08,1,1,1
1050,-38.0,-7.0,50.0,1645192849.09375,P16,D08,1,1,1
1051,-38.0,-7.0,51.0,1645192849.125,P16,D08,1,1,1
1052,-38.0,-7.0,51.0,1645192849.15625,P16,D08,1,1,1
1053,-38.0,-7.0,51.0,1645192849.1875,P16,D08,1,1,1
1054,-38.0,-7.0,51.0,1645192849.21875,P16,D08,1,1,1
1055,-38.0,-7.0,51.0,1645192849.25,P16,D08,1,1,1
1056,-38.0,-7.0,50.0,1645192849.28125,P16,D08,1,1,1
1057,-37.0,-7.0,51.0,1645192849.3125,P16,D08,1,1,1
1058,-37.0,-7.0,51.0,1645192849.34375,P16,D08,1,1,1
1059,-38.0,-8.0,51.0,1645192849.375,P16,D08,1,1,1
1060,-38.0,-8.0,51.0,1645192849.40625,P16,D08,1,1,1
1061,-38.0,-8.0,51.0,1645192849.4375,P16,D08,1,1,1
1062,-38.0,-7.0,51.0,1645192849.46875,P16,D08,1,1,1
1063,-38.0,-8.0,51.0,1645192849.5,P16,D08,1,1,1
1064,-38.0,-7.0,51.0,1645192849.53125,P16,D08,1,1,1
1065,-38.0,-7.0,51.0,1645192849.5625,P16,D08,1,1,1
1066,-38.0,-7.0,51.0,1645192849.59375,P16,D08,1,1,1
1067,-38.0,-7.0,50.0,1645192849.625,P16,D08,1,1,1
1068,-38.0,-7.0,51.0,1645192849.65625,P16,D08,1,1,1
1069,-38.0,-7.0,51.0,1645192849.6875,P16,D08,1,1,1
1070,-38.0,-7.0,51.0,1645192849.71875,P16,D08,1,1,1
1071,-38.0,-7.0,51.0,1645192849.75,P16,D08,1,1,1
1072,-38.0,-8.0,51.0,1645192849.78125,P16,D08,1,1,1
1073,-38.0,-7.0,51.0,1645192849.8125,P16,D08,1,1,1
1074,-38.0,-7.0,51.0,1645192849.84375,P16,D08,1,1,1
1075,-38.0,-7.0,51.0,1645192849.875,P16,D08,1,1,1
1076,-38.0,-7.0,51.0,1645192849.90625,P16,D08,1,1,1
1077,-38.0,-7.0,50.0,1645192849.9375,P16,D08,1,1,1
1078,-38.0,-7.0,50.0,1645192849.96875,P16,D08,1,1,1
1079,-38.0,-7.0,51.0,1645192850.0,P16,D08,1,1,1
1080,-38.0,-7.0,51.0,1645192850.03125,P16,D08,1,1,1
1081,-38.0,-7.0,50.0,1645192850.0625,P16,D08,1,1,1
1082,-38.0,-7.0,51.0,1645192850.09375,P16,D08,1,1,1
1083,-37.0,-7.0,51.0,1645192850.125,P16,D08,1,1,1
1084,-37.0,-7.0,51.0,1645192850.15625,P16,D08,1,1,1
1085,-38.0,-7.0,51.0,1645192850.1875,P16,D08,1,1,1
1086,-38.0,-7.0,51.0,1645192850.21875,P16,D08,1,1,1
1087,-38.0,-7.0,50.0,1645192850.25,P16,D08,1,1,1
1088,-37.0,-7.0,51.0,1645192850.28125,P16,D08,1,1,1
1089,-38.0,-7.0,51.0,1645192850.3125,P16,D08,1,1,1
1090,-38.0,-7.0,51.0,1645192850.34375,P16,D08,1,1,1
1091,-38.0,-7.0,51.0,1645192850.375,P16,D08,1,1,1
1092,-37.0,-7.0,51.0,1645192850.40625,P16,D08,1,1,1
1093,-37.0,-7.0,51.0,1645192850.4375,P16,D08,1,1,1
1094,-37.0,-7.0,51.0,1645192850.46875,P16,D08,1,1,1
1095,-38.0,-7.0,51.0,1645192850.5,P16,D08,1,1,1
1096,-37.0,-7.0,51.0,1645192850.53125,P16,D08,1,1,1
1097,-37.0,-7.0,51.0,1645192850.5625,P16,D08,1,1,1
1098,-38.0,-7.0,51.0,1645192850.59375,P16,D08,1,1,1
1099,-38.0,-7.0,51.0,1645192850.625,P16,D08,1,1,1
1100,-37.0,-7.0,51.0,1645192850.65625,P16,D08,1,1,1
1101,-38.0,-7.0,51.0,1645192850.6875,P16,D08,1,1,1
1102,-38.0,-7.0,51.0,1645192850.71875,P16,D08,1,1,1
1103,-38.0,-7.0,51.0,1645192850.75,P16,D08,1,1,1
1104,-38.0,-7.0,51.0,1645192850.78125,P16,D08,1,1,1
1105,-37.0,-7.0,51.0,1645192850.8125,P16,D08,1,1,1
1106,-38.0,-7.0,51.0,1645192850.84375,P16,D08,1,1,1
1107,-37.0,-7.0,51.0,1645192850.875,P16,D08,1,1,1
1108,-38.0,-7.0,51.0,1645192850.90625,P16,D08,1,1,1
1109,-38.0,-7.0,51.0,1645192850.9375,P16,D08,1,1,1
1110,-38.0,-7.0,51.0,1645192850.96875,P16,D08,1,1,1
1111,-38.0,-7.0,51.0,1645192851.0,P16,D08,1,1,1
1112,-38.0,-7.0,51.0,1645192851.03125,P16,D08,1,1,1
1113,-38.0,-7.0,51.0,1645192851.0625,P16,D08,1,1,1
1114,-37.0,-7.0,51.0,1645192851.09375,P16,D08,1,1,1
1115,-38.0,-7.0,51.0,1645192851.125,P16,D08,1,1,1
1116,-37.0,-7.0,51.0,1645192851.15625,P16,D08,1,1,1
1117,-38.0,-7.0,51.0,1645192851.1875,P16,D08,1,1,1
1118,-38.0,-7.0,51.0,1645192851.21875,P16,D08,1,1,1
1119,-38.0,-7.0,51.0,1645192851.25,P16,D08,1,1,1
1120,-38.0,-7.0,51.0,1645192851.28125,P16,D08,1,1,1
1121,-37.0,-7.0,51.0,1645192851.3125,P16,D08,1,1,1
1122,-38.0,-7.0,50.0,1645192851.34375,P16,D08,1,1,1
1123,-38.0,-7.0,51.0,1645192851.375,P16,D08,1,1,1
1124,-38.0,-7.0,51.0,1645192851.40625,P16,D08,1,1,1
1125,-37.0,-7.0,51.0,1645192851.4375,P16,D08,1,1,1
1126,-37.0,-7.0,51.0,1645192851.46875,P16,D08,1,1,1
1127,-37.0,-9.0,51.0,1645192851.5,P16,D08,1,1,1
1128,-38.0,-8.0,51.0,1645192851.53125,P16,D08,1,1,1
1129,-39.0,-5.0,50.0,1645192851.5625,P16,D08,1,1,1
1130,-38.0,-5.0,50.0,1645192851.59375,P16,D08,1,1,1
1131,-37.0,-6.0,51.0,1645192851.625,P16,D08,1,1,1
1132,-38.0,-7.0,51.0,1645192851.65625,P16,D08,1,1,1
1133,-38.0,-7.0,51.0,1645192851.6875,P16,D08,1,1,1
1134,-38.0,-6.0,51.0,1645192851.71875,P16,D08,1,1,1
1135,-37.0,-6.0,53.0,1645192851.75,P16,D08,1,1,1
1136,-38.0,-7.0,51.0,1645192851.78125,P16,D08,1,1,1
1137,-37.0,-6.0,50.0,1645192851.8125,P16,D08,1,1,1
1138,-37.0,-6.0,51.0,1645192851.84375,P16,D08,1,1,1
1139,-37.0,-7.0,51.0,1645192851.875,P16,D08,1,1,1
1140,-36.0,-7.0,51.0,1645192851.90625,P16,D08,1,1,1
1141,-36.0,-6.0,52.0,1645192851.9375,P16,D08,1,1,1
1142,-35.0,-6.0,52.0,1645192851.96875,P16,D08,1,1,1
1143,-37.0,-7.0,52.0,1645192852.0,P16,D08,1,1,1
1144,-38.0,-6.0,51.0,1645192852.03125,P16,D08,1,1,1
1145,-38.0,-5.0,51.0,1645192852.0625,P16,D08,1,1,1
1146,-37.0,-6.0,51.0,1645192852.09375,P16,D08,1,1,1
1147,-37.0,-6.0,51.0,1645192852.125,P16,D08,1,1,1
1148,-37.0,-7.0,51.0,1645192852.15625,P16,D08,1,1,1
1149,-37.0,-6.0,51.0,1645192852.1875,P16,D08,1,1,1
1150,-37.0,-6.0,51.0,1645192852.21875,P16,D08,1,1,1
1151,-37.0,-6.0,51.0,1645192852.25,P16,D08,1,1,1
1152,-37.0,-6.0,51.0,1645192852.28125,P16,D08,1,1,1
1153,-37.0,-7.0,51.0,1645192852.3125,P16,D08,1,1,1
1154,-37.0,-7.0,51.0,1645192852.34375,P16,D08,1,1,1
1155,-38.0,-7.0,51.0,1645192852.375,P16,D08,1,1,1
1156,-38.0,-7.0,51.0,1645192852.40625,P16,D08,1,1,1
1157,-37.0,-7.0,51.0,1645192852.4375,P16,D08,1,1,1
1158,-38.0,-7.0,51.0,1645192852.46875,P16,D08,1,1,1
1159,-38.0,-7.0,51.0,1645192852.5,P16,D08,1,1,1
1160,-38.0,-6.0,51.0,1645192852.53125,P16,D08,1,1,1
1161,-37.0,-7.0,51.0,1645192852.5625,P16,D08,1,1,1
1162,-38.0,-7.0,51.0,1645192852.59375,P16,D08,1,1,1
1163,-38.0,-6.0,50.0,1645192852.625,P16,D08,1,1,1
1164,-38.0,-7.0,51.0,1645192852.65625,P16,D08,1,1,1
1165,-37.0,-7.0,51.0,1645192852.6875,P16,D08,1,1,1
1166,-38.0,-7.0,51.0,1645192852.71875,P16,D08,1,1,1
1167,-38.0,-7.0,51.0,1645192852.75,P16,D08,1,1,1
1168,-37.0,-7.0,51.0,1645192852.78125,P16,D08,1,1,1
1169,-37.0,-7.0,51.0,1645192852.8125,P16,D08,1,1,1
1170,-38.0,-7.0,50.0,1645192852.84375,P16,D08,1,1,1
1171,-37.0,-6.0,51.0,1645192852.875,P16,D08,1,1,1
1172,-38.0,-7.0,51.0,1645192852.90625,P16,D08,1,1,1
1173,-38.0,-7.0,51.0,1645192852.9375,P16,D08,1,1,1
1174,-37.0,-7.0,51.0,1645192852.96875,P16,D08,1,1,1
1175,-37.0,-7.0,51.0,1645192853.0,P16,D08,1,1,1
1176,-38.0,-6.0,51.0,1645192853.03125,P16,D08,1,1,1
1177,-38.0,-7.0,51.0,1645192853.0625,P16,D08,1,1,1
1178,-38.0,-7.0,51.0,1645192853.09375,P16,D08,1,1,1
1179,-38.0,-7.0,51.0,1645192853.125,P16,D08,1,1,1
1180,-38.0,-7.0,51.0,1645192853.15625,P16,D08,1,1,1
1181,-38.0,-6.0,51.0,1645192853.1875,P16,D08,1,1,1
1182,-38.0,-6.0,51.0,1645192853.21875,P16,D08,1,1,1
1183,-37.0,-7.0,51.0,1645192853.25,P16,D08,1,1,1
1184,-38.0,-7.0,51.0,1645192853.28125,P16,D08,1,1,1
1185,-38.0,-7.0,51.0,1645192853.3125,P16,D08,1,1,1
1186,-37.0,-7.0,51.0,1645192853.34375,P16,D08,1,1,1
1187,-37.0,-7.0,51.0,1645192853.375,P16,D08,1,1,1
1188,-37.0,-7.0,51.0,1645192853.40625,P16,D08,1,1,1
1189,-37.0,-7.0,51.0,1645192853.4375,P16,D08,1,1,1
1190,-38.0,-7.0,51.0,1645192853.46875,P16,D08,1,1,1
1191,-37.0,-7.0,51.0,1645192853.5,P16,D08,1,1,1
1192,-37.0,-7.0,51.0,1645192853.53125,P16,D08,1,1,1
1193,-38.0,-7.0,51.0,1645192853.5625,P16,D08,1,1,1
1194,-38.0,-7.0,51.0,1645192853.59375,P16,D08,1,1,1
1195,-38.0,-7.0,51.0,1645192853.625,P16,D08,1,1,1
1196,-38.0,-7.0,51.0,1645192853.65625,P16,D08,1,1,1
1197,-38.0,-7.0,51.0,1645192853.6875,P16,D08,1,1,1
1198,-38.0,-7.0,51.0,1645192853.71875,P16,D08,1,1,1
1199,-38.0,-7.0,51.0,1645192853.75,P16,D08,1,1,1
1200,-38.0,-7.0,50.0,1645192853.78125,P16,D08,1,1,1
1201,-38.0,-7.0,51.0,1645192853.8125,P16,D08,1,1,1
1202,-38.0,-7.0,51.0,1645192853.84375,P16,D08,1,1,1
1203,-37.0,-7.0,51.0,1645192853.875,P16,D08,1,1,1
1204,-38.0,-7.0,51.0,1645192853.90625,P16,D08,1,1,1
1205,-38.0,-7.0,51.0,1645192853.9375,P16,D08,1,1,1
1206,-37.0,-7.0,51.0,1645192853.96875,P16,D08,1,1,1
1207,-37.0,-7.0,51.0,1645192854.0,P16,D08,1,1,1
1208,-38.0,-6.0,51.0,1645192854.03125,P16,D08,1,1,1
1209,-37.0,-7.0,51.0,1645192854.0625,P16,D08,1,1,1
1210,-37.0,-7.0,51.0,1645192854.09375,P16,D08,1,1,1
1211,-38.0,-7.0,51.0,1645192854.125,P16,D08,1,1,1
1212,-37.0,-7.0,51.0,1645192854.15625,P16,D08,1,1,1
1213,-38.0,-7.0,51.0,1645192854.1875,P16,D08,1,1,1
1214,-37.0,-6.0,51.0,1645192854.21875,P16,D08,1,1,1
1215,-38.0,-7.0,51.0,1645192854.25,P16,D08,1,1,1
1216,-37.0,-7.0,51.0,1645192854.28125,P16,D08,1,1,1
1217,-38.0,-7.0,51.0,1645192854.3125,P16,D08,1,1,1
1218,-38.0,-7.0,51.0,1645192854.34375,P16,D08,1,1,1
1219,-37.0,-7.0,51.0,1645192854.375,P16,D08,1,1,1
1220,-37.0,-7.0,51.0,1645192854.40625,P16,D08,1,1,1
1221,-38.0,-7.0,51.0,1645192854.4375,P16,D08,1,1,1
1222,-37.0,-7.0,51.0,1645192854.46875,P16,D08,1,1,1
1223,-37.0,-7.0,51.0,1645192854.5,P16,D08,1,1,1
1224,-37.0,-7.0,51.0,1645192854.53125,P16,D08,1,1,1
1225,-38.0,-7.0,51.0,1645192854.5625,P16,D08,1,1,1
1226,-37.0,-7.0,51.0,1645192854.59375,P16,D08,1,1,1
1227,-37.0,-7.0,51.0,1645192854.625,P16,D08,1,1,1
1228,-38.0,-7.0,51.0,1645192854.65625,P16,D08,1,1,1
1229,-38.0,-7.0,51.0,1645192854.6875,P16,D08,1,1,1
1230,-37.0,-7.0,51.0,1645192854.71875,P16,D08,1,1,1
1231,-37.0,-7.0,51.0,1645192854.75,P16,D08,1,1,1
1232,-37.0,-6.0,51.0,1645192854.78125,P16,D08,1,1,1
1233,-38.0,-7.0,51.0,1645192854.8125,P16,D08,1,1,1
1234,-37.0,-7.0,51.0,1645192854.84375,P16,D08,1,1,1
1235,-38.0,-7.0,51.0,1645192854.875,P16,D08,1,1,1
1236,-38.0,-7.0,51.0,1645192854.90625,P16,D08,1,1,1
1237,-38.0,-7.0,51.0,1645192854.9375,P16,D08,1,1,1
1238,-38.0,-7.0,51.0,1645192854.96875,P16,D08,1,1,1
1239,-38.0,-7.0,51.0,1645192855.0,P16,D08,1,1,1
1240,-38.0,-7.0,51.0,1645192855.03125,P16,D08,1,1,1
1241,-38.0,-7.0,51.0,1645192855.0625,P16,D08,1,1,1
1242,-38.0,-7.0,51.0,1645192855.09375,P16,D08,1,1,1
1243,-38.0,-7.0,50.0,1645192855.125,P16,D08,1,1,1
1244,-38.0,-7.0,51.0,1645192855.15625,P16,D08,1,1,1
1245,-37.0,-7.0,51.0,1645192855.1875,P16,D08,1,1,1
1246,-38.0,-7.0,51.0,1645192855.21875,P16,D08,1,1,1
1247,-38.0,-7.0,51.0,1645192855.25,P16,D08,1,1,1
1248,-37.0,-7.0,51.0,1645192855.28125,P16,D08,1,1,1
1249,-38.0,-7.0,51.0,1645192855.3125,P16,D08,1,1,1
1250,-38.0,-7.0,51.0,1645192855.34375,P16,D08,1,1,1
1251,-38.0,-7.0,51.0,1645192855.375,P16,D08,1,1,1
1252,-38.0,-7.0,51.0,1645192855.40625,P16,D08,1,1,1
1253,-38.0,-7.0,51.0,1645192855.4375,P16,D08,1,1,1
1254,-38.0,-7.0,51.0,1645192855.46875,P16,D08,1,1,1
1255,-38.0,-7.0,51.0,1645192855.5,P16,D08,1,1,1
1256,-37.0,-7.0,51.0,1645192855.53125,P16,D08,1,1,1
1257,-38.0,-7.0,51.0,1645192855.5625,P16,D08,1,1,1
1258,-38.0,-7.0,51.0,1645192855.59375,P16,D08,1,1,1
1259,-37.0,-7.0,50.0,1645192855.625,P16,D08,1,1,1
1260,-38.0,-7.0,51.0,1645192855.65625,P16,D08,1,1,1
1261,-38.0,-7.0,51.0,1645192855.6875,P16,D08,1,1,1
1262,-38.0,-7.0,51.0,1645192855.71875,P16,D08,1,1,1
1263,-38.0,-7.0,51.0,1645192855.75,P16,D08,1,1,1
1264,-37.0,-7.0,51.0,1645192855.78125,P16,D08,1,1,1
1265,-38.0,-7.0,51.0,1645192855.8125,P16,D08,1,1,1
1266,-38.0,-7.0,51.0,1645192855.84375,P16,D08,1,1,1
1267,-37.0,-7.0,51.0,1645192855.875,P16,D08,1,1,1
1268,-38.0,-7.0,51.0,1645192855.90625,P16,D08,1,1,1
1269,-38.0,-7.0,51.0,1645192855.9375,P16,D08,1,1,1
1270,-38.0,-7.0,50.0,1645192855.96875,P16,D08,1,1,1
1271,-38.0,-7.0,51.0,1645192856.0,P16,D08,1,1,1
1272,-37.0,-7.0,51.0,1645192856.03125,P16,D08,1,1,1
1273,-37.0,-7.0,51.0,1645192856.0625,P16,D08,1,1,1
1274,-38.0,-7.0,51.0,1645192856.09375,P16,D08,1,1,1
1275,-37.0,-7.0,51.0,1645192856.125,P16,D08,1,1,1
1276,-38.0,-7.0,51.0,1645192856.15625,P16,D08,1,1,1
1277,-38.0,-7.0,51.0,1645192856.1875,P16,D08,1,1,1
1278,-38.0,-7.0,51.0,1645192856.21875,P16,D08,1,1,1
1279,-37.0,-7.0,51.0,1645192856.25,P16,D08,1,1,1
1280,-38.0,-7.0,51.0,1645192856.28125,P16,D08,1,1,1
1281,-38.0,-7.0,51.0,1645192856.3125,P16,D08,1,1,1
1282,-38.0,-7.0,51.0,1645192856.34375,P16,D08,1,1,1
1283,-38.0,-7.0,51.0,1645192856.375,P16,D08,1,1,1
1284,-38.0,-6.0,51.0,1645192856.40625,P16,D08,1,1,1
1285,-38.0,-7.0,51.0,1645192856.4375,P16,D08,1,1,1
1286,-38.0,-7.0,51.0,1645192856.46875,P16,D08,1,1,1
1287,-37.0,-7.0,51.0,1645192856.5,P16,D08,1,1,1
1288,-37.0,-7.0,51.0,1645192856.53125,P16,D08,1,1,1
1289,-38.0,-7.0,51.0,1645192856.5625,P16,D08,1,1,1
1290,-38.0,-7.0,51.0,1645192856.59375,P16,D08,1,1,1
1291,-38.0,-7.0,51.0,1645192856.625,P16,D08,1,1,1
1292,-38.0,-7.0,51.0,1645192856.65625,P16,D08,1,1,1
1293,-38.0,-7.0,51.0,1645192856.6875,P16,D08,1,1,1
1294,-37.0,-7.0,51.0,1645192856.71875,P16,D08,1,1,1
1295,-38.0,-7.0,51.0,1645192856.75,P16,D08,1,1,1
1296,-37.0,-7.0,51.0,1645192856.78125,P16,D08,1,1,1
1297,-38.0,-7.0,51.0,1645192856.8125,P16,D08,1,1,1
1298,-38.0,-7.0,51.0,1645192856.84375,P16,D08,1,1,1
1299,-38.0,-6.0,51.0,1645192856.875,P16,D08,1,1,1
1300,-38.0,-7.0,51.0,1645192856.90625,P16,D08,1,1,1
1301,-38.0,-7.0,51.0,1645192856.9375,P16,D08,1,1,1
1302,-38.0,-6.0,51.0,1645192856.96875,P16,D08,1,1,1
1303,-38.0,-6.0,51.0,1645192857.0,P16,D08,1,1,1
1304,-37.0,-7.0,51.0,1645192857.03125,P16,D08,1,1,1
1305,-38.0,-7.0,51.0,1645192857.0625,P16,D08,1,1,1
1306,-38.0,-7.0,51.0,1645192857.09375,P16,D08,1,1,1
1307,-38.0,-7.0,51.0,1645192857.125,P16,D08,1,1,1
1308,-38.0,-6.0,51.0,1645192857.15625,P16,D08,1,1,1
1309,-38.0,-7.0,51.0,1645192857.1875,P16,D08,1,1,1
1310,-38.0,-7.0,51.0,1645192857.21875,P16,D08,1,1,1
1311,-38.0,-7.0,51.0,1645192857.25,P16,D08,1,1,1
1312,-38.0,-7.0,51.0,1645192857.28125,P16,D08,1,1,1
1313,-38.0,-7.0,51.0,1645192857.3125,P16,D08,1,1,1
1314,-38.0,-7.0,51.0,1645192857.34375,P16,D08,1,1,1
1315,-38.0,-7.0,51.0,1645192857.375,P16,D08,1,1,1
1316,-38.0,-6.0,51.0,1645192857.40625,P16,D08,1,1,1
1317,-37.0,-7.0,51.0,1645192857.4375,P16,D08,1,1,1
1318,-38.0,-7.0,51.0,1645192857.46875,P16,D08,1,1,1
1319,-38.0,-7.0,51.0,1645192857.5,P16,D08,1,1,1
1320,-38.0,-7.0,51.0,1645192857.53125,P16,D08,1,1,1
1321,-38.0,-7.0,51.0,1645192857.5625,P16,D08,1,1,1
1322,-38.0,-7.0,51.0,1645192857.59375,P16,D08,1,1,1
1323,-38.0,-7.0,51.0,1645192857.625,P16,D08,1,1,1
1324,-38.0,-7.0,51.0,1645192857.65625,P16,D08,1,1,1
1325,-38.0,-7.0,51.0,1645192857.6875,P16,D08,1,1,1
1326,-38.0,-7.0,51.0,1645192857.71875,P16,D08,1,1,1
1327,-38.0,-7.0,51.0,1645192857.75,P16,D08,1,1,1
1328,-38.0,-7.0,51.0,1645192857.78125,P16,D08,1,1,1
1329,-38.0,-7.0,50.0,1645192857.8125,P16,D08,1,1,1
1330,-38.0,-7.0,50.0,1645192857.84375,P16,D08,1,1,1
1331,-38.0,-7.0,50.0,1645192857.875,P16,D08,1,1,1
1332,-38.0,-7.0,50.0,1645192857.90625,P16,D08,1,1,1
1333,-38.0,-7.0,50.0,1645192857.9375,P16,D08,1,1,1
1334,-38.0,-7.0,51.0,1645192857.96875,P16,D08,1,1,1
1335,-38.0,-7.0,51.0,1645192858.0,P16,D08,1,1,1
1336,-38.0,-7.0,51.0,1645192858.03125,P16,D08,1,1,1
1337,-38.0,-7.0,50.0,1645192858.0625,P16,D08,1,1,1
1338,-38.0,-7.0,50.0,1645192858.09375,P16,D08,1,1,1
1339,-38.0,-7.0,50.0,1645192858.125,P16,D08,1,1,1
1340,-38.0,-7.0,51.0,1645192858.15625,P16,D08,1,1,1
1341,-38.0,-7.0,50.0,1645192858.1875,P16,D08,1,1,1
1342,-38.0,-7.0,51.0,1645192858.21875,P16,D08,1,1,1
1343,-38.0,-7.0,50.0,1645192858.25,P16,D08,1,1,1
1344,-38.0,-7.0,51.0,1645192858.28125,P16,D08,1,1,1
1345,-38.0,-7.0,50.0,1645192858.3125,P16,D08,1,1,1
1346,-38.0,-7.0,50.0,1645192858.34375,P16,D08,1,1,1
1347,-38.0,-7.0,50.0,1645192858.375,P16,D08,1,1,1
1348,-38.0,-7.0,50.0,1645192858.40625,P16,D08,1,1,1
1349,-38.0,-7.0,50.0,1645192858.4375,P16,D08,1,1,1
1350,-38.0,-7.0,50.0,1645192858.46875,P16,D08,1,1,1
1351,-38.0,-7.0,50.0,1645192858.5,P16,D08,1,1,1
1352,-38.0,-7.0,50.0,1645192858.53125,P16,D08,1,1,1
1353,-38.0,-7.0,50.0,1645192858.5625,P16,D08,1,1,1
1354,-38.0,-7.0,50.0,1645192858.59375,P16,D08,1,1,1
1355,-38.0,-7.0,51.0,1645192858.625,P16,D08,1,1,1
1356,-38.0,-7.0,51.0,1645192858.65625,P16,D08,1,1,1
1357,-38.0,-7.0,50.0,1645192858.6875,P16,D08,1,1,1
1358,-38.0,-7.0,51.0,1645192858.71875,P16,D08,1,1,1
1359,-38.0,-7.0,51.0,1645192858.75,P16,D08,1,1,1
1360,-38.0,-7.0,50.0,1645192858.78125,P16,D08,1,1,1
1361,-38.0,-7.0,50.0,1645192858.8125,P16,D08,1,1,1
1362,-38.0,-7.0,51.0,1645192858.84375,P16,D08,1,1,1
1363,-38.0,-7.0,50.0,1645192858.875,P16,D08,1,1,1
1364,-38.0,-7.0,50.0,1645192858.90625,P16,D08,1,1,1
1365,-38.0,-7.0,51.0,1645192858.9375,P16,D08,1,1,1
1366,-38.0,-7.0,50.0,1645192858.96875,P16,D08,1,1,1
1367,-38.0,-7.0,51.0,1645192859.0,P16,D08,1,1,1
1368,-38.0,-7.0,50.0,1645192859.03125,P16,D08,1,1,1
1369,-38.0,-7.0,51.0,1645192859.0625,P16,D08,1,1,1
1370,-38.0,-7.0,50.0,1645192859.09375,P16,D08,1,1,1
1371,-38.0,-7.0,50.0,1645192859.125,P16,D08,1,1,1
1372,-38.0,-7.0,50.0,1645192859.15625,P16,D08,1,1,1
1373,-38.0,-7.0,51.0,1645192859.1875,P16,D08,1,1,1
1374,-38.0,-7.0,50.0,1645192859.21875,P16,D08,1,1,1
1375,-38.0,-7.0,51.0,1645192859.25,P16,D08,1,1,1
1376,-38.0,-7.0,50.0,1645192859.28125,P16,D08,1,1,1
1377,-38.0,-7.0,51.0,1645192859.3125,P16,D08,1,1,1
1378,-38.0,-7.0,51.0,1645192859.34375,P16,D08,1,1,1
1379,-38.0,-7.0,50.0,1645192859.375,P16,D08,1,1,1
1380,-38.0,-7.0,51.0,1645192859.40625,P16,D08,1,1,1
1381,-38.0,-7.0,51.0,1645192859.4375,P16,D08,1,1,1
1382,-38.0,-7.0,50.0,1645192859.46875,P16,D08,1,1,1
1383,-38.0,-7.0,50.0,1645192859.5,P16,D08,1,1,1
1384,-38.0,-7.0,50.0,1645192859.53125,P16,D08,1,1,1
1385,-38.0,-7.0,50.0,1645192859.5625,P16,D08,1,1,1
1386,-38.0,-7.0,51.0,1645192859.59375,P16,D08,1,1,1
1387,-38.0,-7.0,51.0,1645192859.625,P16,D08,1,1,1
1388,-38.0,-7.0,51.0,1645192859.65625,P16,D08,1,1,1
1389,-38.0,-7.0,50.0,1645192859.6875,P16,D08,1,1,1
1390,-38.0,-7.0,50.0,1645192859.71875,P16,D08,1,1,1
1391,-38.0,-7.0,50.0,1645192859.75,P16,D08,1,1,1
1392,-38.0,-7.0,51.0,1645192859.78125,P16,D08,1,1,1
1393,-38.0,-7.0,50.0,1645192859.8125,P16,D08,1,1,1
1394,-38.0,-7.0,51.0,1645192859.84375,P16,D08,1,1,1
1395,-38.0,-7.0,51.0,1645192859.875,P16,D08,1,1,1
1396,-38.0,-7.0,51.0,1645192859.90625,P16,D08,1,1,1
1397,-38.0,-7.0,51.0,1645192859.9375,P16,D08,1,1,1
1398,-38.0,-7.0,51.0,1645192859.96875,P16,D08,1,1,1
1399,-38.0,-7.0,51.0,1645192860.0,P16,D08,1,1,1
1400,-38.0,-6.0,51.0,1645192860.03125,P16,D08,1,1,1
1401,-38.0,-6.0,50.0,1645192860.0625,P16,D08,1,1,1
1402,-38.0,-7.0,51.0,1645192860.09375,P16,D08,1,1,1
1403,-38.0,-7.0,51.0,1645192860.125,P16,D08,1,1,1
1404,-38.0,-7.0,51.0,1645192860.15625,P16,D08,1,1,1
1405,-38.0,-7.0,51.0,1645192860.1875,P16,D08,1,1,1
1406,-38.0,-7.0,51.0,1645192860.21875,P16,D08,1,1,1
1407,-38.0,-7.0,51.0,1645192860.25,P16,D08,1,1,1
1408,-38.0,-7.0,50.0,1645192860.28125,P16,D08,1,1,1
1409,-38.0,-7.0,50.0,1645192860.3125,P16,D08,1,1,1
1410,-38.0,-7.0,50.0,1645192860.34375,P16,D08,1,1,1
1411,-38.0,-7.0,50.0,1645192860.375,P16,D08,1,1,1
1412,-38.0,-7.0,50.0,1645192860.40625,P16,D08,1,1,1
1413,-38.0,-7.0,50.0,1645192860.4375,P16,D08,1,1,1
1414,-38.0,-7.0,50.0,1645192860.46875,P16,D08,1,1,1
1415,-38.0,-7.0,51.0,1645192860.5,P16,D08,1,1,1
1416,-38.0,-7.0,51.0,1645192860.53125,P16,D08,1,1,1
1417,-38.0,-8.0,50.0,1645192860.5625,P16,D08,1,1,1
1418,-38.0,-8.0,51.0,1645192860.59375,P16,D08,1,1,1
1419,-38.0,-8.0,51.0,1645192860.625,P16,D08,1,1,1
1420,-38.0,-8.0,50.0,1645192860.65625,P16,D08,1,1,1
1421,-38.0,-8.0,50.0,1645192860.6875,P16,D08,1,1,1
1422,-38.0,-8.0,50.0,1645192860.71875,P16,D08,1,1,1
1423,-38.0,-7.0,50.0,1645192860.75,P16,D08,1,1,1
1424,-38.0,-7.0,50.0,1645192860.78125,P16,D08,1,1,1
1425,-38.0,-7.0,50.0,1645192860.8125,P16,D08,1,1,1
1426,-38.0,-8.0,50.0,1645192860.84375,P16,D08,1,1,1
1427,-39.0,-8.0,50.0,1645192860.875,P16,D08,1,1,1
1428,-39.0,-7.0,50.0,1645192860.90625,P16,D08,1,1,1
1429,-37.0,-7.0,51.0,1645192860.9375,P16,D08,1,1,1
1430,-40.0,-7.0,49.0,1645192860.96875,P16,D08,1,1,1
1431,-37.0,-7.0,51.0,1645192861.0,P16,D08,1,1,1
1432,-38.0,-7.0,50.0,1645192861.03125,P16,D08,1,1,1
1433,-40.0,-7.0,49.0,1645192861.0625,P16,D08,1,1,1
1434,-37.0,-8.0,51.0,1645192861.09375,P16,D08,1,1,1
1435,-37.0,-8.0,51.0,1645192861.125,P16,D08,1,1,1
1436,-39.0,-7.0,50.0,1645192861.15625,P16,D08,1,1,1
1437,-38.0,-8.0,50.0,1645192861.1875,P16,D08,1,1,1
1438,-38.0,-7.0,50.0,1645192861.21875,P16,D08,1,1,1
1439,-39.0,-7.0,50.0,1645192861.25,P16,D08,1,1,1
1440,-38.0,-8.0,50.0,1645192861.28125,P16,D08,1,1,1
1441,-38.0,-7.0,50.0,1645192861.3125,P16,D08,1,1,1
1442,-38.0,-7.0,50.0,1645192861.34375,P16,D08,1,1,1
1443,-38.0,-7.0,50.0,1645192861.375,P16,D08,1,1,1
1444,-38.0,-7.0,50.0,1645192861.40625,P16,D08,1,1,1
1445,-38.0,-7.0,51.0,1645192861.4375,P16,D08,1,1,1
1446,-38.0,-7.0,50.0,1645192861.46875,P16,D08,1,1,1
1447,-38.0,-8.0,50.0,1645192861.5,P16,D08,1,1,1
1448,-38.0,-8.0,50.0,1645192861.53125,P16,D08,1,1,1
1449,-38.0,-8.0,50.0,1645192861.5625,P16,D08,1,1,1
1450,-38.0,-7.0,50.0,1645192861.59375,P16,D08,1,1,1
1451,-38.0,-7.0,50.0,1645192861.625,P16,D08,1,1,1
1452,-38.0,-7.0,50.0,1645192861.65625,P16,D08,1,1,1
1453,-38.0,-7.0,50.0,1645192861.6875,P16,D08,1,1,1
1454,-38.0,-7.0,50.0,1645192861.71875,P16,D08,1,1,1
1455,-38.0,-7.0,50.0,1645192861.75,P16,D08,1,1,1
1456,-38.0,-7.0,50.0,1645192861.78125,P16,D08,1,1,1
1457,-38.0,-7.0,50.0,1645192861.8125,P16,D08,1,1,1
1458,-38.0,-7.0,50.0,1645192861.84375,P16,D08,1,1,1
1459,-38.0,-7.0,50.0,1645192861.875,P16,D08,1,1,1
1460,-38.0,-7.0,50.0,1645192861.90625,P16,D08,1,1,1
1461,-38.0,-7.0,50.0,1645192861.9375,P16,D08,1,1,1
1462,-38.0,-7.0,50.0,1645192861.96875,P16,D08,1,1,1
1463,-38.0,-7.0,51.0,1645192862.0,P16,D08,1,1,1
1464,-38.0,-7.0,51.0,1645192862.03125,P16,D08,1,1,1
1465,-38.0,-7.0,50.0,1645192862.0625,P16,D08,1,1,1
1466,-38.0,-7.0,50.0,1645192862.09375,P16,D08,1,1,1
1467,-38.0,-7.0,51.0,1645192862.125,P16,D08,1,1,1
1468,-38.0,-7.0,50.0,1645192862.15625,P16,D08,1,1,1
1469,-38.0,-7.0,51.0,1645192862.1875,P16,D08,1,1,1
1470,-38.0,-7.0,51.0,1645192862.21875,P16,D08,1,1,1
1471,-38.0,-7.0,50.0,1645192862.25,P16,D08,1,1,1
1472,-38.0,-7.0,50.0,1645192862.28125,P16,D08,1,1,1
1473,-38.0,-7.0,50.0,1645192862.3125,P16,D08,1,1,1
1474,-38.0,-7.0,51.0,1645192862.34375,P16,D08,1,1,1
1475,-38.0,-7.0,50.0,1645192862.375,P16,D08,1,1,1
1476,-38.0,-7.0,51.0,1645192862.40625,P16,D08,1,1,1
1477,-38.0,-7.0,50.0,1645192862.4375,P16,D08,1,1,1
1478,-38.0,-7.0,51.0,1645192862.46875,P16,D08,1,1,1
1479,-38.0,-7.0,51.0,1645192862.5,P16,D08,1,1,1
1480,-38.0,-7.0,51.0,1645192862.53125,P16,D08,1,1,1
1481,-38.0,-7.0,51.0,1645192862.5625,P16,D08,1,1,1
1482,-38.0,-7.0,50.0,1645192862.59375,P16,D08,1,1,1
1483,-38.0,-7.0,51.0,1645192862.625,P16,D08,1,1,1
1484,-38.0,-7.0,50.0,1645192862.65625,P16,D08,1,1,1
1485,-38.0,-7.0,51.0,1645192862.6875,P16,D08,1,1,1
1486,-38.0,-7.0,50.0,1645192862.71875,P16,D08,1,1,1
1487,-38.0,-7.0,50.0,1645192862.75,P16,D08,1,1,1
1488,-38.0,-7.0,51.0,1645192862.78125,P16,D08,1,1,1
1489,-38.0,-7.0,51.0,1645192862.8125,P16,D08,1,1,1
1490,-38.0,-7.0,51.0,1645192862.84375,P16,D08,1,1,1
1491,-38.0,-7.0,50.0,1645192862.875,P16,D08,1,1,1
1492,-38.0,-7.0,50.0,1645192862.90625,P16,D08,1,1,1
1493,-38.0,-7.0,50.0,1645192862.9375,P16,D08,1,1,1
1494,-38.0,-7.0,50.0,1645192862.96875,P16,D08,1,1,1
1495,-38.0,-7.0,50.0,1645192863.0,P16,D08,1,1,1
1496,-38.0,-7.0,50.0,1645192863.03125,P16,D08,1,1,1
1497,-38.0,-7.0,50.0,1645192863.0625,P16,D08,1,1,1
1498,-38.0,-7.0,50.0,1645192863.09375,P16,D08,1,1,1
1499,-38.0,-7.0,51.0,1645192863.125,P16,D08,1,1,1
1500,-38.0,-7.0,50.0,1645192863.15625,P16,D08,1,1,1
1501,-38.0,-7.0,50.0,1645192863.1875,P16,D08,1,1,1
1502,-38.0,-7.0,50.0,1645192863.21875,P16,D08,1,1,1
1503,-38.0,-7.0,50.0,1645192863.25,P16,D08,1,1,1
1504,-38.0,-7.0,50.0,1645192863.28125,P16,D08,1,1,1
1505,-38.0,-7.0,51.0,1645192863.3125,P16,D08,1,1,1
1506,-38.0,-7.0,51.0,1645192863.34375,P16,D08,1,1,1
1507,-38.0,-7.0,50.0,1645192863.375,P16,D08,1,1,1
1508,-38.0,-7.0,50.0,1645192863.40625,P16,D08,1,1,1
1509,-38.0,-7.0,50.0,1645192863.4375,P16,D08,1,1,1
1510,-38.0,-7.0,50.0,1645192863.46875,P16,D08,1,1,1
1511,-38.0,-7.0,50.0,1645192863.5,P16,D08,1,1,1
1512,-38.0,-7.0,50.0,1645192863.53125,P16,D08,1,1,1
1513,-38.0,-7.0,50.0,1645192863.5625,P16,D08,1,1,1
1514,-38.0,-7.0,50.0,1645192863.59375,P16,D08,1,1,1
1515,-38.0,-7.0,50.0,1645192863.625,P16,D08,1,1,1
1516,-38.0,-7.0,50.0,1645192863.65625,P16,D08,1,1,1
1517,-38.0,-7.0,50.0,1645192863.6875,P16,D08,1,1,1
1518,-38.0,-7.0,50.0,1645192863.71875,P16,D08,1,1,1
1519,-38.0,-7.0,50.0,1645192863.75,P16,D08,1,1,1
1520,-38.0,-7.0,50.0,1645192863.78125,P16,D08,1,1,1
1521,-38.0,-7.0,50.0,1645192863.8125,P16,D08,1,1,1
1522,-38.0,-7.0,50.0,1645192863.84375,P16,D08,1,1,1
1523,-38.0,-7.0,50.0,1645192863.875,P16,D08,1,1,1
1524,-38.0,-7.0,50.0,1645192863.90625,P16,D08,1,1,1
1525,-38.0,-7.0,50.0,1645192863.9375,P16,D08,1,1,1
1526,-38.0,-7.0,50.0,1645192863.96875,P16,D08,1,1,1
1527,-38.0,-7.0,51.0,1645192864.0,P16,D08,1,1,1
1528,-38.0,-7.0,50.0,1645192864.03125,P16,D08,1,1,1
1529,-38.0,-7.0,50.0,1645192864.0625,P16,D08,1,1,1
1530,-38.0,-7.0,50.0,1645192864.09375,P16,D08,1,1,1
1531,-38.0,-7.0,50.0,1645192864.125,P16,D08,1,1,1
1532,-38.0,-7.0,50.0,1645192864.15625,P16,D08,1,1,1
1533,-38.0,-7.0,50.0,1645192864.1875,P16,D08,1,1,1
1534,-38.0,-7.0,50.0,1645192864.21875,P16,D08,1,1,1
1535,-38.0,-7.0,50.0,1645192864.25,P16,D08,1,1,1
1536,-38.0,-7.0,50.0,1645192864.28125,P16,D08,1,1,1
1537,-38.0,-7.0,50.0,1645192864.3125,P16,D08,1,1,1
1538,-38.0,-7.0,50.0,1645192864.34375,P16,D08,1,1,1
1539,-38.0,-7.0,50.0,1645192864.375,P16,D08,1,1,1
1540,-38.0,-7.0,50.0,1645192864.40625,P16,D08,1,1,1
1541,-38.0,-7.0,50.0,1645192864.4375,P16,D08,1,1,1
1542,-38.0,-7.0,50.0,1645192864.46875,P16,D08,1,1,1
1543,-38.0,-7.0,50.0,1645192864.5,P16,D08,1,1,1
1544,-38.0,-7.0,50.0,1645192864.53125,P16,D08,1,1,1
1545,-38.0,-7.0,50.0,1645192864.5625,P16,D08,1,1,1
1546,-38.0,-7.0,50.0,1645192864.59375,P16,D08,1,1,1
1547,-38.0,-7.0,50.0,1645192864.625,P16,D08,1,1,1
1548,-38.0,-7.0,50.0,1645192864.65625,P16,D08,1,1,1
1549,-38.0,-7.0,50.0,1645192864.6875,P16,D08,1,1,1
1550,-38.0,-7.0,50.0,1645192864.71875,P16,D08,1,1,1
1551,-38.0,-7.0,50.0,1645192864.75,P16,D08,1,1,1
1552,-38.0,-7.0,50.0,1645192864.78125,P16,D08,1,1,1
1553,-38.0,-7.0,50.0,1645192864.8125,P16,D08,1,1,1
1554,-38.0,-8.0,50.0,1645192864.84375,P16,D08,1,1,1
1555,-38.0,-7.0,50.0,1645192864.875,P16,D08,1,1,1
1556,-39.0,-7.0,50.0,1645192864.90625,P16,D08,1,1,1
1557,-38.0,-7.0,50.0,1645192864.9375,P16,D08,1,1,1
1558,-38.0,-7.0,50.0,1645192864.96875,P16,D08,1,1,1
1559,-38.0,-7.0,50.0,1645192865.0,P16,D08,1,1,1
1560,-38.0,-7.0,50.0,1645192865.03125,P16,D08,1,1,1
1561,-38.0,-7.0,50.0,1645192865.0625,P16,D08,1,1,1
1562,-38.0,-7.0,50.0,1645192865.09375,P16,D08,1,1,1
1563,-38.0,-7.0,50.0,1645192865.125,P16,D08,1,1,1
1564,-38.0,-7.0,50.0,1645192865.15625,P16,D08,1,1,1
1565,-38.0,-7.0,50.0,1645192865.1875,P16,D08,1,1,1
1566,-38.0,-7.0,50.0,1645192865.21875,P16,D08,1,1,1
1567,-38.0,-7.0,50.0,1645192865.25,P16,D08,1,1,1
1568,-38.0,-7.0,50.0,1645192865.28125,P16,D08,1,1,1
1569,-38.0,-7.0,50.0,1645192865.3125,P16,D08,1,1,1
1570,-38.0,-7.0,50.0,1645192865.34375,P16,D08,1,1,1
1571,-38.0,-7.0,50.0,1645192865.375,P16,D08,1,1,1
1572,-38.0,-7.0,50.0,1645192865.40625,P16,D08,1,1,1
1573,-38.0,-7.0,50.0,1645192865.4375,P16,D08,1,1,1
1574,-38.0,-7.0,50.0,1645192865.46875,P16,D08,1,1,1
1575,-38.0,-7.0,50.0,1645192865.5,P16,D08,1,1,1
1576,-38.0,-7.0,50.0,1645192865.53125,P16,D08,1,1,1
1577,-38.0,-7.0,50.0,1645192865.5625,P16,D08,1,1,1
1578,-38.0,-7.0,50.0,1645192865.59375,P16,D08,1,1,1
1579,-38.0,-7.0,50.0,1645192865.625,P16,D08,1,1,1
1580,-38.0,-7.0,50.0,1645192865.65625,P16,D08,1,1,1
1581,-38.0,-7.0,50.0,1645192865.6875,P16,D08,1,1,1
1582,-38.0,-7.0,50.0,1645192865.71875,P16,D08,1,1,1
1583,-38.0,-7.0,50.0,1645192865.75,P16,D08,1,1,1
1584,-38.0,-7.0,50.0,1645192865.78125,P16,D08,1,1,1
1585,-38.0,-7.0,50.0,1645192865.8125,P16,D08,1,1,1
1586,-38.0,-7.0,50.0,1645192865.84375,P16,D08,1,1,1
1587,-38.0,-7.0,50.0,1645192865.875,P16,D08,1,1,1
1588,-38.0,-7.0,50.0,1645192865.90625,P16,D08,1,1,1
1589,-38.0,-7.0,50.0,1645192865.9375,P16,D08,1,1,1
1590,-38.0,-7.0,50.0,1645192865.96875,P16,D08,1,1,1
1591,-38.0,-7.0,50.0,1645192866.0,P16,D08,1,1,1
1592,-38.0,-7.0,50.0,1645192866.03125,P16,D08,1,1,1
1593,-38.0,-8.0,50.0,1645192866.0625,P16,D08,1,1,1
1594,-38.0,-7.0,50.0,1645192866.09375,P16,D08,1,1,1
1595,-39.0,-7.0,50.0,1645192866.125,P16,D08,1,1,1
1596,-38.0,-8.0,50.0,1645192866.15625,P16,D08,1,1,1
1597,-38.0,-7.0,50.0,1645192866.1875,P16,D08,1,1,1
1598,-39.0,-7.0,50.0,1645192866.21875,P16,D08,1,1,1
1599,-38.0,-7.0,50.0,1645192866.25,P16,D08,1,1,1
1600,-38.0,-7.0,50.0,1645192866.28125,P16,D08,1,1,1
1601,-38.0,-8.0,50.0,1645192866.3125,P16,D08,1,1,1
1602,-38.0,-8.0,51.0,1645192866.34375,P16,D08,1,1,1
1603,-39.0,-8.0,49.0,1645192866.375,P16,D08,1,1,1
1604,-40.0,-8.0,49.0,1645192866.40625,P16,D08,1,1,1
1605,-38.0,-8.0,51.0,1645192866.4375,P16,D08,1,1,1
1606,-39.0,-7.0,50.0,1645192866.46875,P16,D08,1,1,1
1607,-39.0,-7.0,50.0,1645192866.5,P16,D08,1,1,1
1608,-38.0,-8.0,50.0,1645192866.53125,P16,D08,1,1,1
1609,-38.0,-8.0,50.0,1645192866.5625,P16,D08,1,1,1
1610,-39.0,-8.0,50.0,1645192866.59375,P16,D08,1,1,1
1611,-39.0,-8.0,50.0,1645192866.625,P16,D08,1,1,1
1612,-39.0,-7.0,50.0,1645192866.65625,P16,D08,1,1,1
1613,-39.0,-6.0,50.0,1645192866.6875,P16,D08,1,1,1
1614,-38.0,-7.0,50.0,1645192866.71875,P16,D08,1,1,1
1615,-38.0,-7.0,50.0,1645192866.75,P16,D08,1,1,1
1616,-38.0,-7.0,51.0,1645192866.78125,P16,D08,1,1,1
1617,-38.0,-7.0,50.0,1645192866.8125,P16,D08,1,1,1
1618,-39.0,-6.0,50.0,1645192866.84375,P16,D08,1,1,1
1619,-38.0,-5.0,50.0,1645192866.875,P16,D08,1,1,1
1620,-39.0,-6.0,50.0,1645192866.90625,P16,D08,1,1,1
1621,-39.0,-5.0,49.0,1645192866.9375,P16,D08,1,1,1
1622,-38.0,-5.0,50.0,1645192866.96875,P16,D08,1,1,1
1623,-39.0,-5.0,50.0,1645192867.0,P16,D08,1,1,1
1624,-39.0,-5.0,50.0,1645192867.03125,P16,D08,1,1,1
1625,-39.0,-6.0,50.0,1645192867.0625,P16,D08,1,1,1
1626,-39.0,-6.0,51.0,1645192867.09375,P16,D08,1,1,1
1627,-39.0,-7.0,51.0,1645192867.125,P16,D08,1,1,1
1628,-40.0,-9.0,52.0,1645192867.15625,P16,D08,1,1,1
1629,-39.0,-7.0,53.0,1645192867.1875,P16,D08,1,1,1
1630,-36.0,-5.0,54.0,1645192867.21875,P16,D08,1,1,1
1631,-37.0,-4.0,55.0,1645192867.25,P16,D08,1,1,1
1632,-35.0,-5.0,54.0,1645192867.28125,P16,D08,1,1,1
1633,-33.0,-6.0,53.0,1645192867.3125,P16,D08,1,1,1
1634,-28.0,-5.0,56.0,1645192867.34375,P16,D08,1,1,1
1635,-27.0,-7.0,56.0,1645192867.375,P16,D08,1,1,1
1636,-27.0,-8.0,59.0,1645192867.40625,P16,D08,1,1,1
1637,-27.0,-10.0,61.0,1645192867.4375,P16,D08,1,1,1
1638,-26.0,-10.0,57.0,1645192867.46875,P16,D08,1,1,1
1639,-25.0,-11.0,55.0,1645192867.5,P16,D08,1,1,1
1640,-25.0,-9.0,53.0,1645192867.53125,P16,D08,1,1,1
1641,-24.0,-7.0,52.0,1645192867.5625,P16,D08,1,1,1
1642,-24.0,-4.0,52.0,1645192867.59375,P16,D08,1,1,1
1643,-26.0,1.0,54.0,1645192867.625,P16,D08,1,1,1
1644,-25.0,1.0,54.0,1645192867.65625,P16,D08,1,1,1
1645,-24.0,0.0,56.0,1645192867.6875,P16,D08,1,1,1
1646,-25.0,-1.0,56.0,1645192867.71875,P16,D08,1,1,1
1647,-26.0,-2.0,56.0,1645192867.75,P16,D08,1,1,1
1648,-24.0,-2.0,56.0,1645192867.78125,P16,D08,1,1,1
1649,-25.0,-2.0,56.0,1645192867.8125,P16,D08,1,1,1
1650,-29.0,0.0,66.0,1645192867.84375,P16,D08,1,1,1
1651,-23.0,-7.0,59.0,1645192867.875,P16,D08,1,1,1
1652,-27.0,-5.0,55.0,1645192867.90625,P16,D08,1,1,1
1653,-26.0,-3.0,56.0,1645192867.9375,P16,D08,1,1,1
1654,-25.0,-2.0,58.0,1645192867.96875,P16,D08,1,1,1
1655,-24.0,-3.0,59.0,1645192868.0,P16,D08,1,1,1
1656,-27.0,-2.0,58.0,1645192868.03125,P16,D08,1,1,1
1657,-28.0,-2.0,57.0,1645192868.0625,P16,D08,1,1,1
1658,-28.0,-3.0,57.0,1645192868.09375,P16,D08,1,1,1
1659,-27.0,-4.0,57.0,1645192868.125,P16,D08,1,1,1
1660,-26.0,-3.0,58.0,1645192868.15625,P16,D08,1,1,1
1661,-26.0,-3.0,58.0,1645192868.1875,P16,D08,1,1,1
1662,-25.0,-2.0,58.0,1645192868.21875,P16,D08,1,1,1
1663,-26.0,-3.0,57.0,1645192868.25,P16,D08,1,1,1
1664,-27.0,-3.0,57.0,1645192868.28125,P16,D08,1,1,1
1665,-26.0,-4.0,57.0,1645192868.3125,P16,D08,1,1,1
1666,-25.0,-4.0,58.0,1645192868.34375,P16,D08,1,1,1
1667,-27.0,-3.0,57.0,1645192868.375,P16,D08,1,1,1
1668,-26.0,-3.0,57.0,1645192868.40625,P16,D08,1,1,1
1669,-26.0,-3.0,57.0,1645192868.4375,P16,D08,1,1,1
1670,-27.0,-2.0,57.0,1645192868.46875,P16,D08,1,1,1
1671,-27.0,-3.0,57.0,1645192868.5,P16,D08,1,1,1
1672,-27.0,-3.0,57.0,1645192868.53125,P16,D08,1,1,1
1673,-25.0,-3.0,58.0,1645192868.5625,P16,D08,1,1,1
1674,-24.0,-3.0,58.0,1645192868.59375,P16,D08,1,1,1
1675,-33.0,-4.0,55.0,1645192868.625,P16,D08,1,1,1
1676,-30.0,-4.0,55.0,1645192868.65625,P16,D08,1,1,1
1677,-27.0,-4.0,57.0,1645192868.6875,P16,D08,1,1,1
1678,-27.0,-4.0,57.0,1645192868.71875,P16,D08,1,1,1
1679,-28.0,-4.0,56.0,1645192868.75,P16,D08,1,1,1
1680,-29.0,-4.0,56.0,1645192868.78125,P16,D08,1,1,1
1681,-28.0,-3.0,56.0,1645192868.8125,P16,D08,1,1,1
1682,-27.0,-4.0,57.0,1645192868.84375,P16,D08,1,1,1
1683,-28.0,-4.0,57.0,1645192868.875,P16,D08,1,1,1
1684,-28.0,-4.0,57.0,1645192868.90625,P16,D08,1,1,1
1685,-28.0,-4.0,57.0,1645192868.9375,P16,D08,1,1,1
1686,-28.0,-4.0,57.0,1645192868.96875,P16,D08,1,1,1
1687,-28.0,-4.0,56.0,1645192869.0,P16,D08,1,1,1
1688,-28.0,-4.0,57.0,1645192869.03125,P16,D08,1,1,1
1689,-28.0,-3.0,56.0,1645192869.0625,P16,D08,1,1,1
1690,-28.0,-4.0,56.0,1645192869.09375,P16,D08,1,1,1
1691,-29.0,-4.0,56.0,1645192869.125,P16,D08,1,1,1
1692,-28.0,-4.0,57.0,1645192869.15625,P16,D08,1,1,1
1693,-28.0,-4.0,57.0,1645192869.1875,P16,D08,1,1,1
1694,-28.0,-4.0,56.0,1645192869.21875,P16,D08,1,1,1
1695,-28.0,-4.0,57.0,1645192869.25,P16,D08,1,1,1
1696,-27.0,-2.0,57.0,1645192869.28125,P16,D08,1,1,1
1697,-27.0,-3.0,57.0,1645192869.3125,P16,D08,1,1,1
1698,-28.0,-4.0,56.0,1645192869.34375,P16,D08,1,1,1
1699,-28.0,-4.0,57.0,1645192869.375,P16,D08,1,1,1
1700,-28.0,-4.0,57.0,1645192869.40625,P16,D08,1,1,1
1701,-28.0,-4.0,56.0,1645192869.4375,P16,D08,1,1,1
1702,-28.0,-4.0,56.0,1645192869.46875,P16,D08,1,1,1
1703,-28.0,-4.0,56.0,1645192869.5,P16,D08,1,1,1
1704,-29.0,-4.0,56.0,1645192869.53125,P16,D08,1,1,1
1705,-28.0,-4.0,57.0,1645192869.5625,P16,D08,1,1,1
1706,-28.0,-4.0,57.0,1645192869.59375,P16,D08,1,1,1
1707,-29.0,-4.0,56.0,1645192869.625,P16,D08,1,1,1
1708,-30.0,-5.0,56.0,1645192869.65625,P16,D08,1,1,1
1709,-27.0,-3.0,57.0,1645192869.6875,P16,D08,1,1,1
1710,-28.0,-4.0,56.0,1645192869.71875,P16,D08,1,1,1
1711,-28.0,-4.0,56.0,1645192869.75,P16,D08,1,1,1
1712,-28.0,-3.0,57.0,1645192869.78125,P16,D08,1,1,1
1713,-27.0,-4.0,57.0,1645192869.8125,P16,D08,1,1,1
1714,-28.0,-4.0,56.0,1645192869.84375,P16,D08,1,1,1
1715,-30.0,-4.0,56.0,1645192869.875,P16,D08,1,1,1
1716,-29.0,-4.0,56.0,1645192869.90625,P16,D08,1,1,1
1717,-28.0,-4.0,57.0,1645192869.9375,P16,D08,1,1,1
1718,-28.0,-4.0,57.0,1645192869.96875,P16,D08,1,1,1
1719,-29.0,-4.0,56.0,1645192870.0,P16,D08,1,1,1
1720,-28.0,-4.0,56.0,1645192870.03125,P16,D08,1,1,1
1721,-28.0,-4.0,56.0,1645192870.0625,P16,D08,1,1,1
1722,-28.0,-4.0,56.0,1645192870.09375,P16,D08,1,1,1
1723,-29.0,-4.0,56.0,1645192870.125,P16,D08,1,1,1
1724,-28.0,-4.0,56.0,1645192870.15625,P16,D08,1,1,1
1725,-29.0,-4.0,56.0,1645192870.1875,P16,D08,1,1,1
1726,-29.0,-4.0,56.0,1645192870.21875,P16,D08,1,1,1
1727,-29.0,-4.0,56.0,1645192870.25,P16,D08,1,1,1
1728,-29.0,-4.0,56.0,1645192870.28125,P16,D08,1,1,1
1729,-29.0,-4.0,56.0,1645192870.3125,P16,D08,1,1,1
1730,-29.0,-4.0,56.0,1645192870.34375,P16,D08,1,1,1
1731,-28.0,-4.0,56.0,1645192870.375,P16,D08,1,1,1
1732,-29.0,-4.0,56.0,1645192870.40625,P16,D08,1,1,1
1733,-29.0,-4.0,56.0,1645192870.4375,P16,D08,1,1,1
1734,-29.0,-4.0,56.0,1645192870.46875,P16,D08,1,1,1
1735,-29.0,-4.0,56.0,1645192870.5,P16,D08,1,1,1
1736,-29.0,-4.0,56.0,1645192870.53125,P16,D08,1,1,1
1737,-29.0,-4.0,56.0,1645192870.5625,P16,D08,1,1,1
1738,-29.0,-4.0,56.0,1645192870.59375,P16,D08,1,1,1
1739,-29.0,-4.0,56.0,1645192870.625,P16,D08,1,1,1
1740,-29.0,-4.0,56.0,1645192870.65625,P16,D08,1,1,1
1741,-29.0,-4.0,56.0,1645192870.6875,P16,D08,1,1,1
1742,-29.0,-4.0,56.0,1645192870.71875,P16,D08,1,1,1
1743,-29.0,-4.0,56.0,1645192870.75,P16,D08,1,1,1
1744,-29.0,-4.0,56.0,1645192870.78125,P16,D08,1,1,1
1745,-29.0,-4.0,56.0,1645192870.8125,P16,D08,1,1,1
1746,-29.0,-4.0,56.0,1645192870.84375,P16,D08,1,1,1
1747,-29.0,-4.0,56.0,1645192870.875,P16,D08,1,1,1
1748,-29.0,-4.0,56.0,1645192870.90625,P16,D08,1,1,1
1749,-29.0,-4.0,56.0,1645192870.9375,P16,D08,1,1,1
1750,-29.0,-5.0,56.0,1645192870.96875,P16,D08,1,1,1
1751,-29.0,-4.0,56.0,1645192871.0,P16,D08,1,1,1
1752,-29.0,-4.0,56.0,1645192871.03125,P16,D08,1,1,1
1753,-29.0,-4.0,56.0,1645192871.0625,P16,D08,1,1,1
1754,-29.0,-4.0,56.0,1645192871.09375,P16,D08,1,1,1
1755,-29.0,-4.0,56.0,1645192871.125,P16,D08,1,1,1
1756,-29.0,-4.0,56.0,1645192871.15625,P16,D08,1,1,1
1757,-29.0,-5.0,56.0,1645192871.1875,P16,D08,1,1,1
1758,-29.0,-5.0,56.0,1645192871.21875,P16,D08,1,1,1
1759,-29.0,-4.0,56.0,1645192871.25,P16,D08,1,1,1
1760,-29.0,-4.0,56.0,1645192871.28125,P16,D08,1,1,1
1761,-29.0,-5.0,56.0,1645192871.3125,P16,D08,1,1,1
1762,-29.0,-4.0,56.0,1645192871.34375,P16,D08,1,1,1
1763,-29.0,-4.0,56.0,1645192871.375,P16,D08,1,1,1
1764,-29.0,-4.0,56.0,1645192871.40625,P16,D08,1,1,1
1765,-29.0,-4.0,56.0,1645192871.4375,P16,D08,1,1,1
1766,-29.0,-5.0,56.0,1645192871.46875,P16,D08,1,1,1
1767,-29.0,-4.0,56.0,1645192871.5,P16,D08,1,1,1
1768,-29.0,-4.0,56.0,1645192871.53125,P16,D08,1,1,1
1769,-29.0,-4.0,56.0,1645192871.5625,P16,D08,1,1,1
1770,-29.0,-4.0,56.0,1645192871.59375,P16,D08,1,1,1
1771,-29.0,-4.0,56.0,1645192871.625,P16,D08,1,1,1
1772,-29.0,-4.0,56.0,1645192871.65625,P16,D08,1,1,1
1773,-29.0,-4.0,56.0,1645192871.6875,P16,D08,1,1,1
1774,-29.0,-4.0,56.0,1645192871.71875,P16,D08,1,1,1
1775,-29.0,-4.0,56.0,1645192871.75,P16,D08,1,1,1
1776,-29.0,-4.0,56.0,1645192871.78125,P16,D08,1,1,1
1777,-29.0,-4.0,56.0,1645192871.8125,P16,D08,1,1,1
1778,-29.0,-4.0,56.0,1645192871.84375,P16,D08,1,1,1
1779,-29.0,-4.0,56.0,1645192871.875,P16,D08,1,1,1
1780,-29.0,-4.0,56.0,1645192871.90625,P16,D08,1,1,1
1781,-29.0,-4.0,56.0,1645192871.9375,P16,D08,1,1,1
1782,-29.0,-4.0,56.0,1645192871.96875,P16,D08,1,1,1
1783,-29.0,-4.0,56.0,1645192872.0,P16,D08,1,1,1
1784,-29.0,-4.0,56.0,1645192872.03125,P16,D08,1,1,1
1785,-29.0,-4.0,56.0,1645192872.0625,P16,D08,1,1,1
1786,-29.0,-4.0,56.0,1645192872.09375,P16,D08,1,1,1
1787,-29.0,-4.0,56.0,1645192872.125,P16,D08,1,1,1
1788,-28.0,-4.0,56.0,1645192872.15625,P16,D08,1,1,1
1789,-29.0,-4.0,56.0,1645192872.1875,P16,D08,1,1,1
1790,-29.0,-4.0,56.0,1645192872.21875,P16,D08,1,1,1
1791,-29.0,-4.0,56.0,1645192872.25,P16,D08,1,1,1
1792,-29.0,-4.0,56.0,1645192872.28125,P16,D08,1,1,1
1793,-29.0,-4.0,56.0,1645192872.3125,P16,D08,1,1,1
1794,-29.0,-4.0,56.0,1645192872.34375,P16,D08,1,1,1
1795,-29.0,-4.0,56.0,1645192872.375,P16,D08,1,1,1
1796,-29.0,-4.0,56.0,1645192872.40625,P16,D08,1,1,1
1797,-29.0,-4.0,56.0,1645192872.4375,P16,D08,1,1,1
1798,-29.0,-4.0,56.0,1645192872.46875,P16,D08,1,1,1
1799,-29.0,-4.0,56.0,1645192872.5,P16,D08,1,1,1
1800,-29.0,-4.0,56.0,1645192872.53125,P16,D08,1,1,1
1801,-29.0,-4.0,56.0,1645192872.5625,P16,D08,1,1,1
1802,-29.0,-4.0,56.0,1645192872.59375,P16,D08,1,1,1
1803,-29.0,-4.0,56.0,1645192872.625,P16,D08,1,1,1
1804,-29.0,-4.0,56.0,1645192872.65625,P16,D08,1,1,1
1805,-29.0,-4.0,56.0,1645192872.6875,P16,D08,1,1,1
1806,-29.0,-4.0,56.0,1645192872.71875,P16,D08,1,1,1
1807,-29.0,-4.0,56.0,1645192872.75,P16,D08,1,1,1
1808,-29.0,-4.0,56.0,1645192872.78125,P16,D08,1,1,1
1809,-29.0,-4.0,56.0,1645192872.8125,P16,D08,1,1,1
1810,-29.0,-5.0,56.0,1645192872.84375,P16,D08,1,1,1
1811,-29.0,-4.0,56.0,1645192872.875,P16,D08,1,1,1
1812,-29.0,-4.0,56.0,1645192872.90625,P16,D08,1,1,1
1813,-29.0,-4.0,56.0,1645192872.9375,P16,D08,1,1,1
1814,-29.0,-4.0,56.0,1645192872.96875,P16,D08,1,1,1
1815,-29.0,-4.0,56.0,1645192873.0,P16,D08,1,1,1
1816,-29.0,-4.0,56.0,1645192873.03125,P16,D08,1,1,1
1817,-29.0,-4.0,56.0,1645192873.0625,P16,D08,1,1,1
1818,-29.0,-4.0,56.0,1645192873.09375,P16,D08,1,1,1
1819,-29.0,-4.0,56.0,1645192873.125,P16,D08,1,1,1
1820,-29.0,-4.0,56.0,1645192873.15625,P16,D08,1,1,1
1821,-29.0,-4.0,56.0,1645192873.1875,P16,D08,1,1,1
1822,-29.0,-4.0,56.0,1645192873.21875,P16,D08,1,1,1
1823,-29.0,-4.0,56.0,1645192873.25,P16,D08,1,1,1
1824,-29.0,-4.0,56.0,1645192873.28125,P16,D08,1,1,1
1825,-29.0,-4.0,56.0,1645192873.3125,P16,D08,1,1,1
1826,-29.0,-5.0,56.0,1645192873.34375,P16,D08,1,1,1
1827,-29.0,-4.0,56.0,1645192873.375,P16,D08,1,1,1
1828,-29.0,-4.0,56.0,1645192873.40625,P16,D08,1,1,1
1829,-29.0,-4.0,56.0,1645192873.4375,P16,D08,1,1,1
1830,-29.0,-4.0,56.0,1645192873.46875,P16,D08,1,1,1
1831,-29.0,-5.0,56.0,1645192873.5,P16,D08,1,1,1
1832,-29.0,-5.0,56.0,1645192873.53125,P16,D08,1,1,1
1833,-29.0,-5.0,56.0,1645192873.5625,P16,D08,1,1,1
1834,-29.0,-5.0,56.0,1645192873.59375,P16,D08,1,1,1
1835,-29.0,-5.0,56.0,1645192873.625,P16,D08,1,1,1
1836,-29.0,-4.0,56.0,1645192873.65625,P16,D08,1,1,1
1837,-29.0,-4.0,56.0,1645192873.6875,P16,D08,1,1,1
1838,-29.0,-5.0,56.0,1645192873.71875,P16,D08,1,1,1
1839,-29.0,-5.0,56.0,1645192873.75,P16,D08,1,1,1
1840,-29.0,-5.0,56.0,1645192873.78125,P16,D08,1,1,1
1841,-29.0,-4.0,56.0,1645192873.8125,P16,D08,1,1,1
1842,-29.0,-4.0,56.0,1645192873.84375,P16,D08,1,1,1
1843,-29.0,-4.0,56.0,1645192873.875,P16,D08,1,1,1
1844,-29.0,-5.0,56.0,1645192873.90625,P16,D08,1,1,1
1845,-29.0,-5.0,56.0,1645192873.9375,P16,D08,1,1,1
1846,-29.0,-5.0,56.0,1645192873.96875,P16,D08,1,1,1
1847,-29.0,-5.0,56.0,1645192874.0,P16,D08,1,1,1
1848,-29.0,-4.0,56.0,1645192874.03125,P16,D08,1,1,1
1849,-29.0,-5.0,56.0,1645192874.0625,P16,D08,1,1,1
1850,-29.0,-4.0,56.0,1645192874.09375,P16,D08,1,1,1
1851,-29.0,-5.0,56.0,1645192874.125,P16,D08,1,1,1
1852,-29.0,-5.0,56.0,1645192874.15625,P16,D08,1,1,1
1853,-29.0,-4.0,56.0,1645192874.1875,P16,D08,1,1,1
1854,-29.0,-4.0,56.0,1645192874.21875,P16,D08,1,1,1
1855,-29.0,-4.0,56.0,1645192874.25,P16,D08,1,1,1
1856,-29.0,-5.0,56.0,1645192874.28125,P16,D08,1,1,1
1857,-29.0,-4.0,56.0,1645192874.3125,P16,D08,1,1,1
1858,-29.0,-4.0,56.0,1645192874.34375,P16,D08,1,1,1
1859,-29.0,-5.0,56.0,1645192874.375,P16,D08,1,1,1
1860,-29.0,-5.0,56.0,1645192874.40625,P16,D08,1,1,1
1861,-29.0,-4.0,56.0,1645192874.4375,P16,D08,1,1,1
1862,-29.0,-5.0,56.0,1645192874.46875,P16,D08,1,1,1
1863,-29.0,-5.0,56.0,1645192874.5,P16,D08,1,1,1
1864,-29.0,-5.0,56.0,1645192874.53125,P16,D08,1,1,1
1865,-29.0,-5.0,56.0,1645192874.5625,P16,D08,1,1,1
1866,-29.0,-5.0,56.0,1645192874.59375,P16,D08,1,1,1
1867,-29.0,-5.0,56.0,1645192874.625,P16,D08,1,1,1
1868,-29.0,-5.0,56.0,1645192874.65625,P16,D08,1,1,1
1869,-29.0,-5.0,56.0,1645192874.6875,P16,D08,1,1,1
1870,-29.0,-5.0,56.0,1645192874.71875,P16,D08,1,1,1
1871,-29.0,-4.0,56.0,1645192874.75,P16,D08,1,1,1
1872,-29.0,-4.0,56.0,1645192874.78125,P16,D08,1,1,1
1873,-29.0,-5.0,56.0,1645192874.8125,P16,D08,1,1,1
1874,-29.0,-5.0,56.0,1645192874.84375,P16,D08,1,1,1
1875,-29.0,-4.0,56.0,1645192874.875,P16,D08,1,1,1
1876,-29.0,-5.0,56.0,1645192874.90625,P16,D08,1,1,1
1877,-29.0,-5.0,56.0,1645192874.9375,P16,D08,1,1,1
1878,-29.0,-4.0,56.0,1645192874.96875,P16,D08,1,1,1
1879,-29.0,-4.0,56.0,1645192875.0,P16,D08,1,1,1
1880,-29.0,-5.0,56.0,1645192875.03125,P16,D08,1,1,1
1881,-29.0,-5.0,56.0,1645192875.0625,P16,D08,1,1,1
1882,-29.0,-4.0,56.0,1645192875.09375,P16,D08,1,1,1
1883,-29.0,-4.0,56.0,1645192875.125,P16,D08,1,1,1
1884,-29.0,-4.0,56.0,1645192875.15625,P16,D08,1,1,1
1885,-29.0,-4.0,56.0,1645192875.1875,P16,D08,1,1,1
1886,-29.0,-4.0,56.0,1645192875.21875,P16,D08,1,1,1
1887,-29.0,-4.0,56.0,1645192875.25,P16,D08,1,1,1
1888,-29.0,-4.0,56.0,1645192875.28125,P16,D08,1,1,1
1889,-29.0,-4.0,56.0,1645192875.3125,P16,D08,1,1,1
1890,-29.0,-4.0,56.0,1645192875.34375,P16,D08,1,1,1
1891,-29.0,-4.0,56.0,1645192875.375,P16,D08,1,1,1
1892,-29.0,-4.0,56.0,1645192875.40625,P16,D08,1,1,1
1893,-29.0,-4.0,56.0,1645192875.4375,P16,D08,1,1,1
1894,-29.0,-4.0,56.0,1645192875.46875,P16,D08,1,1,1
1895,-29.0,-4.0,56.0,1645192875.5,P16,D08,1,1,1
1896,-29.0,-4.0,56.0,1645192875.53125,P16,D08,1,1,1
1897,-29.0,-4.0,56.0,1645192875.5625,P16,D08,1,1,1
1898,-29.0,-4.0,56.0,1645192875.59375,P16,D08,1,1,1
1899,-29.0,-4.0,56.0,1645192875.625,P16,D08,1,1,1
1900,-29.0,-4.0,56.0,1645192875.65625,P16,D08,1,1,1
1901,-29.0,-4.0,56.0,1645192875.6875,P16,D08,1,1,1
1902,-29.0,-4.0,56.0,1645192875.71875,P16,D08,1,1,1
1903,-29.0,-4.0,56.0,1645192875.75,P16,D08,1,1,1
1904,-29.0,-4.0,56.0,1645192875.78125,P16,D08,1,1,1
1905,-29.0,-4.0,56.0,1645192875.8125,P16,D08,1,1,1
1906,-29.0,-4.0,56.0,1645192875.84375,P16,D08,1,1,1
1907,-29.0,-4.0,56.0,1645192875.875,P16,D08,1,1,1
1908,-29.0,-4.0,56.0,1645192875.90625,P16,D08,1,1,1
1909,-28.0,-4.0,56.0,1645192875.9375,P16,D08,1,1,1
1910,-29.0,-4.0,56.0,1645192875.96875,P16,D08,1,1,1
1911,-29.0,-4.0,56.0,1645192876.0,P16,D08,1,1,1
1912,-29.0,-4.0,56.0,1645192876.03125,P16,D08,1,1,1
1913,-29.0,-4.0,56.0,1645192876.0625,P16,D08,1,1,1
1914,-29.0,-4.0,56.0,1645192876.09375,P16,D08,1,1,1
1915,-29.0,-4.0,56.0,1645192876.125,P16,D08,1,1,1
1916,-29.0,-4.0,56.0,1645192876.15625,P16,D08,1,1,1
1917,-29.0,-4.0,56.0,1645192876.1875,P16,D08,1,1,1
1918,-29.0,-4.0,56.0,1645192876.21875,P16,D08,1,1,1
1919,-29.0,-4.0,56.0,1645192876.25,P16,D08,1,1,1
1920,-29.0,-4.0,56.0,1645192876.28125,P16,D08,1,1,1
1921,-29.0,-4.0,56.0,1645192876.3125,P16,D08,1,1,1
1922,-28.0,-5.0,56.0,1645192876.34375,P16,D08,1,1,1
1923,-29.0,-4.0,56.0,1645192876.375,P16,D08,1,1,1
1924,-29.0,-4.0,56.0,1645192876.40625,P16,D08,1,1,1
1925,-29.0,-4.0,56.0,1645192876.4375,P16,D08,1,1,1
1926,-29.0,-4.0,56.0,1645192876.46875,P16,D08,1,1,1
1927,-29.0,-4.0,56.0,1645192876.5,P16,D08,1,1,1
1928,-29.0,-4.0,56.0,1645192876.53125,P16,D08,1,1,1
1929,-29.0,-4.0,56.0,1645192876.5625,P16,D08,1,1,1
1930,-29.0,-4.0,56.0,1645192876.59375,P16,D08,1,1,1
1931,-28.0,-4.0,56.0,1645192876.625,P16,D08,1,1,1
1932,-29.0,-5.0,56.0,1645192876.65625,P16,D08,1,1,1
1933,-29.0,-5.0,56.0,1645192876.6875,P16,D08,1,1,1
1934,-29.0,-4.0,56.0,1645192876.71875,P16,D08,1,1,1
1935,-29.0,-4.0,56.0,1645192876.75,P16,D08,1,1,1
1936,-29.0,-4.0,56.0,1645192876.78125,P16,D08,1,1,1
1937,-29.0,-4.0,56.0,1645192876.8125,P16,D08,1,1,1
1938,-29.0,-5.0,56.0,1645192876.84375,P16,D08,1,1,1
1939,-29.0,-5.0,56.0,1645192876.875,P16,D08,1,1,1
1940,-29.0,-4.0,56.0,1645192876.90625,P16,D08,1,1,1
1941,-29.0,-4.0,56.0,1645192876.9375,P16,D08,1,1,1
1942,-29.0,-4.0,56.0,1645192876.96875,P16,D08,1,1,1
1943,-29.0,-4.0,56.0,1645192877.0,P16,D08,1,1,1
1944,-29.0,-5.0,56.0,1645192877.03125,P16,D08,1,1,1
1945,-29.0,-4.0,56.0,1645192877.0625,P16,D08,1,1,1
1946,-29.0,-4.0,56.0,1645192877.09375,P16,D08,1,1,1
1947,-29.0,-4.0,56.0,1645192877.125,P16,D08,1,1,1
1948,-29.0,-4.0,56.0,1645192877.15625,P16,D08,1,1,1
1949,-29.0,-4.0,56.0,1645192877.1875,P16,D08,1,1,1
1950,-29.0,-5.0,56.0,1645192877.21875,P16,D08,1,1,1
1951,-29.0,-4.0,56.0,1645192877.25,P16,D08,1,1,1
1952,-29.0,-4.0,56.0,1645192877.28125,P16,D08,1,1,1
1953,-29.0,-4.0,56.0,1645192877.3125,P16,D08,1,1,1
1954,-29.0,-4.0,56.0,1645192877.34375,P16,D08,1,1,1
1955,-28.0,-5.0,56.0,1645192877.375,P16,D08,1,1,1
1956,-29.0,-5.0,56.0,1645192877.40625,P16,D08,1,1,1
1957,-29.0,-4.0,56.0,1645192877.4375,P16,D08,1,1,1
1958,-29.0,-4.0,56.0,1645192877.46875,P16,D08,1,1,1
1959,-29.0,-5.0,56.0,1645192877.5,P16,D08,1,1,1
1960,-29.0,-4.0,56.0,1645192877.53125,P16,D08,1,1,1
1961,-29.0,-4.0,56.0,1645192877.5625,P16,D08,1,1,1
1962,-29.0,-4.0,56.0,1645192877.59375,P16,D08,1,1,1
1963,-29.0,-4.0,56.0,1645192877.625,P16,D08,1,1,1
1964,-29.0,-4.0,56.0,1645192877.65625,P16,D08,1,1,1
1965,-29.0,-4.0,56.0,1645192877.6875,P16,D08,1,1,1
1966,-29.0,-5.0,56.0,1645192877.71875,P16,D08,1,1,1
1967,-29.0,-4.0,56.0,1645192877.75,P16,D08,1,1,1
1968,-29.0,-4.0,56.0,1645192877.78125,P16,D08,1,1,1
1969,-29.0,-4.0,56.0,1645192877.8125,P16,D08,1,1,1
1970,-29.0,-5.0,56.0,1645192877.84375,P16,D08,1,1,1
1971,-29.0,-4.0,56.0,1645192877.875,P16,D08,1,1,1
1972,-29.0,-4.0,56.0,1645192877.90625,P16,D08,1,1,1
1973,-29.0,-5.0,56.0,1645192877.9375,P16,D08,1,1,1
1974,-29.0,-5.0,56.0,1645192877.96875,P16,D08,1,1,1
1975,-29.0,-4.0,56.0,1645192878.0,P16,D08,1,1,1
1976,-29.0,-4.0,56.0,1645192878.03125,P16,D08,1,1,1
1977,-29.0,-4.0,56.0,1645192878.0625,P16,D08,1,1,1
1978,-29.0,-4.0,56.0,1645192878.09375,P16,D08,1,1,1
1979,-29.0,-4.0,56.0,1645192878.125,P16,D08,1,1,1
1980,-29.0,-4.0,56.0,1645192878.15625,P16,D08,1,1,1
1981,-29.0,-5.0,56.0,1645192878.1875,P16,D08,1,1,1
1982,-29.0,-5.0,56.0,1645192878.21875,P16,D08,1,1,1
1983,-29.0,-5.0,56.0,1645192878.25,P16,D08,1,1,1
1984,-29.0,-5.0,56.0,1645192878.28125,P16,D08,1,1,1
1985,-29.0,-5.0,56.0,1645192878.3125,P16,D08,1,1,1
1986,-29.0,-5.0,56.0,1645192878.34375,P16,D08,1,1,1
1987,-29.0,-4.0,56.0,1645192878.375,P16,D08,1,1,1
1988,-29.0,-4.0,56.0,1645192878.40625,P16,D08,1,1,1
1989,-29.0,-5.0,56.0,1645192878.4375,P16,D08,1,1,1
1990,-29.0,-5.0,56.0,1645192878.46875,P16,D08,1,1,1
1991,-29.0,-4.0,56.0,1645192878.5,P16,D08,1,1,1
1992,-29.0,-5.0,56.0,1645192878.53125,P16,D08,1,1,1
1993,-29.0,-4.0,56.0,1645192878.5625,P16,D08,1,1,1
1994,-29.0,-4.0,56.0,1645192878.59375,P16,D08,1,1,1
1995,-29.0,-4.0,56.0,1645192878.625,P16,D08,1,1,1
1996,-29.0,-4.0,56.0,1645192878.65625,P16,D08,1,1,1
1997,-29.0,-5.0,56.0,1645192878.6875,P16,D08,1,1,1
1998,-29.0,-5.0,56.0,1645192878.71875,P16,D08,1,1,1
1999,-29.0,-4.0,56.0,1645192878.75,P16,D08,1,1,1
2000,-29.0,-4.0,56.0,1645192878.78125,P16,D08,1,1,1
2001,-29.0,-4.0,56.0,1645192878.8125,P16,D08,1,1,1
2002,-29.0,-4.0,56.0,1645192878.84375,P16,D08,1,1,1
2003,-29.0,-4.0,56.0,1645192878.875,P16,D08,1,1,1
2004,-29.0,-4.0,56.0,1645192878.90625,P16,D08,1,1,1
2005,-29.0,-4.0,56.0,1645192878.9375,P16,D08,1,1,1
2006,-28.0,-4.0,56.0,1645192878.96875,P16,D08,1,1,1
2007,-29.0,-4.0,56.0,1645192879.0,P16,D08,1,1,1
2008,-29.0,-4.0,56.0,1645192879.03125,P16,D08,1,1,1
2009,-29.0,-4.0,56.0,1645192879.0625,P16,D08,1,1,1
2010,-29.0,-4.0,56.0,1645192879.09375,P16,D08,1,1,1
2011,-29.0,-4.0,56.0,1645192879.125,P16,D08,1,1,1
2012,-29.0,-4.0,56.0,1645192879.15625,P16,D08,1,1,1
2013,-29.0,-4.0,56.0,1645192879.1875,P16,D08,1,1,1
2014,-29.0,-4.0,56.0,1645192879.21875,P16,D08,1,1,1
2015,-29.0,-4.0,56.0,1645192879.25,P16,D08,1,1,1
2016,-29.0,-4.0,56.0,1645192879.28125,P16,D08,1,1,1
2017,-29.0,-4.0,56.0,1645192879.3125,P16,D08,1,1,1
2018,-29.0,-4.0,56.0,1645192879.34375,P16,D08,1,1,1
2019,-29.0,-4.0,56.0,1645192879.375,P16,D08,1,1,1
2020,-29.0,-4.0,56.0,1645192879.40625,P16,D08,1,1,1
2021,-28.0,-4.0,56.0,1645192879.4375,P16,D08,1,1,1
2022,-29.0,-4.0,56.0,1645192879.46875,P16,D08,1,1,1
2023,-29.0,-4.0,56.0,1645192879.5,P16,D08,1,1,1
2024,-29.0,-4.0,56.0,1645192879.53125,P16,D08,1,1,1
2025,-29.0,-4.0,56.0,1645192879.5625,P16,D08,1,1,1
2026,-28.0,-4.0,56.0,1645192879.59375,P16,D08,1,1,1
2027,-29.0,-4.0,56.0,1645192879.625,P16,D08,1,1,1
2028,-29.0,-4.0,56.0,1645192879.65625,P16,D08,1,1,1
2029,-29.0,-4.0,56.0,1645192879.6875,P16,D08,1,1,1
2030,-29.0,-4.0,56.0,1645192879.71875,P16,D08,1,1,1
2031,-29.0,-4.0,56.0,1645192879.75,P16,D08,1,1,1
2032,-29.0,-4.0,56.0,1645192879.78125,P16,D08,1,1,1
2033,-29.0,-4.0,56.0,1645192879.8125,P16,D08,1,1,1
2034,-29.0,-4.0,56.0,1645192879.84375,P16,D08,1,1,1
2035,-29.0,-4.0,56.0,1645192879.875,P16,D08,1,1,1
2036,-29.0,-4.0,56.0,1645192879.90625,P16,D08,1,1,1
2037,-29.0,-5.0,56.0,1645192879.9375,P16,D08,1,1,1
2038,-29.0,-5.0,56.0,1645192879.96875,P16,D08,1,1,1
2039,-29.0,-5.0,56.0,1645192880.0,P16,D08,1,1,1
2040,-29.0,-5.0,56.0,1645192880.03125,P16,D08,1,1,1
2041,-29.0,-4.0,56.0,1645192880.0625,P16,D08,1,1,1
2042,-29.0,-5.0,56.0,1645192880.09375,P16,D08,1,1,1
2043,-29.0,-4.0,56.0,1645192880.125,P16,D08,1,1,1
2044,-29.0,-4.0,56.0,1645192880.15625,P16,D08,1,1,1
2045,-29.0,-5.0,56.0,1645192880.1875,P16,D08,1,1,1
2046,-29.0,-5.0,56.0,1645192880.21875,P16,D08,1,1,1
2047,-29.0,-4.0,56.0,1645192880.25,P16,D08,1,1,1
2048,-29.0,-4.0,56.0,1645192880.28125,P16,D08,1,1,1
2049,-29.0,-4.0,56.0,1645192880.3125,P16,D08,1,1,1
2050,-29.0,-5.0,56.0,1645192880.34375,P16,D08,1,1,1
2051,-29.0,-4.0,56.0,1645192880.375,P16,D08,1,1,1
2052,-29.0,-5.0,56.0,1645192880.40625,P16,D08,1,1,1
2053,-29.0,-4.0,56.0,1645192880.4375,P16,D08,1,1,1
2054,-29.0,-5.0,56.0,1645192880.46875,P16,D08,1,1,1
2055,-29.0,-4.0,56.0,1645192880.5,P16,D08,1,1,1
2056,-29.0,-5.0,56.0,1645192880.53125,P16,D08,1,1,1
2057,-29.0,-5.0,56.0,1645192880.5625,P16,D08,1,1,1
2058,-29.0,-5.0,56.0,1645192880.59375,P16,D08,1,1,1
2059,-29.0,-5.0,56.0,1645192880.625,P16,D08,1,1,1
2060,-29.0,-5.0,56.0,1645192880.65625,P16,D08,1,1,1
2061,-29.0,-5.0,56.0,1645192880.6875,P16,D08,1,1,1
2062,-29.0,-5.0,56.0,1645192880.71875,P16,D08,1,1,1
2063,-29.0,-5.0,56.0,1645192880.75,P16,D08,1,1,1
2064,-29.0,-5.0,56.0,1645192880.78125,P16,D08,1,1,1
2065,-29.0,-5.0,56.0,1645192880.8125,P16,D08,1,1,1
2066,-29.0,-5.0,56.0,1645192880.84375,P16,D08,1,1,1
2067,-29.0,-5.0,56.0,1645192880.875,P16,D08,1,1,1
2068,-29.0,-5.0,56.0,1645192880.90625,P16,D08,1,1,1
2069,-29.0,-5.0,56.0,1645192880.9375,P16,D08,1,1,1
2070,-29.0,-4.0,56.0,1645192880.96875,P16,D08,1,1,1
2071,-29.0,-4.0,56.0,1645192881.0,P16,D08,1,1,1
2072,-29.0,-5.0,56.0,1645192881.03125,P16,D08,1,1,1
2073,-29.0,-5.0,56.0,1645192881.0625,P16,D08,1,1,1
2074,-29.0,-5.0,56.0,1645192881.09375,P16,D08,1,1,1
2075,-29.0,-5.0,56.0,1645192881.125,P16,D08,1,1,1
2076,-29.0,-5.0,56.0,1645192881.15625,P16,D08,1,1,1
2077,-29.0,-5.0,56.0,1645192881.1875,P16,D08,1,1,1
2078,-29.0,-5.0,56.0,1645192881.21875,P16,D08,1,1,1
2079,-29.0,-5.0,56.0,1645192881.25,P16,D08,1,1,1
2080,-29.0,-5.0,56.0,1645192881.28125,P16,D08,1,1,1
2081,-29.0,-5.0,56.0,1645192881.3125,P16,D08,1,1,1
2082,-29.0,-5.0,56.0,1645192881.34375,P16,D08,1,1,1
2083,-29.0,-5.0,56.0,1645192881.375,P16,D08,1,1,1
2084,-29.0,-5.0,56.0,1645192881.40625,P16,D08,1,1,1
2085,-29.0,-5.0,56.0,1645192881.4375,P16,D08,1,1,1
2086,-29.0,-5.0,56.0,1645192881.46875,P16,D08,1,1,1
2087,-29.0,-5.0,56.0,1645192881.5,P16,D08,1,1,1
2088,-29.0,-4.0,56.0,1645192881.53125,P16,D08,1,1,1
2089,-29.0,-5.0,56.0,1645192881.5625,P16,D08,1,1,1
2090,-29.0,-4.0,56.0,1645192881.59375,P16,D08,1,1,1
2091,-29.0,-5.0,56.0,1645192881.625,P16,D08,1,1,1
2092,-29.0,-4.0,56.0,1645192881.65625,P16,D08,1,1,1
2093,-29.0,-4.0,56.0,1645192881.6875,P16,D08,1,1,1
2094,-29.0,-4.0,56.0,1645192881.71875,P16,D08,1,1,1
2095,-29.0,-4.0,56.0,1645192881.75,P16,D08,1,1,1
2096,-29.0,-4.0,56.0,1645192881.78125,P16,D08,1,1,1
2097,-29.0,-5.0,56.0,1645192881.8125,P16,D08,1,1,1
2098,-29.0,-4.0,56.0,1645192881.84375,P16,D08,1,1,1
2099,-29.0,-4.0,56.0,1645192881.875,P16,D08,1,1,1
2100,-29.0,-4.0,56.0,1645192881.90625,P16,D08,1,1,1
2101,-29.0,-4.0,56.0,1645192881.9375,P16,D08,1,1,1
2102,-29.0,-4.0,56.0,1645192881.96875,P16,D08,1,1,1
2103,-29.0,-4.0,56.0,1645192882.0,P16,D08,1,1,1
2104,-29.0,-4.0,56.0,1645192882.03125,P16,D08,1,1,1
2105,-29.0,-4.0,56.0,1645192882.0625,P16,D08,1,1,1
2106,-29.0,-4.0,56.0,1645192882.09375,P16,D08,1,1,1
2107,-29.0,-4.0,56.0,1645192882.125,P16,D08,1,1,1
2108,-29.0,-4.0,56.0,1645192882.15625,P16,D08,1,1,1
2109,-29.0,-4.0,56.0,1645192882.1875,P16,D08,1,1,1
2110,-29.0,-4.0,56.0,1645192882.21875,P16,D08,1,1,1
2111,-29.0,-4.0,56.0,1645192882.25,P16,D08,1,1,1
2112,-29.0,-4.0,56.0,1645192882.28125,P16,D08,1,1,1
2113,-29.0,-4.0,56.0,1645192882.3125,P16,D08,1,1,1
2114,-29.0,-4.0,56.0,1645192882.34375,P16,D08,1,1,1
2115,-29.0,-4.0,56.0,1645192882.375,P16,D08,1,1,1
2116,-29.0,-4.0,56.0,1645192882.40625,P16,D08,1,1,1
2117,-29.0,-5.0,56.0,1645192882.4375,P16,D08,1,1,1
2118,-29.0,-4.0,56.0,1645192882.46875,P16,D08,1,1,1
2119,-29.0,-4.0,56.0,1645192882.5,P16,D08,1,1,1
2120,-29.0,-4.0,56.0,1645192882.53125,P16,D08,1,1,1
2121,-29.0,-4.0,56.0,1645192882.5625,P16,D08,1,1,1
2122,-29.0,-4.0,56.0,1645192882.59375,P16,D08,1,1,1
2123,-29.0,-4.0,56.0,1645192882.625,P16,D08,1,1,1
2124,-29.0,-5.0,56.0,1645192882.65625,P16,D08,1,1,1
2125,-29.0,-4.0,56.0,1645192882.6875,P16,D08,1,1,1
2126,-29.0,-4.0,56.0,1645192882.71875,P16,D08,1,1,1
2127,-29.0,-4.0,56.0,1645192882.75,P16,D08,1,1,1
2128,-29.0,-4.0,56.0,1645192882.78125,P16,D08,1,1,1
2129,-29.0,-5.0,56.0,1645192882.8125,P16,D08,1,1,1
2130,-29.0,-4.0,56.0,1645192882.84375,P16,D08,1,1,1
2131,-29.0,-5.0,56.0,1645192882.875,P16,D08,1,1,1
2132,-29.0,-5.0,56.0,1645192882.90625,P16,D08,1,1,1
2133,-29.0,-5.0,56.0,1645192882.9375,P16,D08,1,1,1
2134,-29.0,-4.0,56.0,1645192882.96875,P16,D08,1,1,1
2135,-29.0,-4.0,56.0,1645192883.0,P16,D08,1,1,1
2136,-29.0,-4.0,56.0,1645192883.03125,P16,D08,1,1,1
2137,-29.0,-4.0,56.0,1645192883.0625,P16,D08,1,1,1
2138,-29.0,-5.0,56.0,1645192883.09375,P16,D08,1,1,1
2139,-29.0,-5.0,56.0,1645192883.125,P16,D08,1,1,1
2140,-29.0,-4.0,56.0,1645192883.15625,P16,D08,1,1,1
2141,-29.0,-4.0,56.0,1645192883.1875,P16,D08,1,1,1
2142,-29.0,-5.0,56.0,1645192883.21875,P16,D08,1,1,1
2143,-29.0,-4.0,56.0,1645192883.25,P16,D08,1,1,1
2144,-29.0,-5.0,56.0,1645192883.28125,P16,D08,1,1,1
2145,-29.0,-5.0,56.0,1645192883.3125,P16,D08,1,1,1
2146,-29.0,-5.0,56.0,1645192883.34375,P16,D08,1,1,1
2147,-29.0,-5.0,56.0,1645192883.375,P16,D08,1,1,1
2148,-29.0,-5.0,56.0,1645192883.40625,P16,D08,1,1,1
2149,-29.0,-5.0,56.0,1645192883.4375,P16,D08,1,1,1
2150,-29.0,-5.0,56.0,1645192883.46875,P16,D08,1,1,1
2151,-29.0,-5.0,56.0,1645192883.5,P16,D08,1,1,1
2152,-29.0,-4.0,56.0,1645192883.53125,P16,D08,1,1,1
2153,-29.0,-4.0,56.0,1645192883.5625,P16,D08,1,1,1
2154,-29.0,-5.0,56.0,1645192883.59375,P16,D08,1,1,1
2155,-29.0,-4.0,56.0,1645192883.625,P16,D08,1,1,1
2156,-29.0,-5.0,56.0,1645192883.65625,P16,D08,1,1,1
2157,-29.0,-5.0,56.0,1645192883.6875,P16,D08,1,1,1
2158,-29.0,-5.0,56.0,1645192883.71875,P16,D08,1,1,1
2159,-29.0,-5.0,56.0,1645192883.75,P16,D08,1,1,1
2160,-29.0,-5.0,56.0,1645192883.78125,P16,D08,1,1,1
2161,-29.0,-5.0,56.0,1645192883.8125,P16,D08,1,1,1
2162,-29.0,-5.0,56.0,1645192883.84375,P16,D08,1,1,1
2163,-29.0,-5.0,55.0,1645192883.875,P16,D08,1,1,1
2164,-29.0,-5.0,56.0,1645192883.90625,P16,D08,1,1,1
2165,-29.0,-5.0,56.0,1645192883.9375,P16,D08,1,1,1
2166,-29.0,-5.0,56.0,1645192883.96875,P16,D08,1,1,1
2167,-29.0,-5.0,56.0,1645192884.0,P16,D08,1,1,1
2168,-29.0,-5.0,56.0,1645192884.03125,P16,D08,1,1,1
2169,-29.0,-5.0,56.0,1645192884.0625,P16,D08,1,1,1
2170,-29.0,-5.0,56.0,1645192884.09375,P16,D08,1,1,1
2171,-29.0,-5.0,56.0,1645192884.125,P16,D08,1,1,1
2172,-29.0,-5.0,56.0,1645192884.15625,P16,D08,1,1,1
2173,-29.0,-5.0,56.0,1645192884.1875,P16,D08,1,1,1
2174,-29.0,-5.0,56.0,1645192884.21875,P16,D08,1,1,1
2175,-29.0,-5.0,56.0,1645192884.25,P16,D08,1,1,1
2176,-29.0,-5.0,56.0,1645192884.28125,P16,D08,1,1,1
2177,-29.0,-5.0,56.0,1645192884.3125,P16,D08,1,1,1
2178,-29.0,-5.0,56.0,1645192884.34375,P16,D08,1,1,1
2179,-29.0,-5.0,56.0,1645192884.375,P16,D08,1,1,1
2180,-29.0,-5.0,56.0,1645192884.40625,P16,D08,1,1,1
2181,-29.0,-5.0,56.0,1645192884.4375,P16,D08,1,1,1
2182,-29.0,-5.0,56.0,1645192884.46875,P16,D08,1,1,1
2183,-29.0,-4.0,56.0,1645192884.5,P16,D08,1,1,1
2184,-29.0,-5.0,56.0,1645192884.53125,P16,D08,1,1,1
2185,-29.0,-5.0,56.0,1645192884.5625,P16,D08,1,1,1
2186,-29.0,-5.0,56.0,1645192884.59375,P16,D08,1,1,1
2187,-29.0,-5.0,56.0,1645192884.625,P16,D08,1,1,1
2188,-29.0,-5.0,56.0,1645192884.65625,P16,D08,1,1,1
2189,-29.0,-5.0,56.0,1645192884.6875,P16,D08,1,1,1
2190,-29.0,-5.0,56.0,1645192884.71875,P16,D08,1,1,1
2191,-29.0,-4.0,56.0,1645192884.75,P16,D08,1,1,1
2192,-29.0,-5.0,56.0,1645192884.78125,P16,D08,1,1,1
2193,-29.0,-5.0,56.0,1645192884.8125,P16,D08,1,1,1
2194,-29.0,-5.0,56.0,1645192884.84375,P16,D08,1,1,1
2195,-29.0,-5.0,56.0,1645192884.875,P16,D08,1,1,1
2196,-29.0,-5.0,56.0,1645192884.90625,P16,D08,1,1,1
2197,-29.0,-5.0,56.0,1645192884.9375,P16,D08,1,1,1
2198,-29.0,-4.0,56.0,1645192884.96875,P16,D08,1,1,1
2199,-29.0,-5.0,56.0,1645192885.0,P16,D08,1,1,1
2200,-29.0,-5.0,56.0,1645192885.03125,P16,D08,1,1,1
2201,-29.0,-4.0,56.0,1645192885.0625,P16,D08,1,1,1
2202,-29.0,-4.0,56.0,1645192885.09375,P16,D08,1,1,1
2203,-29.0,-5.0,56.0,1645192885.125,P16,D08,1,1,1
2204,-29.0,-4.0,56.0,1645192885.15625,P16,D08,1,1,1
2205,-29.0,-5.0,56.0,1645192885.1875,P16,D08,1,1,1
2206,-29.0,-5.0,56.0,1645192885.21875,P16,D08,1,1,1
2207,-29.0,-4.0,56.0,1645192885.25,P16,D08,1,1,1
2208,-29.0,-5.0,56.0,1645192885.28125,P16,D08,1,1,1
2209,-29.0,-5.0,56.0,1645192885.3125,P16,D08,1,1,1
2210,-29.0,-5.0,56.0,1645192885.34375,P16,D08,1,1,1
2211,-29.0,-5.0,56.0,1645192885.375,P16,D08,1,1,1
2212,-29.0,-5.0,56.0,1645192885.40625,P16,D08,1,1,1
2213,-29.0,-4.0,56.0,1645192885.4375,P16,D08,1,1,1
2214,-29.0,-4.0,56.0,1645192885.46875,P16,D08,1,1,1
2215,-29.0,-5.0,56.0,1645192885.5,P16,D08,1,1,1
2216,-29.0,-5.0,56.0,1645192885.53125,P16,D08,1,1,1
2217,-29.0,-5.0,56.0,1645192885.5625,P16,D08,1,1,1
2218,-29.0,-5.0,56.0,1645192885.59375,P16,D08,1,1,1
2219,-29.0,-5.0,56.0,1645192885.625,P16,D08,1,1,1
2220,-29.0,-4.0,56.0,1645192885.65625,P16,D08,1,1,1
2221,-29.0,-4.0,56.0,1645192885.6875,P16,D08,1,1,1
2222,-29.0,-5.0,56.0,1645192885.71875,P16,D08,1,1,1
2223,-29.0,-5.0,56.0,1645192885.75,P16,D08,1,1,1
2224,-29.0,-5.0,56.0,1645192885.78125,P16,D08,1,1,1
2225,-29.0,-4.0,56.0,1645192885.8125,P16,D08,1,1,1
2226,-29.0,-5.0,56.0,1645192885.84375,P16,D08,1,1,1
2227,-29.0,-5.0,56.0,1645192885.875,P16,D08,1,1,1
2228,-29.0,-5.0,56.0,1645192885.90625,P16,D08,1,1,1
2229,-29.0,-5.0,56.0,1645192885.9375,P16,D08,1,1,1
2230,-29.0,-5.0,56.0,1645192885.96875,P16,D08,1,1,1
2231,-29.0,-5.0,56.0,1645192886.0,P16,D08,1,1,1
2232,-29.0,-4.0,56.0,1645192886.03125,P16,D08,1,1,1
2233,-29.0,-5.0,56.0,1645192886.0625,P16,D08,1,1,1
2234,-29.0,-5.0,56.0,1645192886.09375,P16,D08,1,1,1
2235,-29.0,-5.0,56.0,1645192886.125,P16,D08,1,1,1
2236,-29.0,-5.0,56.0,1645192886.15625,P16,D08,1,1,1
2237,-29.0,-5.0,56.0,1645192886.1875,P16,D08,1,1,1
2238,-29.0,-4.0,56.0,1645192886.21875,P16,D08,1,1,1
2239,-29.0,-5.0,56.0,1645192886.25,P16,D08,1,1,1
2240,-29.0,-5.0,56.0,1645192886.28125,P16,D08,1,1,1
2241,-29.0,-5.0,55.0,1645192886.3125,P16,D08,1,1,1
2242,-29.0,-5.0,56.0,1645192886.34375,P16,D08,1,1,1
2243,-29.0,-5.0,56.0,1645192886.375,P16,D08,1,1,1
2244,-29.0,-5.0,56.0,1645192886.40625,P16,D08,1,1,1
2245,-29.0,-5.0,56.0,1645192886.4375,P16,D08,1,1,1
2246,-29.0,-5.0,56.0,1645192886.46875,P16,D08,1,1,1
2247,-29.0,-5.0,56.0,1645192886.5,P16,D08,1,1,1
2248,-29.0,-5.0,56.0,1645192886.53125,P16,D08,1,1,1
2249,-30.0,-5.0,56.0,1645192886.5625,P16,D08,1,1,1
2250,-29.0,-5.0,56.0,1645192886.59375,P16,D08,1,1,1
2251,-29.0,-5.0,56.0,1645192886.625,P16,D08,1,1,1
2252,-29.0,-5.0,56.0,1645192886.65625,P16,D08,1,1,1
2253,-29.0,-5.0,55.0,1645192886.6875,P16,D08,1,1,1
2254,-29.0,-5.0,55.0,1645192886.71875,P16,D08,1,1,1
2255,-29.0,-5.0,56.0,1645192886.75,P16,D08,1,1,1
2256,-29.0,-5.0,56.0,1645192886.78125,P16,D08,1,1,1
2257,-29.0,-5.0,56.0,1645192886.8125,P16,D08,1,1,1
2258,-29.0,-5.0,55.0,1645192886.84375,P16,D08,1,1,1
2259,-29.0,-5.0,56.0,1645192886.875,P16,D08,1,1,1
2260,-29.0,-5.0,56.0,1645192886.90625,P16,D08,1,1,1
2261,-29.0,-5.0,56.0,1645192886.9375,P16,D08,1,1,1
2262,-29.0,-5.0,55.0,1645192886.96875,P16,D08,1,1,1
2263,-30.0,-5.0,56.0,1645192887.0,P16,D08,1,1,1
2264,-29.0,-5.0,56.0,1645192887.03125,P16,D08,1,1,1
2265,-29.0,-5.0,56.0,1645192887.0625,P16,D08,1,1,1
2266,-29.0,-5.0,56.0,1645192887.09375,P16,D08,1,1,1
2267,-29.0,-5.0,56.0,1645192887.125,P16,D08,1,1,1
2268,-29.0,-5.0,56.0,1645192887.15625,P16,D08,1,1,1
2269,-29.0,-5.0,56.0,1645192887.1875,P16,D08,1,1,1
2270,-29.0,-5.0,56.0,1645192887.21875,P16,D08,1,1,1
2271,-29.0,-5.0,56.0,1645192887.25,P16,D08,1,1,1
2272,-29.0,-5.0,56.0,1645192887.28125,P16,D08,1,1,1
2273,-29.0,-5.0,56.0,1645192887.3125,P16,D08,1,1,1
2274,-29.0,-5.0,56.0,1645192887.34375,P16,D08,1,1,1
2275,-29.0,-5.0,56.0,1645192887.375,P16,D08,1,1,1
2276,-29.0,-5.0,56.0,1645192887.40625,P16,D08,1,1,1
2277,-29.0,-5.0,56.0,1645192887.4375,P16,D08,1,1,1
2278,-29.0,-5.0,56.0,1645192887.46875,P16,D08,1,1,1
2279,-29.0,-5.0,56.0,1645192887.5,P16,D08,1,1,1
2280,-29.0,-5.0,56.0,1645192887.53125,P16,D08,1,1,1
2281,-29.0,-5.0,56.0,1645192887.5625,P16,D08,1,1,1
2282,-29.0,-5.0,56.0,1645192887.59375,P16,D08,1,1,1
2283,-29.0,-5.0,56.0,1645192887.625,P16,D08,1,1,1
2284,-29.0,-5.0,56.0,1645192887.65625,P16,D08,1,1,1
2285,-29.0,-4.0,56.0,1645192887.6875,P16,D08,1,1,1
2286,-29.0,-4.0,56.0,1645192887.71875,P16,D08,1,1,1
2287,-29.0,-4.0,56.0,1645192887.75,P16,D08,1,1,1
2288,-29.0,-5.0,56.0,1645192887.78125,P16,D08,1,1,1
2289,-29.0,-5.0,56.0,1645192887.8125,P16,D08,1,1,1
2290,-29.0,-5.0,56.0,1645192887.84375,P16,D08,1,1,1
2291,-29.0,-4.0,56.0,1645192887.875,P16,D08,1,1,1
2292,-29.0,-5.0,56.0,1645192887.90625,P16,D08,1,1,1
2293,-29.0,-4.0,56.0,1645192887.9375,P16,D08,1,1,1
2294,-29.0,-4.0,56.0,1645192887.96875,P16,D08,1,1,1
2295,-29.0,-4.0,56.0,1645192888.0,P16,D08,1,1,1
2296,-29.0,-4.0,56.0,1645192888.03125,P16,D08,1,1,1
2297,-29.0,-4.0,56.0,1645192888.0625,P16,D08,1,1,1
2298,-29.0,-4.0,56.0,1645192888.09375,P16,D08,1,1,1
2299,-29.0,-4.0,56.0,1645192888.125,P16,D08,1,1,1
2300,-29.0,-4.0,56.0,1645192888.15625,P16,D08,1,1,1
2301,-29.0,-4.0,56.0,1645192888.1875,P16,D08,1,1,1
2302,-29.0,-4.0,56.0,1645192888.21875,P16,D08,1,1,1
2303,-28.0,-4.0,56.0,1645192888.25,P16,D08,1,1,1
2304,-29.0,-4.0,56.0,1645192888.28125,P16,D08,1,1,1
2305,-29.0,-4.0,56.0,1645192888.3125,P16,D08,1,1,1
2306,-29.0,-4.0,56.0,1645192888.34375,P16,D08,1,1,1
2307,-29.0,-4.0,56.0,1645192888.375,P16,D08,1,1,1
2308,-28.0,-4.0,56.0,1645192888.40625,P16,D08,1,1,1
2309,-28.0,-4.0,56.0,1645192888.4375,P16,D08,1,1,1
2310,-29.0,-4.0,56.0,1645192888.46875,P16,D08,1,1,1
2311,-29.0,-4.0,56.0,1645192888.5,P16,D08,1,1,1
2312,-29.0,-4.0,56.0,1645192888.53125,P16,D08,1,1,1
2313,-29.0,-4.0,56.0,1645192888.5625,P16,D08,1,1,1
2314,-28.0,-4.0,56.0,1645192888.59375,P16,D08,1,1,1
2315,-29.0,-4.0,56.0,1645192888.625,P16,D08,1,1,1
2316,-29.0,-4.0,56.0,1645192888.65625,P16,D08,1,1,1
2317,-29.0,-4.0,56.0,1645192888.6875,P16,D08,1,1,1
2318,-29.0,-4.0,56.0,1645192888.71875,P16,D08,1,1,1
2319,-29.0,-4.0,56.0,1645192888.75,P16,D08,1,1,1
2320,-29.0,-4.0,56.0,1645192888.78125,P16,D08,1,1,1
2321,-29.0,-4.0,56.0,1645192888.8125,P16,D08,1,1,1
2322,-29.0,-4.0,56.0,1645192888.84375,P16,D08,1,1,1
2323,-29.0,-4.0,56.0,1645192888.875,P16,D08,1,1,1
2324,-29.0,-4.0,56.0,1645192888.90625,P16,D08,1,1,1
2325,-29.0,-5.0,56.0,1645192888.9375,P16,D08,1,1,1
2326,-29.0,-5.0,56.0,1645192888.96875,P16,D08,1,1,1
2327,-29.0,-4.0,56.0,1645192889.0,P16,D08,1,1,1
2328,-29.0,-4.0,56.0,1645192889.03125,P16,D08,1,1,1
2329,-29.0,-4.0,56.0,1645192889.0625,P16,D08,1,1,1
2330,-29.0,-5.0,56.0,1645192889.09375,P16,D08,1,1,1
2331,-29.0,-4.0,56.0,1645192889.125,P16,D08,1,1,1
2332,-28.0,-5.0,56.0,1645192889.15625,P16,D08,1,1,1
2333,-29.0,-4.0,56.0,1645192889.1875,P16,D08,1,1,1
2334,-29.0,-5.0,56.0,1645192889.21875,P16,D08,1,1,1
2335,-29.0,-5.0,56.0,1645192889.25,P16,D08,1,1,1
2336,-29.0,-4.0,56.0,1645192889.28125,P16,D08,1,1,1
2337,-29.0,-4.0,56.0,1645192889.3125,P16,D08,1,1,1
2338,-29.0,-4.0,56.0,1645192889.34375,P16,D08,1,1,1
2339,-29.0,-5.0,56.0,1645192889.375,P16,D08,1,1,1
2340,-29.0,-5.0,56.0,1645192889.40625,P16,D08,1,1,1
2341,-29.0,-4.0,56.0,1645192889.4375,P16,D08,1,1,1
2342,-29.0,-4.0,56.0,1645192889.46875,P16,D08,1,1,1
2343,-29.0,-5.0,56.0,1645192889.5,P16,D08,1,1,1
2344,-29.0,-5.0,56.0,1645192889.53125,P16,D08,1,1,1
2345,-29.0,-5.0,56.0,1645192889.5625,P16,D08,1,1,1
2346,-29.0,-5.0,56.0,1645192889.59375,P16,D08,1,1,1
2347,-29.0,-4.0,56.0,1645192889.625,P16,D08,1,1,1
2348,-29.0,-4.0,56.0,1645192889.65625,P16,D08,1,1,1
2349,-29.0,-5.0,56.0,1645192889.6875,P16,D08,1,1,1
2350,-29.0,-5.0,56.0,1645192889.71875,P16,D08,1,1,1
2351,-29.0,-5.0,56.0,1645192889.75,P16,D08,1,1,1
2352,-29.0,-4.0,56.0,1645192889.78125,P16,D08,1,1,1
2353,-29.0,-5.0,56.0,1645192889.8125,P16,D08,1,1,1
2354,-29.0,-5.0,56.0,1645192889.84375,P16,D08,1,1,1
2355,-29.0,-5.0,56.0,1645192889.875,P16,D08,1,1,1
2356,-29.0,-5.0,56.0,1645192889.90625,P16,D08,1,1,1
2357,-29.0,-5.0,56.0,1645192889.9375,P16,D08,1,1,1
2358,-29.0,-5.0,56.0,1645192889.96875,P16,D08,1,1,1
2359,-29.0,-4.0,56.0,1645192890.0,P16,D08,1,1,1
2360,-29.0,-5.0,56.0,1645192890.03125,P16,D08,1,1,1
2361,-29.0,-5.0,56.0,1645192890.0625,P16,D08,1,1,1
2362,-29.0,-5.0,56.0,1645192890.09375,P16,D08,1,1,1
2363,-29.0,-5.0,56.0,1645192890.125,P16,D08,1,1,1
2364,-29.0,-5.0,56.0,1645192890.15625,P16,D08,1,1,1
2365,-29.0,-4.0,56.0,1645192890.1875,P16,D08,1,1,1
2366,-29.0,-5.0,56.0,1645192890.21875,P16,D08,1,1,1
2367,-29.0,-5.0,56.0,1645192890.25,P16,D08,1,1,1
2368,-29.0,-5.0,56.0,1645192890.28125,P16,D08,1,1,1
2369,-29.0,-5.0,56.0,1645192890.3125,P16,D08,1,1,1
