,acc_x,acc_y,acc_z,timestamp,participant,document,val,arou,eng
0,-36.0,-12.0,51.0,1645193555.75,P16,D12,1,1,1
1,-36.0,-12.0,51.0,1645193555.78125,P16,D12,1,1,1
2,-36.0,-12.0,51.0,1645193555.8125,P16,D12,1,1,1
3,-36.0,-12.0,51.0,1645193555.84375,P16,D12,1,1,1
4,-36.0,-12.0,51.0,1645193555.875,P16,D12,1,1,1
5,-36.0,-12.0,51.0,1645193555.90625,P16,D12,1,1,1
6,-36.0,-12.0,51.0,1645193555.9375,P16,D12,1,1,1
7,-36.0,-12.0,51.0,1645193555.96875,P16,D12,1,1,1
8,-36.0,-12.0,51.0,1645193556.0,P16,D12,1,1,1
9,-36.0,-12.0,51.0,1645193556.03125,P16,D12,1,1,1
10,-36.0,-12.0,51.0,1645193556.0625,P16,D12,1,1,1
11,-36.0,-12.0,51.0,1645193556.09375,P16,D12,1,1,1
12,-36.0,-12.0,51.0,1645193556.125,P16,D12,1,1,1
13,-36.0,-12.0,51.0,1645193556.15625,P16,D12,1,1,1
14,-36.0,-12.0,51.0,1645193556.1875,P16,D12,1,1,1
15,-36.0,-12.0,51.0,1645193556.21875,P16,D12,1,1,1
16,-36.0,-12.0,51.0,1645193556.25,P16,D12,1,1,1
17,-36.0,-12.0,51.0,1645193556.28125,P16,D12,1,1,1
18,-36.0,-12.0,51.0,1645193556.3125,P16,D12,1,1,1
19,-36.0,-12.0,51.0,1645193556.34375,P16,D12,1,1,1
20,-36.0,-12.0,51.0,1645193556.375,P16,D12,1,1,1
21,-36.0,-12.0,51.0,1645193556.40625,P16,D12,1,1,1
22,-36.0,-12.0,51.0,1645193556.4375,P16,D12,1,1,1
23,-36.0,-12.0,51.0,1645193556.46875,P16,D12,1,1,1
24,-36.0,-12.0,51.0,1645193556.5,P16,D12,1,1,1
25,-36.0,-12.0,51.0,1645193556.53125,P16,D12,1,1,1
26,-36.0,-12.0,51.0,1645193556.5625,P16,D12,1,1,1
27,-36.0,-12.0,51.0,1645193556.59375,P16,D12,1,1,1
28,-36.0,-12.0,51.0,1645193556.625,P16,D12,1,1,1
29,-36.0,-12.0,51.0,1645193556.65625,P16,D12,1,1,1
30,-36.0,-12.0,51.0,1645193556.6875,P16,D12,1,1,1
31,-36.0,-12.0,51.0,1645193556.71875,P16,D12,1,1,1
32,-36.0,-12.0,51.0,1645193556.75,P16,D12,1,1,1
33,-36.0,-12.0,51.0,1645193556.78125,P16,D12,1,1,1
34,-36.0,-12.0,51.0,1645193556.8125,P16,D12,1,1,1
35,-36.0,-12.0,51.0,1645193556.84375,P16,D12,1,1,1
36,-36.0,-12.0,51.0,1645193556.875,P16,D12,1,1,1
37,-36.0,-12.0,51.0,1645193556.90625,P16,D12,1,1,1
38,-36.0,-12.0,51.0,1645193556.9375,P16,D12,1,1,1
39,-36.0,-12.0,51.0,1645193556.96875,P16,D12,1,1,1
40,-36.0,-12.0,51.0,1645193557.0,P16,D12,1,1,1
41,-36.0,-12.0,51.0,1645193557.03125,P16,D12,1,1,1
42,-36.0,-12.0,51.0,1645193557.0625,P16,D12,1,1,1
43,-36.0,-12.0,51.0,1645193557.09375,P16,D12,1,1,1
44,-36.0,-12.0,51.0,1645193557.125,P16,D12,1,1,1
45,-36.0,-12.0,51.0,1645193557.15625,P16,D12,1,1,1
46,-36.0,-12.0,51.0,1645193557.1875,P16,D12,1,1,1
47,-36.0,-12.0,51.0,1645193557.21875,P16,D12,1,1,1
48,-36.0,-12.0,51.0,1645193557.25,P16,D12,1,1,1
49,-36.0,-12.0,51.0,1645193557.28125,P16,D12,1,1,1
50,-36.0,-12.0,51.0,1645193557.3125,P16,D12,1,1,1
51,-36.0,-12.0,51.0,1645193557.34375,P16,D12,1,1,1
52,-36.0,-12.0,51.0,1645193557.375,P16,D12,1,1,1
53,-36.0,-12.0,51.0,1645193557.40625,P16,D12,1,1,1
54,-36.0,-12.0,51.0,1645193557.4375,P16,D12,1,1,1
55,-36.0,-12.0,51.0,1645193557.46875,P16,D12,1,1,1
56,-36.0,-12.0,51.0,1645193557.5,P16,D12,1,1,1
57,-36.0,-12.0,51.0,1645193557.53125,P16,D12,1,1,1
58,-36.0,-12.0,51.0,1645193557.5625,P16,D12,1,1,1
59,-36.0,-12.0,51.0,1645193557.59375,P16,D12,1,1,1
60,-36.0,-12.0,51.0,1645193557.625,P16,D12,1,1,1
61,-36.0,-12.0,51.0,1645193557.65625,P16,D12,1,1,1
62,-36.0,-12.0,51.0,1645193557.6875,P16,D12,1,1,1
63,-36.0,-12.0,51.0,1645193557.71875,P16,D12,1,1,1
64,-36.0,-12.0,51.0,1645193557.75,P16,D12,1,1,1
65,-36.0,-12.0,51.0,1645193557.78125,P16,D12,1,1,1
66,-36.0,-12.0,51.0,1645193557.8125,P16,D12,1,1,1
67,-36.0,-12.0,51.0,1645193557.84375,P16,D12,1,1,1
68,-36.0,-12.0,51.0,1645193557.875,P16,D12,1,1,1
69,-36.0,-12.0,51.0,1645193557.90625,P16,D12,1,1,1
70,-36.0,-12.0,51.0,1645193557.9375,P16,D12,1,1,1
71,-36.0,-12.0,51.0,1645193557.96875,P16,D12,1,1,1
72,-36.0,-12.0,51.0,1645193558.0,P16,D12,1,1,1
73,-36.0,-13.0,51.0,1645193558.03125,P16,D12,1,1,1
74,-36.0,-12.0,51.0,1645193558.0625,P16,D12,1,1,1
75,-36.0,-12.0,51.0,1645193558.09375,P16,D12,1,1,1
76,-36.0,-12.0,51.0,1645193558.125,P16,D12,1,1,1
77,-36.0,-12.0,51.0,1645193558.15625,P16,D12,1,1,1
78,-37.0,-12.0,51.0,1645193558.1875,P16,D12,1,1,1
79,-36.0,-12.0,51.0,1645193558.21875,P16,D12,1,1,1
80,-36.0,-12.0,51.0,1645193558.25,P16,D12,1,1,1
81,-36.0,-12.0,51.0,1645193558.28125,P16,D12,1,1,1
82,-36.0,-12.0,51.0,1645193558.3125,P16,D12,1,1,1
83,-36.0,-12.0,51.0,1645193558.34375,P16,D12,1,1,1
84,-36.0,-12.0,51.0,1645193558.375,P16,D12,1,1,1
85,-36.0,-12.0,51.0,1645193558.40625,P16,D12,1,1,1
86,-36.0,-12.0,51.0,1645193558.4375,P16,D12,1,1,1
87,-36.0,-12.0,51.0,1645193558.46875,P16,D12,1,1,1
88,-36.0,-12.0,51.0,1645193558.5,P16,D12,1,1,1
89,-36.0,-12.0,51.0,1645193558.53125,P16,D12,1,1,1
90,-36.0,-11.0,51.0,1645193558.5625,P16,D12,1,1,1
91,-36.0,-12.0,51.0,1645193558.59375,P16,D12,1,1,1
92,-36.0,-12.0,51.0,1645193558.625,P16,D12,1,1,1
93,-36.0,-11.0,51.0,1645193558.65625,P16,D12,1,1,1
94,-36.0,-11.0,51.0,1645193558.6875,P16,D12,1,1,1
95,-36.0,-11.0,51.0,1645193558.71875,P16,D12,1,1,1
96,-36.0,-11.0,51.0,1645193558.75,P16,D12,1,1,1
97,-36.0,-11.0,51.0,1645193558.78125,P16,D12,1,1,1
98,-36.0,-11.0,51.0,1645193558.8125,P16,D12,1,1,1
99,-36.0,-11.0,51.0,1645193558.84375,P16,D12,1,1,1
100,-36.0,-11.0,51.0,1645193558.875,P16,D12,1,1,1
101,-36.0,-12.0,51.0,1645193558.90625,P16,D12,1,1,1
102,-36.0,-11.0,51.0,1645193558.9375,P16,D12,1,1,1
103,-36.0,-11.0,51.0,1645193558.96875,P16,D12,1,1,1
104,-36.0,-11.0,51.0,1645193559.0,P16,D12,1,1,1
105,-36.0,-11.0,51.0,1645193559.03125,P16,D12,1,1,1
106,-36.0,-12.0,51.0,1645193559.0625,P16,D12,1,1,1
107,-36.0,-12.0,51.0,1645193559.09375,P16,D12,1,1,1
108,-36.0,-11.0,51.0,1645193559.125,P16,D12,1,1,1
109,-36.0,-11.0,51.0,1645193559.15625,P16,D12,1,1,1
110,-36.0,-11.0,51.0,1645193559.1875,P16,D12,1,1,1
111,-36.0,-11.0,51.0,1645193559.21875,P16,D12,1,1,1
112,-36.0,-11.0,51.0,1645193559.25,P16,D12,1,1,1
113,-36.0,-11.0,51.0,1645193559.28125,P16,D12,1,1,1
114,-36.0,-11.0,51.0,1645193559.3125,P16,D12,1,1,1
115,-36.0,-11.0,51.0,1645193559.34375,P16,D12,1,1,1
116,-36.0,-12.0,51.0,1645193559.375,P16,D12,1,1,1
117,-36.0,-12.0,51.0,1645193559.40625,P16,D12,1,1,1
118,-37.0,-12.0,51.0,1645193559.4375,P16,D12,1,1,1
119,-37.0,-12.0,51.0,1645193559.46875,P16,D12,1,1,1
120,-37.0,-13.0,51.0,1645193559.5,P16,D12,1,1,1
121,-36.0,-12.0,50.0,1645193559.53125,P16,D12,1,1,1
122,-36.0,-13.0,51.0,1645193559.5625,P16,D12,1,1,1
123,-37.0,-13.0,51.0,1645193559.59375,P16,D12,1,1,1
124,-36.0,-13.0,51.0,1645193559.625,P16,D12,1,1,1
125,-36.0,-14.0,51.0,1645193559.65625,P16,D12,1,1,1
126,-37.0,-13.0,51.0,1645193559.6875,P16,D12,1,1,1
127,-37.0,-13.0,51.0,1645193559.71875,P16,D12,1,1,1
128,-37.0,-13.0,50.0,1645193559.75,P16,D12,1,1,1
129,-36.0,-11.0,50.0,1645193559.78125,P16,D12,1,1,1
130,-37.0,-11.0,50.0,1645193559.8125,P16,D12,1,1,1
131,-36.0,-10.0,50.0,1645193559.84375,P16,D12,1,1,1
132,-36.0,-11.0,50.0,1645193559.875,P16,D12,1,1,1
133,-37.0,-12.0,51.0,1645193559.90625,P16,D12,1,1,1
134,-37.0,-14.0,52.0,1645193559.9375,P16,D12,1,1,1
135,-35.0,-13.0,52.0,1645193559.96875,P16,D12,1,1,1
136,-34.0,-10.0,53.0,1645193560.0,P16,D12,1,1,1
137,-36.0,-10.0,52.0,1645193560.03125,P16,D12,1,1,1
138,-39.0,-14.0,53.0,1645193560.0625,P16,D12,1,1,1
139,-38.0,-12.0,54.0,1645193560.09375,P16,D12,1,1,1
140,-33.0,-10.0,54.0,1645193560.125,P16,D12,1,1,1
141,-31.0,-10.0,54.0,1645193560.15625,P16,D12,1,1,1
142,-32.0,-10.0,55.0,1645193560.1875,P16,D12,1,1,1
143,-33.0,-12.0,54.0,1645193560.21875,P16,D12,1,1,1
144,-32.0,-11.0,55.0,1645193560.25,P16,D12,1,1,1
145,-31.0,-13.0,54.0,1645193560.28125,P16,D12,1,1,1
146,-32.0,-12.0,54.0,1645193560.3125,P16,D12,1,1,1
147,-34.0,-12.0,55.0,1645193560.34375,P16,D12,1,1,1
148,-30.0,-12.0,54.0,1645193560.375,P16,D12,1,1,1
149,-22.0,-13.0,49.0,1645193560.40625,P16,D12,1,1,1
150,-24.0,-10.0,49.0,1645193560.4375,P16,D12,1,1,1
151,-24.0,-5.0,47.0,1645193560.46875,P16,D12,1,1,1
152,-22.0,-3.0,47.0,1645193560.5,P16,D12,1,1,1
153,-23.0,1.0,47.0,1645193560.53125,P16,D12,1,1,1
154,-21.0,1.0,49.0,1645193560.5625,P16,D12,1,1,1
155,-51.0,-11.0,69.0,1645193560.59375,P16,D12,1,1,1
156,-9.0,-15.0,61.0,1645193560.625,P16,D12,1,1,1
157,-35.0,-14.0,56.0,1645193560.65625,P16,D12,1,1,1
158,-29.0,-8.0,56.0,1645193560.6875,P16,D12,1,1,1
159,-32.0,-6.0,55.0,1645193560.71875,P16,D12,1,1,1
160,-31.0,-6.0,54.0,1645193560.75,P16,D12,1,1,1
161,-30.0,-7.0,55.0,1645193560.78125,P16,D12,1,1,1
162,-32.0,-7.0,54.0,1645193560.8125,P16,D12,1,1,1
163,-34.0,-8.0,53.0,1645193560.84375,P16,D12,1,1,1
164,-31.0,-8.0,54.0,1645193560.875,P16,D12,1,1,1
165,-32.0,-8.0,54.0,1645193560.90625,P16,D12,1,1,1
166,-34.0,-9.0,53.0,1645193560.9375,P16,D12,1,1,1
167,-35.0,-10.0,52.0,1645193560.96875,P16,D12,1,1,1
168,-35.0,-10.0,53.0,1645193561.0,P16,D12,1,1,1
169,-36.0,-10.0,52.0,1645193561.03125,P16,D12,1,1,1
170,-34.0,-9.0,53.0,1645193561.0625,P16,D12,1,1,1
171,-34.0,-9.0,53.0,1645193561.09375,P16,D12,1,1,1
172,-35.0,-9.0,51.0,1645193561.125,P16,D12,1,1,1
173,-35.0,-10.0,52.0,1645193561.15625,P16,D12,1,1,1
174,-35.0,-10.0,52.0,1645193561.1875,P16,D12,1,1,1
175,-36.0,-11.0,51.0,1645193561.21875,P16,D12,1,1,1
176,-35.0,-11.0,52.0,1645193561.25,P16,D12,1,1,1
177,-35.0,-11.0,52.0,1645193561.28125,P16,D12,1,1,1
178,-35.0,-10.0,52.0,1645193561.3125,P16,D12,1,1,1
179,-35.0,-11.0,52.0,1645193561.34375,P16,D12,1,1,1
180,-35.0,-11.0,52.0,1645193561.375,P16,D12,1,1,1
181,-35.0,-11.0,52.0,1645193561.40625,P16,D12,1,1,1
182,-36.0,-11.0,52.0,1645193561.4375,P16,D12,1,1,1
183,-35.0,-11.0,52.0,1645193561.46875,P16,D12,1,1,1
184,-35.0,-9.0,52.0,1645193561.5,P16,D12,1,1,1
185,-35.0,-9.0,52.0,1645193561.53125,P16,D12,1,1,1
186,-34.0,-9.0,52.0,1645193561.5625,P16,D12,1,1,1
187,-34.0,-10.0,52.0,1645193561.59375,P16,D12,1,1,1
188,-35.0,-9.0,52.0,1645193561.625,P16,D12,1,1,1
189,-35.0,-9.0,52.0,1645193561.65625,P16,D12,1,1,1
190,-34.0,-9.0,52.0,1645193561.6875,P16,D12,1,1,1
191,-34.0,-9.0,52.0,1645193561.71875,P16,D12,1,1,1
192,-34.0,-9.0,52.0,1645193561.75,P16,D12,1,1,1
193,-35.0,-9.0,52.0,1645193561.78125,P16,D12,1,1,1
194,-35.0,-9.0,52.0,1645193561.8125,P16,D12,1,1,1
195,-35.0,-10.0,52.0,1645193561.84375,P16,D12,1,1,1
196,-35.0,-10.0,52.0,1645193561.875,P16,D12,1,1,1
197,-35.0,-10.0,52.0,1645193561.90625,P16,D12,1,1,1
198,-35.0,-10.0,52.0,1645193561.9375,P16,D12,1,1,1
199,-35.0,-11.0,52.0,1645193561.96875,P16,D12,1,1,1
200,-35.0,-10.0,52.0,1645193562.0,P16,D12,1,1,1
201,-35.0,-10.0,52.0,1645193562.03125,P16,D12,1,1,1
202,-35.0,-10.0,52.0,1645193562.0625,P16,D12,1,1,1
203,-35.0,-10.0,52.0,1645193562.09375,P16,D12,1,1,1
204,-35.0,-11.0,52.0,1645193562.125,P16,D12,1,1,1
205,-35.0,-10.0,52.0,1645193562.15625,P16,D12,1,1,1
206,-35.0,-11.0,52.0,1645193562.1875,P16,D12,1,1,1
207,-35.0,-10.0,52.0,1645193562.21875,P16,D12,1,1,1
208,-35.0,-11.0,52.0,1645193562.25,P16,D12,1,1,1
209,-35.0,-11.0,52.0,1645193562.28125,P16,D12,1,1,1
210,-35.0,-11.0,52.0,1645193562.3125,P16,D12,1,1,1
211,-35.0,-11.0,52.0,1645193562.34375,P16,D12,1,1,1
212,-35.0,-11.0,52.0,1645193562.375,P16,D12,1,1,1
213,-35.0,-11.0,52.0,1645193562.40625,P16,D12,1,1,1
214,-35.0,-11.0,52.0,1645193562.4375,P16,D12,1,1,1
215,-35.0,-11.0,52.0,1645193562.46875,P16,D12,1,1,1
216,-35.0,-11.0,52.0,1645193562.5,P16,D12,1,1,1
217,-35.0,-11.0,52.0,1645193562.53125,P16,D12,1,1,1
218,-35.0,-10.0,52.0,1645193562.5625,P16,D12,1,1,1
219,-35.0,-11.0,52.0,1645193562.59375,P16,D12,1,1,1
220,-35.0,-11.0,52.0,1645193562.625,P16,D12,1,1,1
221,-35.0,-11.0,52.0,1645193562.65625,P16,D12,1,1,1
222,-35.0,-11.0,52.0,1645193562.6875,P16,D12,1,1,1
223,-35.0,-11.0,52.0,1645193562.71875,P16,D12,1,1,1
224,-35.0,-11.0,52.0,1645193562.75,P16,D12,1,1,1
225,-35.0,-11.0,52.0,1645193562.78125,P16,D12,1,1,1
226,-35.0,-11.0,52.0,1645193562.8125,P16,D12,1,1,1
227,-35.0,-11.0,52.0,1645193562.84375,P16,D12,1,1,1
228,-35.0,-11.0,52.0,1645193562.875,P16,D12,1,1,1
229,-35.0,-11.0,52.0,1645193562.90625,P16,D12,1,1,1
230,-35.0,-11.0,52.0,1645193562.9375,P16,D12,1,1,1
231,-35.0,-11.0,52.0,1645193562.96875,P16,D12,1,1,1
232,-35.0,-11.0,52.0,1645193563.0,P16,D12,1,1,1
233,-35.0,-11.0,52.0,1645193563.03125,P16,D12,1,1,1
234,-35.0,-11.0,52.0,1645193563.0625,P16,D12,1,1,1
235,-35.0,-11.0,52.0,1645193563.09375,P16,D12,1,1,1
236,-35.0,-11.0,52.0,1645193563.125,P16,D12,1,1,1
237,-35.0,-11.0,52.0,1645193563.15625,P16,D12,1,1,1
238,-35.0,-11.0,52.0,1645193563.1875,P16,D12,1,1,1
239,-35.0,-11.0,52.0,1645193563.21875,P16,D12,1,1,1
240,-35.0,-11.0,52.0,1645193563.25,P16,D12,1,1,1
241,-35.0,-11.0,52.0,1645193563.28125,P16,D12,1,1,1
242,-35.0,-11.0,52.0,1645193563.3125,P16,D12,1,1,1
243,-35.0,-11.0,52.0,1645193563.34375,P16,D12,1,1,1
244,-35.0,-11.0,52.0,1645193563.375,P16,D12,1,1,1
245,-35.0,-11.0,52.0,1645193563.40625,P16,D12,1,1,1
246,-35.0,-11.0,52.0,1645193563.4375,P16,D12,1,1,1
247,-35.0,-11.0,52.0,1645193563.46875,P16,D12,1,1,1
248,-35.0,-11.0,52.0,1645193563.5,P16,D12,1,1,1
249,-35.0,-11.0,52.0,1645193563.53125,P16,D12,1,1,1
250,-35.0,-11.0,52.0,1645193563.5625,P16,D12,1,1,1
251,-35.0,-11.0,52.0,1645193563.59375,P16,D12,1,1,1
252,-35.0,-11.0,52.0,1645193563.625,P16,D12,1,1,1
253,-35.0,-11.0,52.0,1645193563.65625,P16,D12,1,1,1
254,-35.0,-11.0,52.0,1645193563.6875,P16,D12,1,1,1
255,-35.0,-11.0,51.0,1645193563.71875,P16,D12,1,1,1
256,-35.0,-11.0,52.0,1645193563.75,P16,D12,1,1,1
257,-35.0,-11.0,52.0,1645193563.78125,P16,D12,1,1,1
258,-35.0,-11.0,52.0,1645193563.8125,P16,D12,1,1,1
259,-35.0,-11.0,52.0,1645193563.84375,P16,D12,1,1,1
260,-35.0,-11.0,52.0,1645193563.875,P16,D12,1,1,1
261,-35.0,-11.0,52.0,1645193563.90625,P16,D12,1,1,1
262,-35.0,-11.0,52.0,1645193563.9375,P16,D12,1,1,1
263,-35.0,-11.0,52.0,1645193563.96875,P16,D12,1,1,1
264,-35.0,-11.0,52.0,1645193564.0,P16,D12,1,1,1
265,-35.0,-11.0,52.0,1645193564.03125,P16,D12,1,1,1
266,-35.0,-11.0,52.0,1645193564.0625,P16,D12,1,1,1
267,-35.0,-11.0,52.0,1645193564.09375,P16,D12,1,1,1
268,-35.0,-11.0,52.0,1645193564.125,P16,D12,1,1,1
269,-35.0,-11.0,52.0,1645193564.15625,P16,D12,1,1,1
270,-35.0,-11.0,52.0,1645193564.1875,P16,D12,1,1,1
271,-35.0,-11.0,52.0,1645193564.21875,P16,D12,1,1,1
272,-35.0,-11.0,52.0,1645193564.25,P16,D12,1,1,1
273,-35.0,-11.0,52.0,1645193564.28125,P16,D12,1,1,1
274,-35.0,-11.0,52.0,1645193564.3125,P16,D12,1,1,1
275,-35.0,-11.0,52.0,1645193564.34375,P16,D12,1,1,1
276,-35.0,-11.0,52.0,1645193564.375,P16,D12,1,1,1
277,-35.0,-11.0,52.0,1645193564.40625,P16,D12,1,1,1
278,-35.0,-11.0,52.0,1645193564.4375,P16,D12,1,1,1
279,-35.0,-11.0,52.0,1645193564.46875,P16,D12,1,1,1
280,-35.0,-11.0,51.0,1645193564.5,P16,D12,1,1,1
281,-35.0,-11.0,52.0,1645193564.53125,P16,D12,1,1,1
282,-35.0,-11.0,52.0,1645193564.5625,P16,D12,1,1,1
283,-35.0,-11.0,52.0,1645193564.59375,P16,D12,1,1,1
284,-35.0,-11.0,51.0,1645193564.625,P16,D12,1,1,1
285,-35.0,-11.0,52.0,1645193564.65625,P16,D12,1,1,1
286,-35.0,-11.0,51.0,1645193564.6875,P16,D12,1,1,1
287,-35.0,-11.0,52.0,1645193564.71875,P16,D12,1,1,1
288,-35.0,-11.0,52.0,1645193564.75,P16,D12,1,1,1
289,-35.0,-11.0,52.0,1645193564.78125,P16,D12,1,1,1
290,-35.0,-11.0,52.0,1645193564.8125,P16,D12,1,1,1
291,-35.0,-11.0,52.0,1645193564.84375,P16,D12,1,1,1
292,-35.0,-11.0,52.0,1645193564.875,P16,D12,1,1,1
293,-35.0,-11.0,52.0,1645193564.90625,P16,D12,1,1,1
294,-35.0,-11.0,52.0,1645193564.9375,P16,D12,1,1,1
295,-35.0,-11.0,52.0,1645193564.96875,P16,D12,1,1,1
296,-35.0,-11.0,52.0,1645193565.0,P16,D12,1,1,1
297,-35.0,-11.0,52.0,1645193565.03125,P16,D12,1,1,1
298,-35.0,-11.0,52.0,1645193565.0625,P16,D12,1,1,1
299,-35.0,-11.0,52.0,1645193565.09375,P16,D12,1,1,1
300,-35.0,-11.0,51.0,1645193565.125,P16,D12,1,1,1
301,-36.0,-11.0,52.0,1645193565.15625,P16,D12,1,1,1
302,-35.0,-11.0,51.0,1645193565.1875,P16,D12,1,1,1
303,-35.0,-11.0,51.0,1645193565.21875,P16,D12,1,1,1
304,-35.0,-11.0,52.0,1645193565.25,P16,D12,1,1,1
305,-35.0,-11.0,51.0,1645193565.28125,P16,D12,1,1,1
306,-35.0,-11.0,52.0,1645193565.3125,P16,D12,1,1,1
307,-35.0,-11.0,51.0,1645193565.34375,P16,D12,1,1,1
308,-35.0,-11.0,52.0,1645193565.375,P16,D12,1,1,1
309,-36.0,-11.0,51.0,1645193565.40625,P16,D12,1,1,1
310,-35.0,-11.0,51.0,1645193565.4375,P16,D12,1,1,1
311,-35.0,-11.0,51.0,1645193565.46875,P16,D12,1,1,1
312,-36.0,-11.0,51.0,1645193565.5,P16,D12,1,1,1
313,-36.0,-11.0,51.0,1645193565.53125,P16,D12,1,1,1
314,-35.0,-11.0,52.0,1645193565.5625,P16,D12,1,1,1
315,-35.0,-11.0,52.0,1645193565.59375,P16,D12,1,1,1
316,-35.0,-11.0,52.0,1645193565.625,P16,D12,1,1,1
317,-35.0,-11.0,51.0,1645193565.65625,P16,D12,1,1,1
318,-35.0,-11.0,51.0,1645193565.6875,P16,D12,1,1,1
319,-35.0,-11.0,51.0,1645193565.71875,P16,D12,1,1,1
320,-35.0,-11.0,51.0,1645193565.75,P16,D12,1,1,1
321,-35.0,-11.0,51.0,1645193565.78125,P16,D12,1,1,1
322,-35.0,-11.0,51.0,1645193565.8125,P16,D12,1,1,1
323,-36.0,-11.0,51.0,1645193565.84375,P16,D12,1,1,1
324,-35.0,-11.0,51.0,1645193565.875,P16,D12,1,1,1
325,-35.0,-11.0,52.0,1645193565.90625,P16,D12,1,1,1
326,-36.0,-11.0,51.0,1645193565.9375,P16,D12,1,1,1
327,-35.0,-11.0,51.0,1645193565.96875,P16,D12,1,1,1
328,-35.0,-11.0,51.0,1645193566.0,P16,D12,1,1,1
329,-36.0,-11.0,51.0,1645193566.03125,P16,D12,1,1,1
330,-35.0,-11.0,51.0,1645193566.0625,P16,D12,1,1,1
331,-35.0,-11.0,52.0,1645193566.09375,P16,D12,1,1,1
332,-35.0,-11.0,52.0,1645193566.125,P16,D12,1,1,1
333,-35.0,-11.0,51.0,1645193566.15625,P16,D12,1,1,1
334,-36.0,-11.0,51.0,1645193566.1875,P16,D12,1,1,1
335,-35.0,-11.0,51.0,1645193566.21875,P16,D12,1,1,1
336,-36.0,-11.0,52.0,1645193566.25,P16,D12,1,1,1
337,-36.0,-11.0,51.0,1645193566.28125,P16,D12,1,1,1
338,-35.0,-11.0,51.0,1645193566.3125,P16,D12,1,1,1
339,-35.0,-11.0,51.0,1645193566.34375,P16,D12,1,1,1
340,-36.0,-11.0,51.0,1645193566.375,P16,D12,1,1,1
341,-35.0,-11.0,51.0,1645193566.40625,P16,D12,1,1,1
342,-36.0,-11.0,51.0,1645193566.4375,P16,D12,1,1,1
343,-36.0,-11.0,51.0,1645193566.46875,P16,D12,1,1,1
344,-36.0,-11.0,52.0,1645193566.5,P16,D12,1,1,1
345,-36.0,-11.0,51.0,1645193566.53125,P16,D12,1,1,1
346,-36.0,-11.0,51.0,1645193566.5625,P16,D12,1,1,1
347,-36.0,-12.0,52.0,1645193566.59375,P16,D12,1,1,1
348,-36.0,-11.0,51.0,1645193566.625,P16,D12,1,1,1
349,-36.0,-11.0,51.0,1645193566.65625,P16,D12,1,1,1
350,-36.0,-11.0,52.0,1645193566.6875,P16,D12,1,1,1
351,-35.0,-12.0,52.0,1645193566.71875,P16,D12,1,1,1
352,-36.0,-11.0,51.0,1645193566.75,P16,D12,1,1,1
353,-36.0,-11.0,51.0,1645193566.78125,P16,D12,1,1,1
354,-36.0,-11.0,51.0,1645193566.8125,P16,D12,1,1,1
355,-36.0,-11.0,51.0,1645193566.84375,P16,D12,1,1,1
356,-36.0,-11.0,51.0,1645193566.875,P16,D12,1,1,1
357,-36.0,-11.0,51.0,1645193566.90625,P16,D12,1,1,1
358,-36.0,-11.0,51.0,1645193566.9375,P16,D12,1,1,1
359,-36.0,-11.0,51.0,1645193566.96875,P16,D12,1,1,1
360,-36.0,-11.0,51.0,1645193567.0,P16,D12,1,1,1
361,-35.0,-11.0,51.0,1645193567.03125,P16,D12,1,1,1
362,-36.0,-12.0,51.0,1645193567.0625,P16,D12,1,1,1
363,-36.0,-11.0,51.0,1645193567.09375,P16,D12,1,1,1
364,-36.0,-11.0,51.0,1645193567.125,P16,D12,1,1,1
365,-36.0,-11.0,51.0,1645193567.15625,P16,D12,1,1,1
366,-36.0,-11.0,51.0,1645193567.1875,P16,D12,1,1,1
367,-36.0,-11.0,51.0,1645193567.21875,P16,D12,1,1,1
368,-35.0,-11.0,52.0,1645193567.25,P16,D12,1,1,1
369,-36.0,-11.0,51.0,1645193567.28125,P16,D12,1,1,1
370,-36.0,-11.0,51.0,1645193567.3125,P16,D12,1,1,1
371,-36.0,-11.0,51.0,1645193567.34375,P16,D12,1,1,1
372,-36.0,-11.0,52.0,1645193567.375,P16,D12,1,1,1
373,-36.0,-11.0,52.0,1645193567.40625,P16,D12,1,1,1
374,-36.0,-11.0,51.0,1645193567.4375,P16,D12,1,1,1
375,-36.0,-11.0,51.0,1645193567.46875,P16,D12,1,1,1
376,-35.0,-11.0,52.0,1645193567.5,P16,D12,1,1,1
377,-36.0,-11.0,51.0,1645193567.53125,P16,D12,1,1,1
378,-36.0,-11.0,52.0,1645193567.5625,P16,D12,1,1,1
379,-36.0,-11.0,52.0,1645193567.59375,P16,D12,1,1,1
380,-36.0,-11.0,51.0,1645193567.625,P16,D12,1,1,1
381,-36.0,-11.0,51.0,1645193567.65625,P16,D12,1,1,1
382,-35.0,-11.0,51.0,1645193567.6875,P16,D12,1,1,1
383,-36.0,-11.0,51.0,1645193567.71875,P16,D12,1,1,1
384,-36.0,-11.0,51.0,1645193567.75,P16,D12,1,1,1
385,-35.0,-11.0,51.0,1645193567.78125,P16,D12,1,1,1
386,-36.0,-11.0,51.0,1645193567.8125,P16,D12,1,1,1
387,-36.0,-11.0,52.0,1645193567.84375,P16,D12,1,1,1
388,-36.0,-11.0,51.0,1645193567.875,P16,D12,1,1,1
389,-36.0,-11.0,51.0,1645193567.90625,P16,D12,1,1,1
390,-36.0,-11.0,52.0,1645193567.9375,P16,D12,1,1,1
391,-36.0,-11.0,51.0,1645193567.96875,P16,D12,1,1,1
392,-36.0,-11.0,52.0,1645193568.0,P16,D12,1,1,1
393,-35.0,-11.0,52.0,1645193568.03125,P16,D12,1,1,1
394,-36.0,-11.0,51.0,1645193568.0625,P16,D12,1,1,1
395,-35.0,-11.0,52.0,1645193568.09375,P16,D12,1,1,1
396,-36.0,-11.0,52.0,1645193568.125,P16,D12,1,1,1
397,-36.0,-11.0,52.0,1645193568.15625,P16,D12,1,1,1
398,-35.0,-11.0,51.0,1645193568.1875,P16,D12,1,1,1
399,-36.0,-11.0,52.0,1645193568.21875,P16,D12,1,1,1
400,-36.0,-11.0,52.0,1645193568.25,P16,D12,1,1,1
401,-36.0,-11.0,51.0,1645193568.28125,P16,D12,1,1,1
402,-36.0,-11.0,51.0,1645193568.3125,P16,D12,1,1,1
403,-35.0,-11.0,51.0,1645193568.34375,P16,D12,1,1,1
404,-35.0,-11.0,51.0,1645193568.375,P16,D12,1,1,1
405,-36.0,-11.0,51.0,1645193568.40625,P16,D12,1,1,1
406,-35.0,-11.0,51.0,1645193568.4375,P16,D12,1,1,1
407,-35.0,-11.0,52.0,1645193568.46875,P16,D12,1,1,1
408,-35.0,-11.0,51.0,1645193568.5,P16,D12,1,1,1
409,-35.0,-11.0,51.0,1645193568.53125,P16,D12,1,1,1
410,-36.0,-11.0,51.0,1645193568.5625,P16,D12,1,1,1
411,-35.0,-11.0,52.0,1645193568.59375,P16,D12,1,1,1
412,-36.0,-11.0,51.0,1645193568.625,P16,D12,1,1,1
413,-36.0,-11.0,51.0,1645193568.65625,P16,D12,1,1,1
414,-35.0,-11.0,51.0,1645193568.6875,P16,D12,1,1,1
415,-36.0,-11.0,51.0,1645193568.71875,P16,D12,1,1,1
416,-36.0,-11.0,51.0,1645193568.75,P16,D12,1,1,1
417,-36.0,-11.0,51.0,1645193568.78125,P16,D12,1,1,1
418,-36.0,-11.0,51.0,1645193568.8125,P16,D12,1,1,1
419,-36.0,-11.0,51.0,1645193568.84375,P16,D12,1,1,1
420,-36.0,-11.0,51.0,1645193568.875,P16,D12,1,1,1
421,-36.0,-11.0,51.0,1645193568.90625,P16,D12,1,1,1
422,-36.0,-11.0,51.0,1645193568.9375,P16,D12,1,1,1
423,-36.0,-11.0,52.0,1645193568.96875,P16,D12,1,1,1
424,-36.0,-11.0,51.0,1645193569.0,P16,D12,1,1,1
425,-36.0,-11.0,51.0,1645193569.03125,P16,D12,1,1,1
426,-36.0,-11.0,51.0,1645193569.0625,P16,D12,1,1,1
427,-36.0,-11.0,51.0,1645193569.09375,P16,D12,1,1,1
428,-36.0,-11.0,51.0,1645193569.125,P16,D12,1,1,1
429,-36.0,-11.0,52.0,1645193569.15625,P16,D12,1,1,1
430,-36.0,-11.0,51.0,1645193569.1875,P16,D12,1,1,1
431,-36.0,-11.0,52.0,1645193569.21875,P16,D12,1,1,1
432,-35.0,-11.0,52.0,1645193569.25,P16,D12,1,1,1
433,-35.0,-11.0,51.0,1645193569.28125,P16,D12,1,1,1
434,-36.0,-11.0,51.0,1645193569.3125,P16,D12,1,1,1
435,-36.0,-11.0,51.0,1645193569.34375,P16,D12,1,1,1
436,-35.0,-11.0,51.0,1645193569.375,P16,D12,1,1,1
437,-35.0,-11.0,51.0,1645193569.40625,P16,D12,1,1,1
438,-35.0,-11.0,51.0,1645193569.4375,P16,D12,1,1,1
439,-36.0,-11.0,51.0,1645193569.46875,P16,D12,1,1,1
440,-35.0,-11.0,51.0,1645193569.5,P16,D12,1,1,1
441,-36.0,-11.0,51.0,1645193569.53125,P16,D12,1,1,1
442,-35.0,-11.0,51.0,1645193569.5625,P16,D12,1,1,1
443,-36.0,-11.0,51.0,1645193569.59375,P16,D12,1,1,1
444,-35.0,-11.0,51.0,1645193569.625,P16,D12,1,1,1
445,-36.0,-11.0,51.0,1645193569.65625,P16,D12,1,1,1
446,-35.0,-11.0,51.0,1645193569.6875,P16,D12,1,1,1
447,-36.0,-11.0,51.0,1645193569.71875,P16,D12,1,1,1
448,-35.0,-11.0,52.0,1645193569.75,P16,D12,1,1,1
449,-36.0,-11.0,52.0,1645193569.78125,P16,D12,1,1,1
450,-36.0,-11.0,52.0,1645193569.8125,P16,D12,1,1,1
451,-36.0,-11.0,51.0,1645193569.84375,P16,D12,1,1,1
452,-36.0,-11.0,52.0,1645193569.875,P16,D12,1,1,1
453,-35.0,-11.0,52.0,1645193569.90625,P16,D12,1,1,1
454,-35.0,-11.0,51.0,1645193569.9375,P16,D12,1,1,1
455,-36.0,-11.0,51.0,1645193569.96875,P16,D12,1,1,1
456,-35.0,-11.0,52.0,1645193570.0,P16,D12,1,1,1
457,-35.0,-11.0,52.0,1645193570.03125,P16,D12,1,1,1
458,-35.0,-11.0,52.0,1645193570.0625,P16,D12,1,1,1
459,-36.0,-11.0,52.0,1645193570.09375,P16,D12,1,1,1
460,-36.0,-11.0,51.0,1645193570.125,P16,D12,1,1,1
461,-36.0,-11.0,51.0,1645193570.15625,P16,D12,1,1,1
462,-36.0,-11.0,51.0,1645193570.1875,P16,D12,1,1,1
463,-35.0,-11.0,51.0,1645193570.21875,P16,D12,1,1,1
464,-36.0,-11.0,51.0,1645193570.25,P16,D12,1,1,1
465,-36.0,-11.0,51.0,1645193570.28125,P16,D12,1,1,1
466,-36.0,-11.0,51.0,1645193570.3125,P16,D12,1,1,1
467,-35.0,-11.0,51.0,1645193570.34375,P16,D12,1,1,1
468,-36.0,-11.0,51.0,1645193570.375,P16,D12,1,1,1
469,-35.0,-11.0,51.0,1645193570.40625,P16,D12,1,1,1
470,-36.0,-11.0,52.0,1645193570.4375,P16,D12,1,1,1
471,-36.0,-11.0,51.0,1645193570.46875,P16,D12,1,1,1
472,-35.0,-11.0,52.0,1645193570.5,P16,D12,1,1,1
473,-35.0,-11.0,51.0,1645193570.53125,P16,D12,1,1,1
474,-36.0,-11.0,52.0,1645193570.5625,P16,D12,1,1,1
475,-35.0,-11.0,51.0,1645193570.59375,P16,D12,1,1,1
476,-36.0,-11.0,51.0,1645193570.625,P16,D12,1,1,1
477,-36.0,-11.0,51.0,1645193570.65625,P16,D12,1,1,1
478,-36.0,-11.0,51.0,1645193570.6875,P16,D12,1,1,1
479,-36.0,-11.0,52.0,1645193570.71875,P16,D12,1,1,1
480,-36.0,-11.0,52.0,1645193570.75,P16,D12,1,1,1
481,-36.0,-11.0,51.0,1645193570.78125,P16,D12,1,1,1
482,-35.0,-11.0,51.0,1645193570.8125,P16,D12,1,1,1
483,-36.0,-11.0,51.0,1645193570.84375,P16,D12,1,1,1
484,-36.0,-11.0,51.0,1645193570.875,P16,D12,1,1,1
485,-36.0,-11.0,51.0,1645193570.90625,P16,D12,1,1,1
486,-36.0,-11.0,51.0,1645193570.9375,P16,D12,1,1,1
487,-36.0,-11.0,51.0,1645193570.96875,P16,D12,1,1,1
488,-36.0,-11.0,51.0,1645193571.0,P16,D12,1,1,1
489,-36.0,-11.0,51.0,1645193571.03125,P16,D12,1,1,1
490,-36.0,-11.0,52.0,1645193571.0625,P16,D12,1,1,1
491,-36.0,-11.0,51.0,1645193571.09375,P16,D12,1,1,1
492,-36.0,-11.0,51.0,1645193571.125,P16,D12,1,1,1
493,-35.0,-11.0,51.0,1645193571.15625,P16,D12,1,1,1
494,-36.0,-11.0,52.0,1645193571.1875,P16,D12,1,1,1
495,-36.0,-11.0,51.0,1645193571.21875,P16,D12,1,1,1
496,-36.0,-11.0,52.0,1645193571.25,P16,D12,1,1,1
497,-36.0,-11.0,51.0,1645193571.28125,P16,D12,1,1,1
498,-35.0,-11.0,52.0,1645193571.3125,P16,D12,1,1,1
499,-35.0,-11.0,52.0,1645193571.34375,P16,D12,1,1,1
500,-36.0,-11.0,51.0,1645193571.375,P16,D12,1,1,1
501,-36.0,-11.0,51.0,1645193571.40625,P16,D12,1,1,1
502,-35.0,-11.0,51.0,1645193571.4375,P16,D12,1,1,1
503,-36.0,-11.0,52.0,1645193571.46875,P16,D12,1,1,1
504,-35.0,-11.0,52.0,1645193571.5,P16,D12,1,1,1
505,-36.0,-11.0,52.0,1645193571.53125,P16,D12,1,1,1
506,-35.0,-11.0,52.0,1645193571.5625,P16,D12,1,1,1
507,-36.0,-11.0,51.0,1645193571.59375,P16,D12,1,1,1
508,-36.0,-11.0,51.0,1645193571.625,P16,D12,1,1,1
509,-36.0,-11.0,51.0,1645193571.65625,P16,D12,1,1,1
510,-36.0,-12.0,51.0,1645193571.6875,P16,D12,1,1,1
511,-35.0,-9.0,52.0,1645193571.71875,P16,D12,1,1,1
512,-35.0,-10.0,52.0,1645193571.75,P16,D12,1,1,1
513,-35.0,-10.0,52.0,1645193571.78125,P16,D12,1,1,1
514,-35.0,-10.0,52.0,1645193571.8125,P16,D12,1,1,1
515,-36.0,-11.0,52.0,1645193571.84375,P16,D12,1,1,1
516,-35.0,-11.0,52.0,1645193571.875,P16,D12,1,1,1
517,-35.0,-10.0,52.0,1645193571.90625,P16,D12,1,1,1
518,-35.0,-10.0,52.0,1645193571.9375,P16,D12,1,1,1
519,-35.0,-10.0,52.0,1645193571.96875,P16,D12,1,1,1
520,-35.0,-10.0,52.0,1645193572.0,P16,D12,1,1,1
521,-35.0,-10.0,52.0,1645193572.03125,P16,D12,1,1,1
522,-35.0,-10.0,52.0,1645193572.0625,P16,D12,1,1,1
523,-35.0,-10.0,52.0,1645193572.09375,P16,D12,1,1,1
524,-35.0,-10.0,52.0,1645193572.125,P16,D12,1,1,1
525,-35.0,-10.0,52.0,1645193572.15625,P16,D12,1,1,1
526,-35.0,-10.0,52.0,1645193572.1875,P16,D12,1,1,1
527,-35.0,-10.0,52.0,1645193572.21875,P16,D12,1,1,1
528,-35.0,-10.0,52.0,1645193572.25,P16,D12,1,1,1
529,-35.0,-10.0,52.0,1645193572.28125,P16,D12,1,1,1
530,-35.0,-10.0,52.0,1645193572.3125,P16,D12,1,1,1
531,-36.0,-10.0,52.0,1645193572.34375,P16,D12,1,1,1
532,-35.0,-10.0,52.0,1645193572.375,P16,D12,1,1,1
533,-35.0,-10.0,52.0,1645193572.40625,P16,D12,1,1,1
534,-35.0,-10.0,52.0,1645193572.4375,P16,D12,1,1,1
535,-35.0,-10.0,52.0,1645193572.46875,P16,D12,1,1,1
536,-35.0,-10.0,52.0,1645193572.5,P16,D12,1,1,1
537,-35.0,-10.0,52.0,1645193572.53125,P16,D12,1,1,1
538,-35.0,-10.0,52.0,1645193572.5625,P16,D12,1,1,1
539,-35.0,-10.0,52.0,1645193572.59375,P16,D12,1,1,1
540,-35.0,-10.0,52.0,1645193572.625,P16,D12,1,1,1
541,-35.0,-10.0,52.0,1645193572.65625,P16,D12,1,1,1
542,-35.0,-10.0,52.0,1645193572.6875,P16,D12,1,1,1
543,-35.0,-10.0,52.0,1645193572.71875,P16,D12,1,1,1
544,-35.0,-10.0,52.0,1645193572.75,P16,D12,1,1,1
545,-35.0,-11.0,52.0,1645193572.78125,P16,D12,1,1,1
546,-35.0,-10.0,52.0,1645193572.8125,P16,D12,1,1,1
547,-35.0,-10.0,52.0,1645193572.84375,P16,D12,1,1,1
548,-35.0,-10.0,52.0,1645193572.875,P16,D12,1,1,1
549,-35.0,-10.0,52.0,1645193572.90625,P16,D12,1,1,1
550,-35.0,-11.0,52.0,1645193572.9375,P16,D12,1,1,1
551,-35.0,-11.0,52.0,1645193572.96875,P16,D12,1,1,1
552,-35.0,-11.0,52.0,1645193573.0,P16,D12,1,1,1
553,-35.0,-11.0,52.0,1645193573.03125,P16,D12,1,1,1
554,-35.0,-11.0,52.0,1645193573.0625,P16,D12,1,1,1
555,-36.0,-11.0,52.0,1645193573.09375,P16,D12,1,1,1
556,-36.0,-11.0,52.0,1645193573.125,P16,D12,1,1,1
557,-35.0,-11.0,52.0,1645193573.15625,P16,D12,1,1,1
558,-35.0,-11.0,51.0,1645193573.1875,P16,D12,1,1,1
559,-36.0,-11.0,52.0,1645193573.21875,P16,D12,1,1,1
560,-35.0,-11.0,52.0,1645193573.25,P16,D12,1,1,1
561,-35.0,-11.0,52.0,1645193573.28125,P16,D12,1,1,1
562,-35.0,-11.0,51.0,1645193573.3125,P16,D12,1,1,1
563,-35.0,-11.0,51.0,1645193573.34375,P16,D12,1,1,1
564,-36.0,-11.0,51.0,1645193573.375,P16,D12,1,1,1
565,-35.0,-11.0,52.0,1645193573.40625,P16,D12,1,1,1
566,-36.0,-11.0,52.0,1645193573.4375,P16,D12,1,1,1
567,-36.0,-11.0,51.0,1645193573.46875,P16,D12,1,1,1
568,-36.0,-11.0,51.0,1645193573.5,P16,D12,1,1,1
569,-36.0,-11.0,51.0,1645193573.53125,P16,D12,1,1,1
570,-36.0,-11.0,51.0,1645193573.5625,P16,D12,1,1,1
571,-36.0,-11.0,51.0,1645193573.59375,P16,D12,1,1,1
572,-35.0,-11.0,51.0,1645193573.625,P16,D12,1,1,1
573,-36.0,-11.0,52.0,1645193573.65625,P16,D12,1,1,1
574,-36.0,-11.0,51.0,1645193573.6875,P16,D12,1,1,1
575,-36.0,-11.0,51.0,1645193573.71875,P16,D12,1,1,1
576,-36.0,-11.0,51.0,1645193573.75,P16,D12,1,1,1
577,-36.0,-11.0,51.0,1645193573.78125,P16,D12,1,1,1
578,-36.0,-11.0,51.0,1645193573.8125,P16,D12,1,1,1
579,-36.0,-11.0,52.0,1645193573.84375,P16,D12,1,1,1
580,-36.0,-11.0,51.0,1645193573.875,P16,D12,1,1,1
581,-36.0,-11.0,51.0,1645193573.90625,P16,D12,1,1,1
582,-36.0,-11.0,51.0,1645193573.9375,P16,D12,1,1,1
583,-36.0,-11.0,51.0,1645193573.96875,P16,D12,1,1,1
584,-35.0,-11.0,51.0,1645193574.0,P16,D12,1,1,1
585,-36.0,-11.0,51.0,1645193574.03125,P16,D12,1,1,1
586,-35.0,-11.0,51.0,1645193574.0625,P16,D12,1,1,1
587,-35.0,-11.0,52.0,1645193574.09375,P16,D12,1,1,1
588,-36.0,-11.0,51.0,1645193574.125,P16,D12,1,1,1
589,-36.0,-11.0,51.0,1645193574.15625,P16,D12,1,1,1
590,-36.0,-11.0,51.0,1645193574.1875,P16,D12,1,1,1
591,-36.0,-11.0,51.0,1645193574.21875,P16,D12,1,1,1
592,-36.0,-11.0,51.0,1645193574.25,P16,D12,1,1,1
593,-36.0,-11.0,51.0,1645193574.28125,P16,D12,1,1,1
594,-36.0,-11.0,51.0,1645193574.3125,P16,D12,1,1,1
595,-36.0,-11.0,51.0,1645193574.34375,P16,D12,1,1,1
596,-36.0,-11.0,51.0,1645193574.375,P16,D12,1,1,1
597,-35.0,-11.0,51.0,1645193574.40625,P16,D12,1,1,1
598,-36.0,-11.0,51.0,1645193574.4375,P16,D12,1,1,1
599,-36.0,-11.0,52.0,1645193574.46875,P16,D12,1,1,1
600,-36.0,-11.0,52.0,1645193574.5,P16,D12,1,1,1
601,-36.0,-11.0,51.0,1645193574.53125,P16,D12,1,1,1
602,-36.0,-11.0,51.0,1645193574.5625,P16,D12,1,1,1
603,-36.0,-11.0,51.0,1645193574.59375,P16,D12,1,1,1
604,-36.0,-11.0,51.0,1645193574.625,P16,D12,1,1,1
605,-36.0,-11.0,51.0,1645193574.65625,P16,D12,1,1,1
606,-36.0,-11.0,52.0,1645193574.6875,P16,D12,1,1,1
607,-36.0,-11.0,51.0,1645193574.71875,P16,D12,1,1,1
608,-35.0,-11.0,51.0,1645193574.75,P16,D12,1,1,1
609,-35.0,-11.0,51.0,1645193574.78125,P16,D12,1,1,1
610,-36.0,-11.0,52.0,1645193574.8125,P16,D12,1,1,1
611,-36.0,-11.0,51.0,1645193574.84375,P16,D12,1,1,1
612,-36.0,-11.0,52.0,1645193574.875,P16,D12,1,1,1
613,-36.0,-11.0,51.0,1645193574.90625,P16,D12,1,1,1
614,-36.0,-11.0,52.0,1645193574.9375,P16,D12,1,1,1
615,-36.0,-11.0,51.0,1645193574.96875,P16,D12,1,1,1
616,-36.0,-11.0,52.0,1645193575.0,P16,D12,1,1,1
617,-36.0,-11.0,51.0,1645193575.03125,P16,D12,1,1,1
618,-36.0,-11.0,51.0,1645193575.0625,P16,D12,1,1,1
619,-36.0,-11.0,51.0,1645193575.09375,P16,D12,1,1,1
620,-36.0,-11.0,51.0,1645193575.125,P16,D12,1,1,1
621,-36.0,-11.0,51.0,1645193575.15625,P16,D12,1,1,1
622,-36.0,-11.0,52.0,1645193575.1875,P16,D12,1,1,1
623,-36.0,-11.0,51.0,1645193575.21875,P16,D12,1,1,1
624,-36.0,-11.0,51.0,1645193575.25,P16,D12,1,1,1
625,-36.0,-11.0,52.0,1645193575.28125,P16,D12,1,1,1
626,-36.0,-11.0,51.0,1645193575.3125,P16,D12,1,1,1
627,-36.0,-11.0,51.0,1645193575.34375,P16,D12,1,1,1
628,-36.0,-11.0,51.0,1645193575.375,P16,D12,1,1,1
629,-36.0,-11.0,51.0,1645193575.40625,P16,D12,1,1,1
630,-36.0,-11.0,51.0,1645193575.4375,P16,D12,1,1,1
631,-35.0,-11.0,51.0,1645193575.46875,P16,D12,1,1,1
632,-36.0,-11.0,51.0,1645193575.5,P16,D12,1,1,1
633,-36.0,-11.0,51.0,1645193575.53125,P16,D12,1,1,1
634,-36.0,-11.0,51.0,1645193575.5625,P16,D12,1,1,1
635,-36.0,-11.0,52.0,1645193575.59375,P16,D12,1,1,1
636,-35.0,-11.0,51.0,1645193575.625,P16,D12,1,1,1
637,-36.0,-11.0,51.0,1645193575.65625,P16,D12,1,1,1
638,-36.0,-11.0,51.0,1645193575.6875,P16,D12,1,1,1
639,-36.0,-11.0,51.0,1645193575.71875,P16,D12,1,1,1
640,-36.0,-11.0,51.0,1645193575.75,P16,D12,1,1,1
641,-36.0,-11.0,52.0,1645193575.78125,P16,D12,1,1,1
642,-36.0,-11.0,52.0,1645193575.8125,P16,D12,1,1,1
643,-36.0,-11.0,51.0,1645193575.84375,P16,D12,1,1,1
644,-36.0,-11.0,51.0,1645193575.875,P16,D12,1,1,1
645,-36.0,-11.0,52.0,1645193575.90625,P16,D12,1,1,1
646,-36.0,-11.0,51.0,1645193575.9375,P16,D12,1,1,1
647,-36.0,-11.0,51.0,1645193575.96875,P16,D12,1,1,1
648,-36.0,-11.0,51.0,1645193576.0,P16,D12,1,1,1
649,-36.0,-11.0,51.0,1645193576.03125,P16,D12,1,1,1
650,-35.0,-11.0,51.0,1645193576.0625,P16,D12,1,1,1
651,-36.0,-11.0,51.0,1645193576.09375,P16,D12,1,1,1
652,-36.0,-11.0,51.0,1645193576.125,P16,D12,1,1,1
653,-36.0,-11.0,52.0,1645193576.15625,P16,D12,1,1,1
654,-36.0,-11.0,51.0,1645193576.1875,P16,D12,1,1,1
655,-36.0,-11.0,51.0,1645193576.21875,P16,D12,1,1,1
656,-36.0,-11.0,52.0,1645193576.25,P16,D12,1,1,1
657,-36.0,-11.0,51.0,1645193576.28125,P16,D12,1,1,1
658,-36.0,-11.0,51.0,1645193576.3125,P16,D12,1,1,1
659,-36.0,-11.0,51.0,1645193576.34375,P16,D12,1,1,1
660,-36.0,-11.0,51.0,1645193576.375,P16,D12,1,1,1
661,-36.0,-11.0,51.0,1645193576.40625,P16,D12,1,1,1
662,-36.0,-11.0,51.0,1645193576.4375,P16,D12,1,1,1
663,-36.0,-11.0,51.0,1645193576.46875,P16,D12,1,1,1
664,-36.0,-11.0,51.0,1645193576.5,P16,D12,1,1,1
665,-36.0,-11.0,51.0,1645193576.53125,P16,D12,1,1,1
666,-36.0,-11.0,51.0,1645193576.5625,P16,D12,1,1,1
667,-36.0,-11.0,51.0,1645193576.59375,P16,D12,1,1,1
668,-36.0,-11.0,51.0,1645193576.625,P16,D12,1,1,1
669,-36.0,-11.0,52.0,1645193576.65625,P16,D12,1,1,1
670,-36.0,-11.0,51.0,1645193576.6875,P16,D12,1,1,1
671,-36.0,-11.0,52.0,1645193576.71875,P16,D12,1,1,1
672,-36.0,-11.0,51.0,1645193576.75,P16,D12,1,1,1
673,-36.0,-11.0,52.0,1645193576.78125,P16,D12,1,1,1
674,-36.0,-11.0,51.0,1645193576.8125,P16,D12,1,1,1
675,-36.0,-11.0,51.0,1645193576.84375,P16,D12,1,1,1
676,-36.0,-11.0,52.0,1645193576.875,P16,D12,1,1,1
677,-36.0,-11.0,51.0,1645193576.90625,P16,D12,1,1,1
678,-36.0,-11.0,51.0,1645193576.9375,P16,D12,1,1,1
679,-36.0,-11.0,51.0,1645193576.96875,P16,D12,1,1,1
680,-36.0,-11.0,51.0,1645193577.0,P16,D12,1,1,1
681,-36.0,-11.0,51.0,1645193577.03125,P16,D12,1,1,1
682,-36.0,-11.0,51.0,1645193577.0625,P16,D12,1,1,1
683,-36.0,-11.0,51.0,1645193577.09375,P16,D12,1,1,1
684,-36.0,-11.0,51.0,1645193577.125,P16,D12,1,1,1
685,-36.0,-11.0,51.0,1645193577.15625,P16,D12,1,1,1
686,-36.0,-11.0,51.0,1645193577.1875,P16,D12,1,1,1
687,-36.0,-11.0,51.0,1645193577.21875,P16,D12,1,1,1
688,-36.0,-11.0,51.0,1645193577.25,P16,D12,1,1,1
689,-36.0,-11.0,51.0,1645193577.28125,P16,D12,1,1,1
690,-36.0,-11.0,51.0,1645193577.3125,P16,D12,1,1,1
691,-36.0,-11.0,51.0,1645193577.34375,P16,D12,1,1,1
692,-36.0,-11.0,51.0,1645193577.375,P16,D12,1,1,1
693,-36.0,-11.0,51.0,1645193577.40625,P16,D12,1,1,1
694,-36.0,-11.0,51.0,1645193577.4375,P16,D12,1,1,1
695,-36.0,-11.0,51.0,1645193577.46875,P16,D12,1,1,1
696,-36.0,-11.0,51.0,1645193577.5,P16,D12,1,1,1
697,-36.0,-11.0,51.0,1645193577.53125,P16,D12,1,1,1
698,-36.0,-11.0,51.0,1645193577.5625,P16,D12,1,1,1
699,-36.0,-11.0,51.0,1645193577.59375,P16,D12,1,1,1
700,-36.0,-11.0,51.0,1645193577.625,P16,D12,1,1,1
701,-36.0,-11.0,51.0,1645193577.65625,P16,D12,1,1,1
702,-36.0,-11.0,51.0,1645193577.6875,P16,D12,1,1,1
703,-36.0,-11.0,51.0,1645193577.71875,P16,D12,1,1,1
704,-36.0,-11.0,52.0,1645193577.75,P16,D12,1,1,1
705,-36.0,-11.0,51.0,1645193577.78125,P16,D12,1,1,1
706,-36.0,-11.0,51.0,1645193577.8125,P16,D12,1,1,1
707,-36.0,-11.0,51.0,1645193577.84375,P16,D12,1,1,1
708,-36.0,-11.0,51.0,1645193577.875,P16,D12,1,1,1
709,-36.0,-11.0,51.0,1645193577.90625,P16,D12,1,1,1
710,-36.0,-11.0,51.0,1645193577.9375,P16,D12,1,1,1
711,-36.0,-11.0,51.0,1645193577.96875,P16,D12,1,1,1
712,-36.0,-11.0,51.0,1645193578.0,P16,D12,1,1,1
713,-36.0,-11.0,52.0,1645193578.03125,P16,D12,1,1,1
714,-36.0,-11.0,51.0,1645193578.0625,P16,D12,1,1,1
715,-36.0,-11.0,51.0,1645193578.09375,P16,D12,1,1,1
716,-36.0,-11.0,51.0,1645193578.125,P16,D12,1,1,1
717,-36.0,-11.0,51.0,1645193578.15625,P16,D12,1,1,1
718,-36.0,-11.0,51.0,1645193578.1875,P16,D12,1,1,1
719,-36.0,-11.0,51.0,1645193578.21875,P16,D12,1,1,1
720,-36.0,-11.0,51.0,1645193578.25,P16,D12,1,1,1
721,-36.0,-11.0,51.0,1645193578.28125,P16,D12,1,1,1
722,-36.0,-11.0,51.0,1645193578.3125,P16,D12,1,1,1
723,-36.0,-11.0,51.0,1645193578.34375,P16,D12,1,1,1
724,-36.0,-11.0,51.0,1645193578.375,P16,D12,1,1,1
725,-36.0,-11.0,51.0,1645193578.40625,P16,D12,1,1,1
726,-36.0,-11.0,51.0,1645193578.4375,P16,D12,1,1,1
727,-36.0,-11.0,51.0,1645193578.46875,P16,D12,1,1,1
728,-36.0,-11.0,51.0,1645193578.5,P16,D12,1,1,1
729,-36.0,-11.0,51.0,1645193578.53125,P16,D12,1,1,1
730,-36.0,-11.0,51.0,1645193578.5625,P16,D12,1,1,1
731,-36.0,-11.0,51.0,1645193578.59375,P16,D12,1,1,1
732,-36.0,-11.0,51.0,1645193578.625,P16,D12,1,1,1
733,-36.0,-11.0,51.0,1645193578.65625,P16,D12,1,1,1
734,-36.0,-11.0,51.0,1645193578.6875,P16,D12,1,1,1
735,-36.0,-11.0,51.0,1645193578.71875,P16,D12,1,1,1
736,-36.0,-11.0,51.0,1645193578.75,P16,D12,1,1,1
737,-36.0,-11.0,51.0,1645193578.78125,P16,D12,1,1,1
738,-36.0,-11.0,51.0,1645193578.8125,P16,D12,1,1,1
739,-36.0,-11.0,52.0,1645193578.84375,P16,D12,1,1,1
740,-36.0,-11.0,51.0,1645193578.875,P16,D12,1,1,1
741,-36.0,-11.0,51.0,1645193578.90625,P16,D12,1,1,1
742,-36.0,-11.0,51.0,1645193578.9375,P16,D12,1,1,1
743,-36.0,-11.0,51.0,1645193578.96875,P16,D12,1,1,1
744,-36.0,-11.0,51.0,1645193579.0,P16,D12,1,1,1
745,-36.0,-11.0,51.0,1645193579.03125,P16,D12,1,1,1
746,-36.0,-11.0,51.0,1645193579.0625,P16,D12,1,1,1
747,-36.0,-11.0,51.0,1645193579.09375,P16,D12,1,1,1
748,-36.0,-11.0,51.0,1645193579.125,P16,D12,1,1,1
749,-36.0,-11.0,51.0,1645193579.15625,P16,D12,1,1,1
750,-36.0,-11.0,51.0,1645193579.1875,P16,D12,1,1,1
751,-36.0,-11.0,51.0,1645193579.21875,P16,D12,1,1,1
752,-36.0,-11.0,51.0,1645193579.25,P16,D12,1,1,1
753,-36.0,-11.0,51.0,1645193579.28125,P16,D12,1,1,1
754,-36.0,-11.0,51.0,1645193579.3125,P16,D12,1,1,1
755,-36.0,-11.0,51.0,1645193579.34375,P16,D12,1,1,1
756,-36.0,-11.0,51.0,1645193579.375,P16,D12,1,1,1
757,-36.0,-11.0,51.0,1645193579.40625,P16,D12,1,1,1
758,-36.0,-11.0,51.0,1645193579.4375,P16,D12,1,1,1
759,-36.0,-11.0,51.0,1645193579.46875,P16,D12,1,1,1
760,-36.0,-11.0,51.0,1645193579.5,P16,D12,1,1,1
761,-36.0,-11.0,51.0,1645193579.53125,P16,D12,1,1,1
762,-36.0,-11.0,51.0,1645193579.5625,P16,D12,1,1,1
763,-36.0,-11.0,51.0,1645193579.59375,P16,D12,1,1,1
764,-36.0,-11.0,51.0,1645193579.625,P16,D12,1,1,1
765,-36.0,-11.0,51.0,1645193579.65625,P16,D12,1,1,1
766,-36.0,-11.0,51.0,1645193579.6875,P16,D12,1,1,1
767,-36.0,-11.0,51.0,1645193579.71875,P16,D12,1,1,1
768,-36.0,-11.0,51.0,1645193579.75,P16,D12,1,1,1
769,-36.0,-11.0,51.0,1645193579.78125,P16,D12,1,1,1
770,-36.0,-11.0,51.0,1645193579.8125,P16,D12,1,1,1
771,-36.0,-11.0,51.0,1645193579.84375,P16,D12,1,1,1
772,-36.0,-11.0,51.0,1645193579.875,P16,D12,1,1,1
773,-36.0,-11.0,51.0,1645193579.90625,P16,D12,1,1,1
774,-36.0,-11.0,51.0,1645193579.9375,P16,D12,1,1,1
775,-36.0,-11.0,51.0,1645193579.96875,P16,D12,1,1,1
776,-36.0,-11.0,51.0,1645193580.0,P16,D12,1,1,1
777,-36.0,-11.0,51.0,1645193580.03125,P16,D12,1,1,1
778,-36.0,-11.0,51.0,1645193580.0625,P16,D12,1,1,1
779,-36.0,-11.0,51.0,1645193580.09375,P16,D12,1,1,1
780,-36.0,-11.0,51.0,1645193580.125,P16,D12,1,1,1
781,-36.0,-11.0,51.0,1645193580.15625,P16,D12,1,1,1
782,-36.0,-11.0,51.0,1645193580.1875,P16,D12,1,1,1
783,-36.0,-11.0,51.0,1645193580.21875,P16,D12,1,1,1
784,-36.0,-11.0,51.0,1645193580.25,P16,D12,1,1,1
785,-36.0,-11.0,51.0,1645193580.28125,P16,D12,1,1,1
786,-36.0,-11.0,51.0,1645193580.3125,P16,D12,1,1,1
787,-36.0,-11.0,51.0,1645193580.34375,P16,D12,1,1,1
788,-36.0,-11.0,51.0,1645193580.375,P16,D12,1,1,1
789,-36.0,-11.0,51.0,1645193580.40625,P16,D12,1,1,1
790,-36.0,-11.0,51.0,1645193580.4375,P16,D12,1,1,1
791,-36.0,-11.0,51.0,1645193580.46875,P16,D12,1,1,1
792,-36.0,-11.0,51.0,1645193580.5,P16,D12,1,1,1
793,-36.0,-11.0,51.0,1645193580.53125,P16,D12,1,1,1
794,-36.0,-11.0,51.0,1645193580.5625,P16,D12,1,1,1
795,-36.0,-11.0,51.0,1645193580.59375,P16,D12,1,1,1
796,-36.0,-11.0,51.0,1645193580.625,P16,D12,1,1,1
797,-36.0,-11.0,51.0,1645193580.65625,P16,D12,1,1,1
798,-36.0,-11.0,51.0,1645193580.6875,P16,D12,1,1,1
799,-36.0,-11.0,51.0,1645193580.71875,P16,D12,1,1,1
800,-36.0,-12.0,51.0,1645193580.75,P16,D12,1,1,1
801,-36.0,-11.0,51.0,1645193580.78125,P16,D12,1,1,1
802,-36.0,-11.0,51.0,1645193580.8125,P16,D12,1,1,1
803,-36.0,-11.0,51.0,1645193580.84375,P16,D12,1,1,1
804,-36.0,-11.0,51.0,1645193580.875,P16,D12,1,1,1
805,-36.0,-11.0,51.0,1645193580.90625,P16,D12,1,1,1
806,-36.0,-11.0,51.0,1645193580.9375,P16,D12,1,1,1
807,-36.0,-11.0,51.0,1645193580.96875,P16,D12,1,1,1
808,-36.0,-11.0,51.0,1645193581.0,P16,D12,1,1,1
809,-36.0,-11.0,51.0,1645193581.03125,P16,D12,1,1,1
810,-36.0,-11.0,51.0,1645193581.0625,P16,D12,1,1,1
811,-36.0,-11.0,51.0,1645193581.09375,P16,D12,1,1,1
812,-36.0,-12.0,51.0,1645193581.125,P16,D12,1,1,1
813,-36.0,-11.0,51.0,1645193581.15625,P16,D12,1,1,1
814,-36.0,-11.0,51.0,1645193581.1875,P16,D12,1,1,1
815,-36.0,-11.0,51.0,1645193581.21875,P16,D12,1,1,1
816,-36.0,-11.0,51.0,1645193581.25,P16,D12,1,1,1
817,-36.0,-11.0,51.0,1645193581.28125,P16,D12,1,1,1
818,-36.0,-11.0,51.0,1645193581.3125,P16,D12,1,1,1
819,-36.0,-11.0,51.0,1645193581.34375,P16,D12,1,1,1
820,-36.0,-11.0,51.0,1645193581.375,P16,D12,1,1,1
821,-36.0,-11.0,51.0,1645193581.40625,P16,D12,1,1,1
822,-36.0,-11.0,51.0,1645193581.4375,P16,D12,1,1,1
823,-36.0,-11.0,51.0,1645193581.46875,P16,D12,1,1,1
824,-36.0,-11.0,51.0,1645193581.5,P16,D12,1,1,1
825,-36.0,-11.0,51.0,1645193581.53125,P16,D12,1,1,1
826,-36.0,-11.0,51.0,1645193581.5625,P16,D12,1,1,1
827,-36.0,-11.0,51.0,1645193581.59375,P16,D12,1,1,1
828,-36.0,-11.0,51.0,1645193581.625,P16,D12,1,1,1
829,-36.0,-11.0,51.0,1645193581.65625,P16,D12,1,1,1
830,-36.0,-11.0,51.0,1645193581.6875,P16,D12,1,1,1
831,-36.0,-11.0,51.0,1645193581.71875,P16,D12,1,1,1
832,-36.0,-11.0,51.0,1645193581.75,P16,D12,1,1,1
833,-36.0,-11.0,51.0,1645193581.78125,P16,D12,1,1,1
834,-36.0,-11.0,51.0,1645193581.8125,P16,D12,1,1,1
835,-36.0,-11.0,51.0,1645193581.84375,P16,D12,1,1,1
836,-36.0,-11.0,51.0,1645193581.875,P16,D12,1,1,1
837,-36.0,-11.0,51.0,1645193581.90625,P16,D12,1,1,1
838,-36.0,-11.0,51.0,1645193581.9375,P16,D12,1,1,1
839,-36.0,-11.0,51.0,1645193581.96875,P16,D12,1,1,1
840,-36.0,-11.0,51.0,1645193582.0,P16,D12,1,1,1
841,-36.0,-11.0,51.0,1645193582.03125,P16,D12,1,1,1
842,-36.0,-11.0,51.0,1645193582.0625,P16,D12,1,1,1
843,-36.0,-11.0,51.0,1645193582.09375,P16,D12,1,1,1
844,-36.0,-11.0,51.0,1645193582.125,P16,D12,1,1,1
845,-36.0,-11.0,51.0,1645193582.15625,P16,D12,1,1,1
846,-36.0,-11.0,51.0,1645193582.1875,P16,D12,1,1,1
847,-36.0,-11.0,51.0,1645193582.21875,P16,D12,1,1,1
848,-36.0,-11.0,51.0,1645193582.25,P16,D12,1,1,1
849,-36.0,-11.0,51.0,1645193582.28125,P16,D12,1,1,1
850,-36.0,-11.0,51.0,1645193582.3125,P16,D12,1,1,1
851,-36.0,-11.0,51.0,1645193582.34375,P16,D12,1,1,1
852,-36.0,-11.0,51.0,1645193582.375,P16,D12,1,1,1
853,-36.0,-11.0,51.0,1645193582.40625,P16,D12,1,1,1
854,-36.0,-11.0,51.0,1645193582.4375,P16,D12,1,1,1
855,-36.0,-11.0,51.0,1645193582.46875,P16,D12,1,1,1
856,-36.0,-11.0,51.0,1645193582.5,P16,D12,1,1,1
857,-36.0,-11.0,51.0,1645193582.53125,P16,D12,1,1,1
858,-36.0,-11.0,51.0,1645193582.5625,P16,D12,1,1,1
859,-36.0,-11.0,51.0,1645193582.59375,P16,D12,1,1,1
860,-36.0,-11.0,51.0,1645193582.625,P16,D12,1,1,1
861,-36.0,-11.0,51.0,1645193582.65625,P16,D12,1,1,1
862,-36.0,-11.0,51.0,1645193582.6875,P16,D12,1,1,1
863,-36.0,-11.0,51.0,1645193582.71875,P16,D12,1,1,1
864,-36.0,-11.0,51.0,1645193582.75,P16,D12,1,1,1
865,-36.0,-11.0,51.0,1645193582.78125,P16,D12,1,1,1
866,-36.0,-11.0,51.0,1645193582.8125,P16,D12,1,1,1
867,-36.0,-11.0,51.0,1645193582.84375,P16,D12,1,1,1
868,-36.0,-11.0,51.0,1645193582.875,P16,D12,1,1,1
869,-36.0,-11.0,51.0,1645193582.90625,P16,D12,1,1,1
870,-36.0,-11.0,51.0,1645193582.9375,P16,D12,1,1,1
871,-36.0,-11.0,51.0,1645193582.96875,P16,D12,1,1,1
872,-36.0,-11.0,51.0,1645193583.0,P16,D12,1,1,1
873,-36.0,-11.0,51.0,1645193583.03125,P16,D12,1,1,1
874,-36.0,-11.0,51.0,1645193583.0625,P16,D12,1,1,1
875,-36.0,-11.0,51.0,1645193583.09375,P16,D12,1,1,1
876,-36.0,-11.0,51.0,1645193583.125,P16,D12,1,1,1
877,-36.0,-11.0,51.0,1645193583.15625,P16,D12,1,1,1
878,-36.0,-11.0,51.0,1645193583.1875,P16,D12,1,1,1
879,-36.0,-11.0,51.0,1645193583.21875,P16,D12,1,1,1
880,-36.0,-11.0,51.0,1645193583.25,P16,D12,1,1,1
881,-36.0,-11.0,51.0,1645193583.28125,P16,D12,1,1,1
882,-36.0,-11.0,51.0,1645193583.3125,P16,D12,1,1,1
883,-36.0,-11.0,51.0,1645193583.34375,P16,D12,1,1,1
884,-36.0,-11.0,51.0,1645193583.375,P16,D12,1,1,1
885,-36.0,-11.0,51.0,1645193583.40625,P16,D12,1,1,1
886,-36.0,-11.0,51.0,1645193583.4375,P16,D12,1,1,1
887,-36.0,-11.0,51.0,1645193583.46875,P16,D12,1,1,1
888,-36.0,-11.0,51.0,1645193583.5,P16,D12,1,1,1
889,-36.0,-12.0,51.0,1645193583.53125,P16,D12,1,1,1
890,-36.0,-11.0,51.0,1645193583.5625,P16,D12,1,1,1
891,-36.0,-12.0,51.0,1645193583.59375,P16,D12,1,1,1
892,-36.0,-12.0,51.0,1645193583.625,P16,D12,1,1,1
893,-36.0,-12.0,51.0,1645193583.65625,P16,D12,1,1,1
894,-36.0,-12.0,51.0,1645193583.6875,P16,D12,1,1,1
895,-36.0,-11.0,51.0,1645193583.71875,P16,D12,1,1,1
896,-36.0,-11.0,51.0,1645193583.75,P16,D12,1,1,1
897,-36.0,-11.0,51.0,1645193583.78125,P16,D12,1,1,1
898,-36.0,-12.0,51.0,1645193583.8125,P16,D12,1,1,1
899,-36.0,-11.0,51.0,1645193583.84375,P16,D12,1,1,1
900,-36.0,-11.0,51.0,1645193583.875,P16,D12,1,1,1
901,-36.0,-12.0,51.0,1645193583.90625,P16,D12,1,1,1
902,-36.0,-11.0,51.0,1645193583.9375,P16,D12,1,1,1
903,-36.0,-11.0,51.0,1645193583.96875,P16,D12,1,1,1
904,-36.0,-11.0,51.0,1645193584.0,P16,D12,1,1,1
905,-36.0,-12.0,51.0,1645193584.03125,P16,D12,1,1,1
906,-36.0,-12.0,51.0,1645193584.0625,P16,D12,1,1,1
907,-36.0,-11.0,51.0,1645193584.09375,P16,D12,1,1,1
908,-36.0,-11.0,51.0,1645193584.125,P16,D12,1,1,1
909,-36.0,-11.0,51.0,1645193584.15625,P16,D12,1,1,1
910,-36.0,-11.0,51.0,1645193584.1875,P16,D12,1,1,1
911,-36.0,-12.0,51.0,1645193584.21875,P16,D12,1,1,1
912,-36.0,-11.0,51.0,1645193584.25,P16,D12,1,1,1
913,-36.0,-11.0,51.0,1645193584.28125,P16,D12,1,1,1
914,-36.0,-11.0,51.0,1645193584.3125,P16,D12,1,1,1
915,-36.0,-11.0,51.0,1645193584.34375,P16,D12,1,1,1
916,-36.0,-11.0,51.0,1645193584.375,P16,D12,1,1,1
917,-36.0,-11.0,51.0,1645193584.40625,P16,D12,1,1,1
918,-36.0,-11.0,51.0,1645193584.4375,P16,D12,1,1,1
919,-36.0,-11.0,51.0,1645193584.46875,P16,D12,1,1,1
920,-36.0,-11.0,51.0,1645193584.5,P16,D12,1,1,1
921,-36.0,-11.0,51.0,1645193584.53125,P16,D12,1,1,1
922,-36.0,-11.0,51.0,1645193584.5625,P16,D12,1,1,1
923,-36.0,-11.0,51.0,1645193584.59375,P16,D12,1,1,1
924,-36.0,-11.0,51.0,1645193584.625,P16,D12,1,1,1
925,-36.0,-11.0,51.0,1645193584.65625,P16,D12,1,1,1
926,-36.0,-11.0,51.0,1645193584.6875,P16,D12,1,1,1
927,-36.0,-11.0,51.0,1645193584.71875,P16,D12,1,1,1
928,-36.0,-11.0,51.0,1645193584.75,P16,D12,1,1,1
929,-36.0,-11.0,51.0,1645193584.78125,P16,D12,1,1,1
930,-36.0,-11.0,51.0,1645193584.8125,P16,D12,1,1,1
931,-36.0,-11.0,51.0,1645193584.84375,P16,D12,1,1,1
932,-36.0,-11.0,51.0,1645193584.875,P16,D12,1,1,1
933,-36.0,-11.0,51.0,1645193584.90625,P16,D12,1,1,1
934,-36.0,-11.0,51.0,1645193584.9375,P16,D12,1,1,1
935,-36.0,-11.0,51.0,1645193584.96875,P16,D12,1,1,1
936,-36.0,-11.0,51.0,1645193585.0,P16,D12,1,1,1
937,-36.0,-11.0,51.0,1645193585.03125,P16,D12,1,1,1
938,-36.0,-11.0,51.0,1645193585.0625,P16,D12,1,1,1
939,-36.0,-11.0,51.0,1645193585.09375,P16,D12,1,1,1
940,-36.0,-11.0,51.0,1645193585.125,P16,D12,1,1,1
941,-36.0,-11.0,51.0,1645193585.15625,P16,D12,1,1,1
942,-36.0,-11.0,51.0,1645193585.1875,P16,D12,1,1,1
943,-36.0,-11.0,51.0,1645193585.21875,P16,D12,1,1,1
944,-36.0,-11.0,51.0,1645193585.25,P16,D12,1,1,1
945,-36.0,-11.0,51.0,1645193585.28125,P16,D12,1,1,1
946,-36.0,-11.0,51.0,1645193585.3125,P16,D12,1,1,1
947,-36.0,-11.0,51.0,1645193585.34375,P16,D12,1,1,1
948,-36.0,-11.0,51.0,1645193585.375,P16,D12,1,1,1
949,-36.0,-11.0,51.0,1645193585.40625,P16,D12,1,1,1
950,-36.0,-11.0,51.0,1645193585.4375,P16,D12,1,1,1
951,-36.0,-11.0,51.0,1645193585.46875,P16,D12,1,1,1
952,-36.0,-11.0,51.0,1645193585.5,P16,D12,1,1,1
953,-36.0,-11.0,51.0,1645193585.53125,P16,D12,1,1,1
954,-36.0,-11.0,51.0,1645193585.5625,P16,D12,1,1,1
955,-36.0,-11.0,51.0,1645193585.59375,P16,D12,1,1,1
956,-36.0,-11.0,51.0,1645193585.625,P16,D12,1,1,1
957,-36.0,-11.0,51.0,1645193585.65625,P16,D12,1,1,1
958,-36.0,-11.0,51.0,1645193585.6875,P16,D12,1,1,1
959,-36.0,-11.0,51.0,1645193585.71875,P16,D12,1,1,1
960,-36.0,-11.0,51.0,1645193585.75,P16,D12,1,1,1
961,-36.0,-11.0,51.0,1645193585.78125,P16,D12,1,1,1
962,-36.0,-11.0,51.0,1645193585.8125,P16,D12,1,1,1
963,-36.0,-11.0,51.0,1645193585.84375,P16,D12,1,1,1
964,-36.0,-11.0,51.0,1645193585.875,P16,D12,1,1,1
965,-36.0,-11.0,51.0,1645193585.90625,P16,D12,1,1,1
966,-36.0,-11.0,51.0,1645193585.9375,P16,D12,1,1,1
967,-36.0,-11.0,51.0,1645193585.96875,P16,D12,1,1,1
968,-36.0,-11.0,51.0,1645193586.0,P16,D12,1,1,1
969,-36.0,-11.0,51.0,1645193586.03125,P16,D12,1,1,1
970,-36.0,-11.0,51.0,1645193586.0625,P16,D12,1,1,1
971,-36.0,-11.0,51.0,1645193586.09375,P16,D12,1,1,1
972,-36.0,-11.0,51.0,1645193586.125,P16,D12,1,1,1
973,-36.0,-11.0,51.0,1645193586.15625,P16,D12,1,1,1
974,-36.0,-11.0,51.0,1645193586.1875,P16,D12,1,1,1
975,-36.0,-11.0,51.0,1645193586.21875,P16,D12,1,1,1
976,-36.0,-11.0,51.0,1645193586.25,P16,D12,1,1,1
977,-36.0,-11.0,51.0,1645193586.28125,P16,D12,1,1,1
978,-36.0,-11.0,51.0,1645193586.3125,P16,D12,1,1,1
979,-36.0,-11.0,51.0,1645193586.34375,P16,D12,1,1,1
980,-36.0,-11.0,51.0,1645193586.375,P16,D12,1,1,1
981,-36.0,-11.0,51.0,1645193586.40625,P16,D12,1,1,1
982,-36.0,-11.0,51.0,1645193586.4375,P16,D12,1,1,1
983,-36.0,-11.0,51.0,1645193586.46875,P16,D12,1,1,1
984,-36.0,-11.0,51.0,1645193586.5,P16,D12,1,1,1
985,-36.0,-11.0,51.0,1645193586.53125,P16,D12,1,1,1
986,-36.0,-11.0,51.0,1645193586.5625,P16,D12,1,1,1
987,-36.0,-11.0,51.0,1645193586.59375,P16,D12,1,1,1
988,-36.0,-11.0,51.0,1645193586.625,P16,D12,1,1,1
989,-36.0,-11.0,51.0,1645193586.65625,P16,D12,1,1,1
990,-36.0,-11.0,51.0,1645193586.6875,P16,D12,1,1,1
991,-36.0,-11.0,51.0,1645193586.71875,P16,D12,1,1,1
992,-36.0,-11.0,51.0,1645193586.75,P16,D12,1,1,1
993,-36.0,-11.0,51.0,1645193586.78125,P16,D12,1,1,1
994,-36.0,-11.0,51.0,1645193586.8125,P16,D12,1,1,1
995,-36.0,-11.0,51.0,1645193586.84375,P16,D12,1,1,1
996,-36.0,-11.0,51.0,1645193586.875,P16,D12,1,1,1
997,-36.0,-11.0,51.0,1645193586.90625,P16,D12,1,1,1
998,-36.0,-11.0,51.0,1645193586.9375,P16,D12,1,1,1
999,-36.0,-11.0,51.0,1645193586.96875,P16,D12,1,1,1
1000,-36.0,-11.0,51.0,1645193587.0,P16,D12,1,1,1
1001,-36.0,-11.0,51.0,1645193587.03125,P16,D12,1,1,1
1002,-36.0,-11.0,51.0,1645193587.0625,P16,D12,1,1,1
1003,-36.0,-11.0,51.0,1645193587.09375,P16,D12,1,1,1
1004,-36.0,-11.0,51.0,1645193587.125,P16,D12,1,1,1
1005,-36.0,-11.0,51.0,1645193587.15625,P16,D12,1,1,1
1006,-36.0,-11.0,51.0,1645193587.1875,P16,D12,1,1,1
1007,-36.0,-11.0,51.0,1645193587.21875,P16,D12,1,1,1
1008,-36.0,-11.0,51.0,1645193587.25,P16,D12,1,1,1
1009,-36.0,-11.0,51.0,1645193587.28125,P16,D12,1,1,1
1010,-36.0,-11.0,51.0,1645193587.3125,P16,D12,1,1,1
1011,-36.0,-11.0,51.0,1645193587.34375,P16,D12,1,1,1
1012,-36.0,-11.0,51.0,1645193587.375,P16,D12,1,1,1
1013,-36.0,-11.0,51.0,1645193587.40625,P16,D12,1,1,1
1014,-36.0,-11.0,51.0,1645193587.4375,P16,D12,1,1,1
1015,-36.0,-11.0,51.0,1645193587.46875,P16,D12,1,1,1
1016,-36.0,-11.0,51.0,1645193587.5,P16,D12,1,1,1
1017,-36.0,-11.0,51.0,1645193587.53125,P16,D12,1,1,1
1018,-36.0,-11.0,51.0,1645193587.5625,P16,D12,1,1,1
1019,-36.0,-11.0,51.0,1645193587.59375,P16,D12,1,1,1
1020,-36.0,-11.0,51.0,1645193587.625,P16,D12,1,1,1
1021,-36.0,-11.0,51.0,1645193587.65625,P16,D12,1,1,1
1022,-36.0,-11.0,51.0,1645193587.6875,P16,D12,1,1,1
1023,-36.0,-11.0,51.0,1645193587.71875,P16,D12,1,1,1
1024,-36.0,-11.0,51.0,1645193587.75,P16,D12,1,1,1
1025,-36.0,-11.0,51.0,1645193587.78125,P16,D12,1,1,1
1026,-36.0,-11.0,51.0,1645193587.8125,P16,D12,1,1,1
1027,-36.0,-11.0,51.0,1645193587.84375,P16,D12,1,1,1
1028,-36.0,-11.0,51.0,1645193587.875,P16,D12,1,1,1
1029,-36.0,-11.0,51.0,1645193587.90625,P16,D12,1,1,1
1030,-36.0,-11.0,51.0,1645193587.9375,P16,D12,1,1,1
1031,-36.0,-11.0,51.0,1645193587.96875,P16,D12,1,1,1
1032,-36.0,-11.0,51.0,1645193588.0,P16,D12,1,1,1
1033,-36.0,-11.0,51.0,1645193588.03125,P16,D12,1,1,1
1034,-36.0,-11.0,51.0,1645193588.0625,P16,D12,1,1,1
1035,-36.0,-11.0,51.0,1645193588.09375,P16,D12,1,1,1
1036,-36.0,-11.0,51.0,1645193588.125,P16,D12,1,1,1
1037,-36.0,-11.0,51.0,1645193588.15625,P16,D12,1,1,1
1038,-36.0,-11.0,51.0,1645193588.1875,P16,D12,1,1,1
1039,-36.0,-11.0,51.0,1645193588.21875,P16,D12,1,1,1
1040,-36.0,-11.0,51.0,1645193588.25,P16,D12,1,1,1
1041,-36.0,-11.0,51.0,1645193588.28125,P16,D12,1,1,1
1042,-36.0,-11.0,51.0,1645193588.3125,P16,D12,1,1,1
1043,-36.0,-11.0,51.0,1645193588.34375,P16,D12,1,1,1
1044,-36.0,-11.0,51.0,1645193588.375,P16,D12,1,1,1
1045,-36.0,-11.0,51.0,1645193588.40625,P16,D12,1,1,1
1046,-36.0,-11.0,51.0,1645193588.4375,P16,D12,1,1,1
1047,-36.0,-11.0,51.0,1645193588.46875,P16,D12,1,1,1
1048,-36.0,-11.0,51.0,1645193588.5,P16,D12,1,1,1
1049,-36.0,-11.0,51.0,1645193588.53125,P16,D12,1,1,1
1050,-36.0,-11.0,51.0,1645193588.5625,P16,D12,1,1,1
1051,-36.0,-11.0,51.0,1645193588.59375,P16,D12,1,1,1
1052,-36.0,-11.0,51.0,1645193588.625,P16,D12,1,1,1
1053,-36.0,-11.0,51.0,1645193588.65625,P16,D12,1,1,1
1054,-36.0,-11.0,51.0,1645193588.6875,P16,D12,1,1,1
1055,-36.0,-11.0,51.0,1645193588.71875,P16,D12,1,1,1
1056,-36.0,-11.0,51.0,1645193588.75,P16,D12,1,1,1
1057,-36.0,-11.0,51.0,1645193588.78125,P16,D12,1,1,1
1058,-36.0,-11.0,51.0,1645193588.8125,P16,D12,1,1,1
1059,-36.0,-11.0,51.0,1645193588.84375,P16,D12,1,1,1
1060,-36.0,-11.0,51.0,1645193588.875,P16,D12,1,1,1
1061,-36.0,-11.0,51.0,1645193588.90625,P16,D12,1,1,1
1062,-36.0,-10.0,51.0,1645193588.9375,P16,D12,1,1,1
1063,-36.0,-10.0,51.0,1645193588.96875,P16,D12,1,1,1
1064,-36.0,-10.0,51.0,1645193589.0,P16,D12,1,1,1
1065,-36.0,-11.0,51.0,1645193589.03125,P16,D12,1,1,1
1066,-36.0,-11.0,51.0,1645193589.0625,P16,D12,1,1,1
1067,-36.0,-11.0,51.0,1645193589.09375,P16,D12,1,1,1
1068,-36.0,-11.0,51.0,1645193589.125,P16,D12,1,1,1
1069,-36.0,-11.0,51.0,1645193589.15625,P16,D12,1,1,1
1070,-36.0,-11.0,51.0,1645193589.1875,P16,D12,1,1,1
1071,-36.0,-11.0,51.0,1645193589.21875,P16,D12,1,1,1
1072,-36.0,-11.0,51.0,1645193589.25,P16,D12,1,1,1
1073,-36.0,-11.0,51.0,1645193589.28125,P16,D12,1,1,1
1074,-36.0,-11.0,51.0,1645193589.3125,P16,D12,1,1,1
1075,-36.0,-11.0,51.0,1645193589.34375,P16,D12,1,1,1
1076,-36.0,-11.0,51.0,1645193589.375,P16,D12,1,1,1
1077,-36.0,-11.0,51.0,1645193589.40625,P16,D12,1,1,1
1078,-36.0,-11.0,51.0,1645193589.4375,P16,D12,1,1,1
1079,-36.0,-11.0,51.0,1645193589.46875,P16,D12,1,1,1
1080,-36.0,-11.0,51.0,1645193589.5,P16,D12,1,1,1
1081,-36.0,-11.0,51.0,1645193589.53125,P16,D12,1,1,1
1082,-36.0,-11.0,51.0,1645193589.5625,P16,D12,1,1,1
1083,-36.0,-11.0,51.0,1645193589.59375,P16,D12,1,1,1
1084,-36.0,-11.0,51.0,1645193589.625,P16,D12,1,1,1
1085,-36.0,-11.0,51.0,1645193589.65625,P16,D12,1,1,1
1086,-36.0,-11.0,51.0,1645193589.6875,P16,D12,1,1,1
1087,-36.0,-11.0,51.0,1645193589.71875,P16,D12,1,1,1
1088,-36.0,-11.0,51.0,1645193589.75,P16,D12,1,1,1
1089,-36.0,-11.0,51.0,1645193589.78125,P16,D12,1,1,1
1090,-36.0,-11.0,51.0,1645193589.8125,P16,D12,1,1,1
1091,-36.0,-11.0,51.0,1645193589.84375,P16,D12,1,1,1
1092,-36.0,-11.0,51.0,1645193589.875,P16,D12,1,1,1
1093,-36.0,-11.0,51.0,1645193589.90625,P16,D12,1,1,1
1094,-36.0,-11.0,51.0,1645193589.9375,P16,D12,1,1,1
1095,-36.0,-11.0,51.0,1645193589.96875,P16,D12,1,1,1
1096,-36.0,-11.0,51.0,1645193590.0,P16,D12,1,1,1
1097,-36.0,-11.0,51.0,1645193590.03125,P16,D12,1,1,1
1098,-36.0,-11.0,51.0,1645193590.0625,P16,D12,1,1,1
1099,-36.0,-11.0,51.0,1645193590.09375,P16,D12,1,1,1
1100,-36.0,-11.0,51.0,1645193590.125,P16,D12,1,1,1
1101,-36.0,-11.0,51.0,1645193590.15625,P16,D12,1,1,1
1102,-36.0,-11.0,51.0,1645193590.1875,P16,D12,1,1,1
1103,-36.0,-11.0,51.0,1645193590.21875,P16,D12,1,1,1
1104,-36.0,-11.0,51.0,1645193590.25,P16,D12,1,1,1
1105,-36.0,-11.0,51.0,1645193590.28125,P16,D12,1,1,1
1106,-36.0,-11.0,51.0,1645193590.3125,P16,D12,1,1,1
1107,-36.0,-11.0,51.0,1645193590.34375,P16,D12,1,1,1
1108,-36.0,-11.0,51.0,1645193590.375,P16,D12,1,1,1
1109,-36.0,-11.0,51.0,1645193590.40625,P16,D12,1,1,1
1110,-36.0,-11.0,51.0,1645193590.4375,P16,D12,1,1,1
1111,-36.0,-11.0,51.0,1645193590.46875,P16,D12,1,1,1
1112,-36.0,-11.0,51.0,1645193590.5,P16,D12,1,1,1
1113,-36.0,-12.0,51.0,1645193590.53125,P16,D12,1,1,1
1114,-36.0,-11.0,51.0,1645193590.5625,P16,D12,1,1,1
1115,-36.0,-11.0,51.0,1645193590.59375,P16,D12,1,1,1
1116,-37.0,-11.0,51.0,1645193590.625,P16,D12,1,1,1
1117,-36.0,-11.0,51.0,1645193590.65625,P16,D12,1,1,1
1118,-36.0,-11.0,51.0,1645193590.6875,P16,D12,1,1,1
1119,-37.0,-11.0,51.0,1645193590.71875,P16,D12,1,1,1
1120,-36.0,-11.0,51.0,1645193590.75,P16,D12,1,1,1
1121,-36.0,-11.0,51.0,1645193590.78125,P16,D12,1,1,1
1122,-36.0,-11.0,51.0,1645193590.8125,P16,D12,1,1,1
1123,-36.0,-11.0,51.0,1645193590.84375,P16,D12,1,1,1
1124,-37.0,-11.0,51.0,1645193590.875,P16,D12,1,1,1
1125,-36.0,-11.0,51.0,1645193590.90625,P16,D12,1,1,1
1126,-36.0,-11.0,51.0,1645193590.9375,P16,D12,1,1,1
1127,-36.0,-11.0,51.0,1645193590.96875,P16,D12,1,1,1
1128,-36.0,-11.0,51.0,1645193591.0,P16,D12,1,1,1
1129,-36.0,-11.0,51.0,1645193591.03125,P16,D12,1,1,1
1130,-36.0,-11.0,51.0,1645193591.0625,P16,D12,1,1,1
1131,-36.0,-11.0,51.0,1645193591.09375,P16,D12,1,1,1
1132,-36.0,-11.0,51.0,1645193591.125,P16,D12,1,1,1
1133,-37.0,-11.0,51.0,1645193591.15625,P16,D12,1,1,1
1134,-36.0,-11.0,51.0,1645193591.1875,P16,D12,1,1,1
1135,-36.0,-11.0,51.0,1645193591.21875,P16,D12,1,1,1
1136,-36.0,-11.0,51.0,1645193591.25,P16,D12,1,1,1
1137,-36.0,-11.0,51.0,1645193591.28125,P16,D12,1,1,1
1138,-36.0,-11.0,51.0,1645193591.3125,P16,D12,1,1,1
1139,-36.0,-11.0,51.0,1645193591.34375,P16,D12,1,1,1
1140,-36.0,-11.0,51.0,1645193591.375,P16,D12,1,1,1
1141,-36.0,-11.0,51.0,1645193591.40625,P16,D12,1,1,1
1142,-36.0,-11.0,51.0,1645193591.4375,P16,D12,1,1,1
1143,-36.0,-10.0,51.0,1645193591.46875,P16,D12,1,1,1
1144,-36.0,-10.0,51.0,1645193591.5,P16,D12,1,1,1
1145,-36.0,-10.0,51.0,1645193591.53125,P16,D12,1,1,1
1146,-36.0,-11.0,51.0,1645193591.5625,P16,D12,1,1,1
1147,-36.0,-10.0,52.0,1645193591.59375,P16,D12,1,1,1
1148,-36.0,-10.0,51.0,1645193591.625,P16,D12,1,1,1
1149,-36.0,-10.0,51.0,1645193591.65625,P16,D12,1,1,1
1150,-36.0,-10.0,51.0,1645193591.6875,P16,D12,1,1,1
1151,-36.0,-10.0,51.0,1645193591.71875,P16,D12,1,1,1
1152,-36.0,-10.0,51.0,1645193591.75,P16,D12,1,1,1
1153,-36.0,-10.0,51.0,1645193591.78125,P16,D12,1,1,1
1154,-36.0,-10.0,51.0,1645193591.8125,P16,D12,1,1,1
1155,-36.0,-10.0,51.0,1645193591.84375,P16,D12,1,1,1
1156,-36.0,-10.0,51.0,1645193591.875,P16,D12,1,1,1
1157,-36.0,-10.0,51.0,1645193591.90625,P16,D12,1,1,1
1158,-36.0,-10.0,51.0,1645193591.9375,P16,D12,1,1,1
1159,-36.0,-10.0,51.0,1645193591.96875,P16,D12,1,1,1
1160,-36.0,-10.0,51.0,1645193592.0,P16,D12,1,1,1
1161,-36.0,-10.0,51.0,1645193592.03125,P16,D12,1,1,1
1162,-36.0,-10.0,51.0,1645193592.0625,P16,D12,1,1,1
1163,-36.0,-10.0,51.0,1645193592.09375,P16,D12,1,1,1
1164,-36.0,-10.0,51.0,1645193592.125,P16,D12,1,1,1
1165,-36.0,-10.0,51.0,1645193592.15625,P16,D12,1,1,1
1166,-36.0,-10.0,51.0,1645193592.1875,P16,D12,1,1,1
1167,-36.0,-10.0,51.0,1645193592.21875,P16,D12,1,1,1
1168,-36.0,-10.0,51.0,1645193592.25,P16,D12,1,1,1
1169,-36.0,-10.0,51.0,1645193592.28125,P16,D12,1,1,1
1170,-36.0,-10.0,51.0,1645193592.3125,P16,D12,1,1,1
1171,-36.0,-10.0,51.0,1645193592.34375,P16,D12,1,1,1
1172,-36.0,-10.0,51.0,1645193592.375,P16,D12,1,1,1
1173,-36.0,-10.0,51.0,1645193592.40625,P16,D12,1,1,1
1174,-36.0,-10.0,51.0,1645193592.4375,P16,D12,1,1,1
1175,-36.0,-11.0,51.0,1645193592.46875,P16,D12,1,1,1
1176,-36.0,-11.0,51.0,1645193592.5,P16,D12,1,1,1
1177,-36.0,-11.0,51.0,1645193592.53125,P16,D12,1,1,1
1178,-36.0,-11.0,51.0,1645193592.5625,P16,D12,1,1,1
1179,-36.0,-11.0,51.0,1645193592.59375,P16,D12,1,1,1
1180,-36.0,-11.0,51.0,1645193592.625,P16,D12,1,1,1
1181,-36.0,-11.0,51.0,1645193592.65625,P16,D12,1,1,1
1182,-36.0,-11.0,51.0,1645193592.6875,P16,D12,1,1,1
1183,-36.0,-11.0,51.0,1645193592.71875,P16,D12,1,1,1
1184,-36.0,-11.0,51.0,1645193592.75,P16,D12,1,1,1
1185,-36.0,-11.0,51.0,1645193592.78125,P16,D12,1,1,1
1186,-36.0,-11.0,51.0,1645193592.8125,P16,D12,1,1,1
1187,-36.0,-11.0,51.0,1645193592.84375,P16,D12,1,1,1
1188,-36.0,-11.0,51.0,1645193592.875,P16,D12,1,1,1
1189,-36.0,-11.0,51.0,1645193592.90625,P16,D12,1,1,1
1190,-36.0,-11.0,51.0,1645193592.9375,P16,D12,1,1,1
1191,-36.0,-11.0,51.0,1645193592.96875,P16,D12,1,1,1
1192,-36.0,-11.0,51.0,1645193593.0,P16,D12,1,1,1
1193,-36.0,-11.0,51.0,1645193593.03125,P16,D12,1,1,1
1194,-36.0,-11.0,51.0,1645193593.0625,P16,D12,1,1,1
1195,-36.0,-11.0,51.0,1645193593.09375,P16,D12,1,1,1
1196,-36.0,-11.0,51.0,1645193593.125,P16,D12,1,1,1
1197,-36.0,-11.0,51.0,1645193593.15625,P16,D12,1,1,1
1198,-36.0,-11.0,51.0,1645193593.1875,P16,D12,1,1,1
1199,-36.0,-11.0,51.0,1645193593.21875,P16,D12,1,1,1
1200,-36.0,-11.0,51.0,1645193593.25,P16,D12,1,1,1
1201,-36.0,-11.0,51.0,1645193593.28125,P16,D12,1,1,1
1202,-36.0,-11.0,51.0,1645193593.3125,P16,D12,1,1,1
1203,-36.0,-11.0,51.0,1645193593.34375,P16,D12,1,1,1
1204,-36.0,-11.0,51.0,1645193593.375,P16,D12,1,1,1
1205,-36.0,-11.0,51.0,1645193593.40625,P16,D12,1,1,1
1206,-36.0,-11.0,51.0,1645193593.4375,P16,D12,1,1,1
1207,-36.0,-11.0,51.0,1645193593.46875,P16,D12,1,1,1
1208,-36.0,-11.0,51.0,1645193593.5,P16,D12,1,1,1
1209,-36.0,-11.0,51.0,1645193593.53125,P16,D12,1,1,1
1210,-36.0,-11.0,51.0,1645193593.5625,P16,D12,1,1,1
1211,-36.0,-11.0,51.0,1645193593.59375,P16,D12,1,1,1
1212,-36.0,-11.0,51.0,1645193593.625,P16,D12,1,1,1
1213,-36.0,-11.0,51.0,1645193593.65625,P16,D12,1,1,1
1214,-36.0,-11.0,51.0,1645193593.6875,P16,D12,1,1,1
1215,-36.0,-11.0,51.0,1645193593.71875,P16,D12,1,1,1
1216,-36.0,-11.0,51.0,1645193593.75,P16,D12,1,1,1
1217,-36.0,-11.0,51.0,1645193593.78125,P16,D12,1,1,1
1218,-36.0,-11.0,51.0,1645193593.8125,P16,D12,1,1,1
1219,-36.0,-11.0,51.0,1645193593.84375,P16,D12,1,1,1
1220,-36.0,-11.0,51.0,1645193593.875,P16,D12,1,1,1
1221,-36.0,-11.0,51.0,1645193593.90625,P16,D12,1,1,1
1222,-36.0,-11.0,51.0,1645193593.9375,P16,D12,1,1,1
1223,-36.0,-11.0,51.0,1645193593.96875,P16,D12,1,1,1
1224,-36.0,-11.0,51.0,1645193594.0,P16,D12,1,1,1
1225,-36.0,-11.0,51.0,1645193594.03125,P16,D12,1,1,1
1226,-36.0,-11.0,51.0,1645193594.0625,P16,D12,1,1,1
1227,-36.0,-11.0,51.0,1645193594.09375,P16,D12,1,1,1
1228,-37.0,-11.0,51.0,1645193594.125,P16,D12,1,1,1
1229,-36.0,-11.0,51.0,1645193594.15625,P16,D12,1,1,1
1230,-36.0,-11.0,51.0,1645193594.1875,P16,D12,1,1,1
1231,-36.0,-11.0,51.0,1645193594.21875,P16,D12,1,1,1
1232,-36.0,-11.0,51.0,1645193594.25,P16,D12,1,1,1
1233,-36.0,-11.0,51.0,1645193594.28125,P16,D12,1,1,1
1234,-37.0,-11.0,51.0,1645193594.3125,P16,D12,1,1,1
1235,-36.0,-11.0,51.0,1645193594.34375,P16,D12,1,1,1
1236,-36.0,-11.0,51.0,1645193594.375,P16,D12,1,1,1
1237,-36.0,-11.0,51.0,1645193594.40625,P16,D12,1,1,1
1238,-36.0,-11.0,51.0,1645193594.4375,P16,D12,1,1,1
1239,-36.0,-11.0,51.0,1645193594.46875,P16,D12,1,1,1
1240,-36.0,-11.0,51.0,1645193594.5,P16,D12,1,1,1
1241,-36.0,-11.0,51.0,1645193594.53125,P16,D12,1,1,1
1242,-36.0,-11.0,51.0,1645193594.5625,P16,D12,1,1,1
1243,-36.0,-11.0,51.0,1645193594.59375,P16,D12,1,1,1
1244,-36.0,-11.0,51.0,1645193594.625,P16,D12,1,1,1
1245,-36.0,-11.0,51.0,1645193594.65625,P16,D12,1,1,1
1246,-36.0,-11.0,51.0,1645193594.6875,P16,D12,1,1,1
1247,-36.0,-11.0,51.0,1645193594.71875,P16,D12,1,1,1
1248,-36.0,-11.0,51.0,1645193594.75,P16,D12,1,1,1
1249,-37.0,-11.0,51.0,1645193594.78125,P16,D12,1,1,1
1250,-36.0,-11.0,51.0,1645193594.8125,P16,D12,1,1,1
1251,-36.0,-11.0,51.0,1645193594.84375,P16,D12,1,1,1
1252,-36.0,-11.0,51.0,1645193594.875,P16,D12,1,1,1
1253,-36.0,-11.0,51.0,1645193594.90625,P16,D12,1,1,1
1254,-36.0,-11.0,51.0,1645193594.9375,P16,D12,1,1,1
1255,-36.0,-11.0,50.0,1645193594.96875,P16,D12,1,1,1
1256,-36.0,-11.0,51.0,1645193595.0,P16,D12,1,1,1
1257,-36.0,-11.0,51.0,1645193595.03125,P16,D12,1,1,1
1258,-36.0,-11.0,51.0,1645193595.0625,P16,D12,1,1,1
1259,-36.0,-11.0,51.0,1645193595.09375,P16,D12,1,1,1
1260,-36.0,-11.0,51.0,1645193595.125,P16,D12,1,1,1
1261,-37.0,-11.0,51.0,1645193595.15625,P16,D12,1,1,1
1262,-36.0,-11.0,51.0,1645193595.1875,P16,D12,1,1,1
1263,-37.0,-11.0,51.0,1645193595.21875,P16,D12,1,1,1
1264,-37.0,-11.0,51.0,1645193595.25,P16,D12,1,1,1
1265,-36.0,-11.0,51.0,1645193595.28125,P16,D12,1,1,1
1266,-36.0,-11.0,51.0,1645193595.3125,P16,D12,1,1,1
1267,-36.0,-11.0,51.0,1645193595.34375,P16,D12,1,1,1
1268,-36.0,-11.0,51.0,1645193595.375,P16,D12,1,1,1
1269,-36.0,-11.0,51.0,1645193595.40625,P16,D12,1,1,1
1270,-37.0,-11.0,51.0,1645193595.4375,P16,D12,1,1,1
1271,-37.0,-11.0,51.0,1645193595.46875,P16,D12,1,1,1
1272,-37.0,-11.0,51.0,1645193595.5,P16,D12,1,1,1
1273,-37.0,-11.0,51.0,1645193595.53125,P16,D12,1,1,1
1274,-37.0,-11.0,51.0,1645193595.5625,P16,D12,1,1,1
1275,-37.0,-11.0,51.0,1645193595.59375,P16,D12,1,1,1
1276,-37.0,-11.0,51.0,1645193595.625,P16,D12,1,1,1
1277,-37.0,-11.0,51.0,1645193595.65625,P16,D12,1,1,1
1278,-37.0,-11.0,51.0,1645193595.6875,P16,D12,1,1,1
1279,-37.0,-11.0,51.0,1645193595.71875,P16,D12,1,1,1
1280,-37.0,-11.0,51.0,1645193595.75,P16,D12,1,1,1
1281,-36.0,-12.0,51.0,1645193595.78125,P16,D12,1,1,1
1282,-36.0,-12.0,51.0,1645193595.8125,P16,D12,1,1,1
1283,-37.0,-12.0,51.0,1645193595.84375,P16,D12,1,1,1
1284,-36.0,-11.0,50.0,1645193595.875,P16,D12,1,1,1
1285,-37.0,-11.0,50.0,1645193595.90625,P16,D12,1,1,1
1286,-37.0,-10.0,50.0,1645193595.9375,P16,D12,1,1,1
1287,-36.0,-11.0,51.0,1645193595.96875,P16,D12,1,1,1
1288,-36.0,-11.0,50.0,1645193596.0,P16,D12,1,1,1
1289,-38.0,-12.0,50.0,1645193596.03125,P16,D12,1,1,1
1290,-34.0,-12.0,52.0,1645193596.0625,P16,D12,1,1,1
1291,-36.0,-11.0,51.0,1645193596.09375,P16,D12,1,1,1
1292,-38.0,-11.0,50.0,1645193596.125,P16,D12,1,1,1
1293,-35.0,-11.0,52.0,1645193596.15625,P16,D12,1,1,1
1294,-37.0,-10.0,50.0,1645193596.1875,P16,D12,1,1,1
1295,-36.0,-11.0,51.0,1645193596.21875,P16,D12,1,1,1
1296,-34.0,-11.0,52.0,1645193596.25,P16,D12,1,1,1
1297,-38.0,-11.0,50.0,1645193596.28125,P16,D12,1,1,1
1298,-38.0,-11.0,50.0,1645193596.3125,P16,D12,1,1,1
1299,-35.0,-11.0,52.0,1645193596.34375,P16,D12,1,1,1
1300,-36.0,-10.0,51.0,1645193596.375,P16,D12,1,1,1
1301,-37.0,-11.0,51.0,1645193596.40625,P16,D12,1,1,1
