,acc_x,acc_y,acc_z,timestamp,participant,document,val,arou,eng
0,-36.0,-9.0,52.0,1645192620.46875,P16,D07,1,1,0
1,-36.0,-9.0,51.0,1645192620.5,P16,D07,1,1,0
2,-36.0,-9.0,52.0,1645192620.53125,P16,D07,1,1,0
3,-36.0,-9.0,52.0,1645192620.5625,P16,D07,1,1,0
4,-36.0,-9.0,52.0,1645192620.59375,P16,D07,1,1,0
5,-36.0,-9.0,52.0,1645192620.625,P16,D07,1,1,0
6,-36.0,-9.0,52.0,1645192620.65625,P16,D07,1,1,0
7,-36.0,-9.0,52.0,1645192620.6875,P16,D07,1,1,0
8,-36.0,-9.0,51.0,1645192620.71875,P16,D07,1,1,0
9,-36.0,-9.0,52.0,1645192620.75,P16,D07,1,1,0
10,-36.0,-9.0,52.0,1645192620.78125,P16,D07,1,1,0
11,-36.0,-9.0,52.0,1645192620.8125,P16,D07,1,1,0
12,-36.0,-9.0,52.0,1645192620.84375,P16,D07,1,1,0
13,-36.0,-9.0,52.0,1645192620.875,P16,D07,1,1,0
14,-36.0,-9.0,52.0,1645192620.90625,P16,D07,1,1,0
15,-36.0,-9.0,52.0,1645192620.9375,P16,D07,1,1,0
16,-36.0,-9.0,51.0,1645192620.96875,P16,D07,1,1,0
17,-36.0,-9.0,51.0,1645192621.0,P16,D07,1,1,0
18,-36.0,-9.0,52.0,1645192621.03125,P16,D07,1,1,0
19,-36.0,-9.0,51.0,1645192621.0625,P16,D07,1,1,0
20,-36.0,-9.0,52.0,1645192621.09375,P16,D07,1,1,0
21,-36.0,-9.0,51.0,1645192621.125,P16,D07,1,1,0
22,-36.0,-9.0,51.0,1645192621.15625,P16,D07,1,1,0
23,-36.0,-9.0,51.0,1645192621.1875,P16,D07,1,1,0
24,-36.0,-9.0,51.0,1645192621.21875,P16,D07,1,1,0
25,-36.0,-9.0,52.0,1645192621.25,P16,D07,1,1,0
26,-36.0,-8.0,51.0,1645192621.28125,P16,D07,1,1,0
27,-36.0,-9.0,51.0,1645192621.3125,P16,D07,1,1,0
28,-36.0,-9.0,52.0,1645192621.34375,P16,D07,1,1,0
29,-36.0,-9.0,51.0,1645192621.375,P16,D07,1,1,0
30,-36.0,-9.0,52.0,1645192621.40625,P16,D07,1,1,0
31,-36.0,-9.0,52.0,1645192621.4375,P16,D07,1,1,0
32,-36.0,-9.0,52.0,1645192621.46875,P16,D07,1,1,0
33,-36.0,-9.0,51.0,1645192621.5,P16,D07,1,1,0
34,-36.0,-9.0,52.0,1645192621.53125,P16,D07,1,1,0
35,-36.0,-9.0,52.0,1645192621.5625,P16,D07,1,1,0
36,-36.0,-9.0,52.0,1645192621.59375,P16,D07,1,1,0
37,-36.0,-9.0,52.0,1645192621.625,P16,D07,1,1,0
38,-36.0,-8.0,51.0,1645192621.65625,P16,D07,1,1,0
39,-36.0,-9.0,52.0,1645192621.6875,P16,D07,1,1,0
40,-36.0,-9.0,52.0,1645192621.71875,P16,D07,1,1,0
41,-36.0,-9.0,52.0,1645192621.75,P16,D07,1,1,0
42,-36.0,-8.0,52.0,1645192621.78125,P16,D07,1,1,0
43,-36.0,-8.0,52.0,1645192621.8125,P16,D07,1,1,0
44,-36.0,-8.0,52.0,1645192621.84375,P16,D07,1,1,0
45,-36.0,-8.0,52.0,1645192621.875,P16,D07,1,1,0
46,-36.0,-9.0,52.0,1645192621.90625,P16,D07,1,1,0
47,-35.0,-9.0,52.0,1645192621.9375,P16,D07,1,1,0
48,-36.0,-9.0,51.0,1645192621.96875,P16,D07,1,1,0
49,-36.0,-9.0,52.0,1645192622.0,P16,D07,1,1,0
50,-36.0,-9.0,52.0,1645192622.03125,P16,D07,1,1,0
51,-36.0,-8.0,52.0,1645192622.0625,P16,D07,1,1,0
52,-36.0,-8.0,52.0,1645192622.09375,P16,D07,1,1,0
53,-36.0,-9.0,52.0,1645192622.125,P16,D07,1,1,0
54,-36.0,-9.0,52.0,1645192622.15625,P16,D07,1,1,0
55,-36.0,-8.0,52.0,1645192622.1875,P16,D07,1,1,0
56,-36.0,-8.0,52.0,1645192622.21875,P16,D07,1,1,0
57,-36.0,-8.0,51.0,1645192622.25,P16,D07,1,1,0
58,-37.0,-8.0,51.0,1645192622.28125,P16,D07,1,1,0
59,-36.0,-9.0,52.0,1645192622.3125,P16,D07,1,1,0
60,-36.0,-9.0,52.0,1645192622.34375,P16,D07,1,1,0
61,-36.0,-8.0,52.0,1645192622.375,P16,D07,1,1,0
62,-36.0,-8.0,52.0,1645192622.40625,P16,D07,1,1,0
63,-36.0,-9.0,52.0,1645192622.4375,P16,D07,1,1,0
64,-36.0,-8.0,52.0,1645192622.46875,P16,D07,1,1,0
65,-36.0,-8.0,52.0,1645192622.5,P16,D07,1,1,0
66,-36.0,-9.0,52.0,1645192622.53125,P16,D07,1,1,0
67,-36.0,-8.0,52.0,1645192622.5625,P16,D07,1,1,0
68,-36.0,-8.0,52.0,1645192622.59375,P16,D07,1,1,0
69,-36.0,-8.0,52.0,1645192622.625,P16,D07,1,1,0
70,-36.0,-8.0,52.0,1645192622.65625,P16,D07,1,1,0
71,-36.0,-8.0,51.0,1645192622.6875,P16,D07,1,1,0
72,-36.0,-9.0,52.0,1645192622.71875,P16,D07,1,1,0
73,-36.0,-9.0,52.0,1645192622.75,P16,D07,1,1,0
74,-35.0,-9.0,52.0,1645192622.78125,P16,D07,1,1,0
75,-35.0,-9.0,51.0,1645192622.8125,P16,D07,1,1,0
76,-36.0,-9.0,51.0,1645192622.84375,P16,D07,1,1,0
77,-36.0,-8.0,51.0,1645192622.875,P16,D07,1,1,0
78,-36.0,-9.0,51.0,1645192622.90625,P16,D07,1,1,0
79,-36.0,-9.0,51.0,1645192622.9375,P16,D07,1,1,0
80,-36.0,-9.0,52.0,1645192622.96875,P16,D07,1,1,0
81,-36.0,-10.0,51.0,1645192623.0,P16,D07,1,1,0
82,-36.0,-9.0,51.0,1645192623.03125,P16,D07,1,1,0
83,-37.0,-9.0,51.0,1645192623.0625,P16,D07,1,1,0
84,-37.0,-9.0,51.0,1645192623.09375,P16,D07,1,1,0
85,-37.0,-9.0,52.0,1645192623.125,P16,D07,1,1,0
86,-37.0,-9.0,51.0,1645192623.15625,P16,D07,1,1,0
87,-38.0,-9.0,50.0,1645192623.1875,P16,D07,1,1,0
88,-37.0,-9.0,51.0,1645192623.21875,P16,D07,1,1,0
89,-37.0,-10.0,51.0,1645192623.25,P16,D07,1,1,0
90,-38.0,-10.0,51.0,1645192623.28125,P16,D07,1,1,0
91,-37.0,-9.0,51.0,1645192623.3125,P16,D07,1,1,0
92,-37.0,-9.0,51.0,1645192623.34375,P16,D07,1,1,0
93,-37.0,-9.0,51.0,1645192623.375,P16,D07,1,1,0
94,-36.0,-8.0,52.0,1645192623.40625,P16,D07,1,1,0
95,-35.0,-8.0,52.0,1645192623.4375,P16,D07,1,1,0
96,-36.0,-7.0,52.0,1645192623.46875,P16,D07,1,1,0
97,-35.0,-8.0,52.0,1645192623.5,P16,D07,1,1,0
98,-36.0,-7.0,51.0,1645192623.53125,P16,D07,1,1,0
99,-34.0,-7.0,52.0,1645192623.5625,P16,D07,1,1,0
100,-37.0,-6.0,51.0,1645192623.59375,P16,D07,1,1,0
101,-37.0,-5.0,51.0,1645192623.625,P16,D07,1,1,0
102,-36.0,-5.0,51.0,1645192623.65625,P16,D07,1,1,0
103,-35.0,-6.0,52.0,1645192623.6875,P16,D07,1,1,0
104,-35.0,-6.0,52.0,1645192623.71875,P16,D07,1,1,0
105,-36.0,-7.0,52.0,1645192623.75,P16,D07,1,1,0
106,-36.0,-7.0,52.0,1645192623.78125,P16,D07,1,1,0
107,-35.0,-7.0,52.0,1645192623.8125,P16,D07,1,1,0
108,-35.0,-7.0,53.0,1645192623.84375,P16,D07,1,1,0
109,-36.0,-7.0,52.0,1645192623.875,P16,D07,1,1,0
110,-35.0,-6.0,52.0,1645192623.90625,P16,D07,1,1,0
111,-35.0,-7.0,52.0,1645192623.9375,P16,D07,1,1,0
112,-36.0,-7.0,52.0,1645192623.96875,P16,D07,1,1,0
113,-36.0,-7.0,52.0,1645192624.0,P16,D07,1,1,0
114,-36.0,-7.0,52.0,1645192624.03125,P16,D07,1,1,0
115,-36.0,-7.0,52.0,1645192624.0625,P16,D07,1,1,0
116,-35.0,-8.0,52.0,1645192624.09375,P16,D07,1,1,0
117,-36.0,-8.0,52.0,1645192624.125,P16,D07,1,1,0
118,-36.0,-7.0,52.0,1645192624.15625,P16,D07,1,1,0
119,-36.0,-8.0,52.0,1645192624.1875,P16,D07,1,1,0
120,-36.0,-8.0,52.0,1645192624.21875,P16,D07,1,1,0
121,-36.0,-8.0,52.0,1645192624.25,P16,D07,1,1,0
122,-36.0,-8.0,52.0,1645192624.28125,P16,D07,1,1,0
123,-36.0,-8.0,52.0,1645192624.3125,P16,D07,1,1,0
124,-36.0,-8.0,52.0,1645192624.34375,P16,D07,1,1,0
125,-36.0,-8.0,52.0,1645192624.375,P16,D07,1,1,0
126,-36.0,-8.0,52.0,1645192624.40625,P16,D07,1,1,0
127,-38.0,-8.0,51.0,1645192624.4375,P16,D07,1,1,0
128,-38.0,-7.0,51.0,1645192624.46875,P16,D07,1,1,0
129,-34.0,-7.0,53.0,1645192624.5,P16,D07,1,1,0
130,-33.0,-8.0,53.0,1645192624.53125,P16,D07,1,1,0
131,-36.0,-8.0,52.0,1645192624.5625,P16,D07,1,1,0
132,-37.0,-7.0,52.0,1645192624.59375,P16,D07,1,1,0
133,-34.0,-8.0,53.0,1645192624.625,P16,D07,1,1,0
134,-35.0,-7.0,52.0,1645192624.65625,P16,D07,1,1,0
135,-35.0,-7.0,52.0,1645192624.6875,P16,D07,1,1,0
136,-36.0,-7.0,52.0,1645192624.71875,P16,D07,1,1,0
137,-35.0,-7.0,52.0,1645192624.75,P16,D07,1,1,0
138,-34.0,-7.0,53.0,1645192624.78125,P16,D07,1,1,0
139,-35.0,-8.0,53.0,1645192624.8125,P16,D07,1,1,0
140,-36.0,-7.0,52.0,1645192624.84375,P16,D07,1,1,0
141,-35.0,-8.0,53.0,1645192624.875,P16,D07,1,1,0
142,-35.0,-8.0,53.0,1645192624.90625,P16,D07,1,1,0
143,-34.0,-8.0,52.0,1645192624.9375,P16,D07,1,1,0
144,-36.0,-8.0,52.0,1645192624.96875,P16,D07,1,1,0
145,-35.0,-7.0,52.0,1645192625.0,P16,D07,1,1,0
146,-34.0,-8.0,52.0,1645192625.03125,P16,D07,1,1,0
147,-36.0,-8.0,52.0,1645192625.0625,P16,D07,1,1,0
148,-36.0,-8.0,52.0,1645192625.09375,P16,D07,1,1,0
149,-36.0,-8.0,52.0,1645192625.125,P16,D07,1,1,0
150,-35.0,-8.0,52.0,1645192625.15625,P16,D07,1,1,0
151,-36.0,-9.0,52.0,1645192625.1875,P16,D07,1,1,0
152,-36.0,-9.0,52.0,1645192625.21875,P16,D07,1,1,0
153,-36.0,-8.0,51.0,1645192625.25,P16,D07,1,1,0
154,-36.0,-9.0,52.0,1645192625.28125,P16,D07,1,1,0
155,-36.0,-8.0,52.0,1645192625.3125,P16,D07,1,1,0
156,-36.0,-8.0,52.0,1645192625.34375,P16,D07,1,1,0
157,-36.0,-8.0,52.0,1645192625.375,P16,D07,1,1,0
158,-36.0,-8.0,52.0,1645192625.40625,P16,D07,1,1,0
159,-37.0,-8.0,52.0,1645192625.4375,P16,D07,1,1,0
160,-36.0,-8.0,51.0,1645192625.46875,P16,D07,1,1,0
161,-36.0,-8.0,52.0,1645192625.5,P16,D07,1,1,0
162,-36.0,-8.0,52.0,1645192625.53125,P16,D07,1,1,0
163,-36.0,-8.0,52.0,1645192625.5625,P16,D07,1,1,0
164,-36.0,-7.0,52.0,1645192625.59375,P16,D07,1,1,0
165,-36.0,-7.0,52.0,1645192625.625,P16,D07,1,1,0
166,-36.0,-7.0,52.0,1645192625.65625,P16,D07,1,1,0
167,-36.0,-7.0,52.0,1645192625.6875,P16,D07,1,1,0
168,-35.0,-7.0,52.0,1645192625.71875,P16,D07,1,1,0
169,-36.0,-8.0,52.0,1645192625.75,P16,D07,1,1,0
170,-36.0,-8.0,52.0,1645192625.78125,P16,D07,1,1,0
171,-36.0,-7.0,52.0,1645192625.8125,P16,D07,1,1,0
172,-36.0,-7.0,52.0,1645192625.84375,P16,D07,1,1,0
173,-37.0,-7.0,51.0,1645192625.875,P16,D07,1,1,0
174,-37.0,-6.0,51.0,1645192625.90625,P16,D07,1,1,0
175,-37.0,-7.0,51.0,1645192625.9375,P16,D07,1,1,0
176,-37.0,-7.0,51.0,1645192625.96875,P16,D07,1,1,0
177,-37.0,-6.0,51.0,1645192626.0,P16,D07,1,1,0
178,-36.0,-7.0,52.0,1645192626.03125,P16,D07,1,1,0
179,-36.0,-7.0,52.0,1645192626.0625,P16,D07,1,1,0
180,-37.0,-7.0,51.0,1645192626.09375,P16,D07,1,1,0
181,-37.0,-6.0,51.0,1645192626.125,P16,D07,1,1,0
182,-36.0,-7.0,52.0,1645192626.15625,P16,D07,1,1,0
183,-36.0,-8.0,52.0,1645192626.1875,P16,D07,1,1,0
184,-37.0,-7.0,51.0,1645192626.21875,P16,D07,1,1,0
185,-37.0,-7.0,51.0,1645192626.25,P16,D07,1,1,0
186,-36.0,-7.0,52.0,1645192626.28125,P16,D07,1,1,0
187,-36.0,-7.0,51.0,1645192626.3125,P16,D07,1,1,0
188,-37.0,-7.0,51.0,1645192626.34375,P16,D07,1,1,0
189,-36.0,-7.0,51.0,1645192626.375,P16,D07,1,1,0
190,-36.0,-7.0,51.0,1645192626.40625,P16,D07,1,1,0
191,-36.0,-8.0,52.0,1645192626.4375,P16,D07,1,1,0
192,-36.0,-8.0,52.0,1645192626.46875,P16,D07,1,1,0
193,-37.0,-8.0,51.0,1645192626.5,P16,D07,1,1,0
194,-36.0,-8.0,51.0,1645192626.53125,P16,D07,1,1,0
195,-36.0,-8.0,52.0,1645192626.5625,P16,D07,1,1,0
196,-36.0,-8.0,52.0,1645192626.59375,P16,D07,1,1,0
197,-37.0,-8.0,51.0,1645192626.625,P16,D07,1,1,0
198,-37.0,-8.0,51.0,1645192626.65625,P16,D07,1,1,0
199,-36.0,-8.0,51.0,1645192626.6875,P16,D07,1,1,0
200,-36.0,-8.0,52.0,1645192626.71875,P16,D07,1,1,0
201,-36.0,-8.0,52.0,1645192626.75,P16,D07,1,1,0
202,-36.0,-7.0,51.0,1645192626.78125,P16,D07,1,1,0
203,-36.0,-7.0,51.0,1645192626.8125,P16,D07,1,1,0
204,-36.0,-8.0,51.0,1645192626.84375,P16,D07,1,1,0
205,-36.0,-8.0,51.0,1645192626.875,P16,D07,1,1,0
206,-36.0,-8.0,52.0,1645192626.90625,P16,D07,1,1,0
207,-36.0,-8.0,52.0,1645192626.9375,P16,D07,1,1,0
208,-36.0,-8.0,52.0,1645192626.96875,P16,D07,1,1,0
209,-37.0,-8.0,52.0,1645192627.0,P16,D07,1,1,0
210,-36.0,-8.0,52.0,1645192627.03125,P16,D07,1,1,0
211,-36.0,-8.0,52.0,1645192627.0625,P16,D07,1,1,0
212,-36.0,-8.0,52.0,1645192627.09375,P16,D07,1,1,0
213,-36.0,-8.0,52.0,1645192627.125,P16,D07,1,1,0
214,-36.0,-8.0,51.0,1645192627.15625,P16,D07,1,1,0
215,-36.0,-8.0,52.0,1645192627.1875,P16,D07,1,1,0
216,-35.0,-8.0,52.0,1645192627.21875,P16,D07,1,1,0
217,-34.0,-9.0,53.0,1645192627.25,P16,D07,1,1,0
218,-35.0,-8.0,53.0,1645192627.28125,P16,D07,1,1,0
219,-34.0,-8.0,52.0,1645192627.3125,P16,D07,1,1,0
220,-35.0,-9.0,52.0,1645192627.34375,P16,D07,1,1,0
221,-35.0,-9.0,52.0,1645192627.375,P16,D07,1,1,0
222,-35.0,-8.0,52.0,1645192627.40625,P16,D07,1,1,0
223,-34.0,-7.0,53.0,1645192627.4375,P16,D07,1,1,0
224,-36.0,-8.0,52.0,1645192627.46875,P16,D07,1,1,0
225,-36.0,-9.0,51.0,1645192627.5,P16,D07,1,1,0
226,-36.0,-9.0,52.0,1645192627.53125,P16,D07,1,1,0
227,-36.0,-8.0,52.0,1645192627.5625,P16,D07,1,1,0
228,-36.0,-8.0,52.0,1645192627.59375,P16,D07,1,1,0
229,-36.0,-8.0,52.0,1645192627.625,P16,D07,1,1,0
230,-35.0,-8.0,52.0,1645192627.65625,P16,D07,1,1,0
231,-34.0,-8.0,52.0,1645192627.6875,P16,D07,1,1,0
232,-37.0,-9.0,51.0,1645192627.71875,P16,D07,1,1,0
233,-36.0,-8.0,51.0,1645192627.75,P16,D07,1,1,0
234,-36.0,-8.0,52.0,1645192627.78125,P16,D07,1,1,0
235,-35.0,-8.0,52.0,1645192627.8125,P16,D07,1,1,0
236,-36.0,-8.0,52.0,1645192627.84375,P16,D07,1,1,0
237,-36.0,-8.0,52.0,1645192627.875,P16,D07,1,1,0
238,-36.0,-7.0,51.0,1645192627.90625,P16,D07,1,1,0
239,-36.0,-7.0,51.0,1645192627.9375,P16,D07,1,1,0
240,-36.0,-7.0,51.0,1645192627.96875,P16,D07,1,1,0
241,-36.0,-8.0,52.0,1645192628.0,P16,D07,1,1,0
242,-36.0,-7.0,52.0,1645192628.03125,P16,D07,1,1,0
243,-36.0,-7.0,52.0,1645192628.0625,P16,D07,1,1,0
244,-36.0,-7.0,52.0,1645192628.09375,P16,D07,1,1,0
245,-36.0,-7.0,52.0,1645192628.125,P16,D07,1,1,0
246,-36.0,-7.0,52.0,1645192628.15625,P16,D07,1,1,0
247,-36.0,-7.0,52.0,1645192628.1875,P16,D07,1,1,0
248,-36.0,-7.0,52.0,1645192628.21875,P16,D07,1,1,0
249,-36.0,-7.0,51.0,1645192628.25,P16,D07,1,1,0
250,-36.0,-7.0,52.0,1645192628.28125,P16,D07,1,1,0
251,-37.0,-7.0,51.0,1645192628.3125,P16,D07,1,1,0
252,-36.0,-7.0,52.0,1645192628.34375,P16,D07,1,1,0
253,-36.0,-7.0,52.0,1645192628.375,P16,D07,1,1,0
254,-36.0,-7.0,52.0,1645192628.40625,P16,D07,1,1,0
255,-36.0,-7.0,52.0,1645192628.4375,P16,D07,1,1,0
256,-36.0,-6.0,52.0,1645192628.46875,P16,D07,1,1,0
257,-36.0,-6.0,52.0,1645192628.5,P16,D07,1,1,0
258,-36.0,-6.0,52.0,1645192628.53125,P16,D07,1,1,0
259,-36.0,-6.0,52.0,1645192628.5625,P16,D07,1,1,0
260,-36.0,-6.0,52.0,1645192628.59375,P16,D07,1,1,0
261,-36.0,-6.0,52.0,1645192628.625,P16,D07,1,1,0
262,-36.0,-6.0,52.0,1645192628.65625,P16,D07,1,1,0
263,-36.0,-6.0,51.0,1645192628.6875,P16,D07,1,1,0
264,-36.0,-7.0,52.0,1645192628.71875,P16,D07,1,1,0
265,-37.0,-7.0,52.0,1645192628.75,P16,D07,1,1,0
266,-36.0,-7.0,51.0,1645192628.78125,P16,D07,1,1,0
267,-37.0,-7.0,52.0,1645192628.8125,P16,D07,1,1,0
268,-36.0,-7.0,52.0,1645192628.84375,P16,D07,1,1,0
269,-36.0,-7.0,51.0,1645192628.875,P16,D07,1,1,0
270,-37.0,-7.0,51.0,1645192628.90625,P16,D07,1,1,0
271,-36.0,-7.0,51.0,1645192628.9375,P16,D07,1,1,0
272,-37.0,-6.0,51.0,1645192628.96875,P16,D07,1,1,0
273,-37.0,-6.0,51.0,1645192629.0,P16,D07,1,1,0
274,-37.0,-7.0,51.0,1645192629.03125,P16,D07,1,1,0
275,-36.0,-7.0,52.0,1645192629.0625,P16,D07,1,1,0
276,-36.0,-7.0,52.0,1645192629.09375,P16,D07,1,1,0
277,-36.0,-7.0,52.0,1645192629.125,P16,D07,1,1,0
278,-36.0,-6.0,52.0,1645192629.15625,P16,D07,1,1,0
279,-36.0,-7.0,52.0,1645192629.1875,P16,D07,1,1,0
280,-36.0,-7.0,51.0,1645192629.21875,P16,D07,1,1,0
281,-36.0,-7.0,52.0,1645192629.25,P16,D07,1,1,0
282,-36.0,-7.0,52.0,1645192629.28125,P16,D07,1,1,0
283,-36.0,-7.0,51.0,1645192629.3125,P16,D07,1,1,0
284,-36.0,-7.0,52.0,1645192629.34375,P16,D07,1,1,0
285,-36.0,-7.0,51.0,1645192629.375,P16,D07,1,1,0
286,-36.0,-7.0,52.0,1645192629.40625,P16,D07,1,1,0
287,-36.0,-7.0,52.0,1645192629.4375,P16,D07,1,1,0
288,-35.0,-8.0,52.0,1645192629.46875,P16,D07,1,1,0
289,-36.0,-8.0,52.0,1645192629.5,P16,D07,1,1,0
290,-36.0,-8.0,51.0,1645192629.53125,P16,D07,1,1,0
291,-36.0,-8.0,52.0,1645192629.5625,P16,D07,1,1,0
292,-36.0,-8.0,52.0,1645192629.59375,P16,D07,1,1,0
293,-36.0,-8.0,52.0,1645192629.625,P16,D07,1,1,0
294,-36.0,-8.0,52.0,1645192629.65625,P16,D07,1,1,0
295,-36.0,-8.0,52.0,1645192629.6875,P16,D07,1,1,0
296,-36.0,-8.0,52.0,1645192629.71875,P16,D07,1,1,0
297,-37.0,-8.0,51.0,1645192629.75,P16,D07,1,1,0
298,-36.0,-8.0,51.0,1645192629.78125,P16,D07,1,1,0
299,-36.0,-7.0,52.0,1645192629.8125,P16,D07,1,1,0
300,-35.0,-8.0,52.0,1645192629.84375,P16,D07,1,1,0
301,-36.0,-8.0,52.0,1645192629.875,P16,D07,1,1,0
302,-36.0,-8.0,52.0,1645192629.90625,P16,D07,1,1,0
303,-36.0,-8.0,52.0,1645192629.9375,P16,D07,1,1,0
304,-36.0,-8.0,52.0,1645192629.96875,P16,D07,1,1,0
305,-36.0,-7.0,52.0,1645192630.0,P16,D07,1,1,0
306,-36.0,-7.0,52.0,1645192630.03125,P16,D07,1,1,0
307,-36.0,-8.0,52.0,1645192630.0625,P16,D07,1,1,0
308,-36.0,-7.0,52.0,1645192630.09375,P16,D07,1,1,0
309,-36.0,-7.0,51.0,1645192630.125,P16,D07,1,1,0
310,-36.0,-7.0,52.0,1645192630.15625,P16,D07,1,1,0
311,-36.0,-7.0,52.0,1645192630.1875,P16,D07,1,1,0
312,-36.0,-7.0,52.0,1645192630.21875,P16,D07,1,1,0
313,-36.0,-7.0,52.0,1645192630.25,P16,D07,1,1,0
314,-36.0,-6.0,52.0,1645192630.28125,P16,D07,1,1,0
315,-36.0,-7.0,52.0,1645192630.3125,P16,D07,1,1,0
316,-36.0,-7.0,52.0,1645192630.34375,P16,D07,1,1,0
317,-36.0,-6.0,52.0,1645192630.375,P16,D07,1,1,0
318,-37.0,-6.0,51.0,1645192630.40625,P16,D07,1,1,0
319,-37.0,-6.0,51.0,1645192630.4375,P16,D07,1,1,0
320,-35.0,-8.0,53.0,1645192630.46875,P16,D07,1,1,0
321,-36.0,-7.0,52.0,1645192630.5,P16,D07,1,1,0
322,-37.0,-7.0,52.0,1645192630.53125,P16,D07,1,1,0
323,-37.0,-6.0,52.0,1645192630.5625,P16,D07,1,1,0
324,-36.0,-6.0,52.0,1645192630.59375,P16,D07,1,1,0
325,-37.0,-6.0,51.0,1645192630.625,P16,D07,1,1,0
326,-37.0,-6.0,51.0,1645192630.65625,P16,D07,1,1,0
327,-37.0,-6.0,52.0,1645192630.6875,P16,D07,1,1,0
328,-36.0,-6.0,52.0,1645192630.71875,P16,D07,1,1,0
329,-36.0,-6.0,51.0,1645192630.75,P16,D07,1,1,0
330,-36.0,-6.0,51.0,1645192630.78125,P16,D07,1,1,0
331,-37.0,-6.0,51.0,1645192630.8125,P16,D07,1,1,0
332,-36.0,-7.0,51.0,1645192630.84375,P16,D07,1,1,0
333,-37.0,-6.0,51.0,1645192630.875,P16,D07,1,1,0
334,-37.0,-6.0,51.0,1645192630.90625,P16,D07,1,1,0
335,-37.0,-6.0,52.0,1645192630.9375,P16,D07,1,1,0
336,-36.0,-6.0,52.0,1645192630.96875,P16,D07,1,1,0
337,-36.0,-7.0,52.0,1645192631.0,P16,D07,1,1,0
338,-37.0,-6.0,51.0,1645192631.03125,P16,D07,1,1,0
339,-36.0,-7.0,51.0,1645192631.0625,P16,D07,1,1,0
340,-37.0,-6.0,52.0,1645192631.09375,P16,D07,1,1,0
341,-36.0,-6.0,51.0,1645192631.125,P16,D07,1,1,0
342,-36.0,-7.0,52.0,1645192631.15625,P16,D07,1,1,0
343,-36.0,-7.0,52.0,1645192631.1875,P16,D07,1,1,0
344,-36.0,-7.0,52.0,1645192631.21875,P16,D07,1,1,0
345,-35.0,-8.0,52.0,1645192631.25,P16,D07,1,1,0
346,-36.0,-8.0,52.0,1645192631.28125,P16,D07,1,1,0
347,-37.0,-7.0,52.0,1645192631.3125,P16,D07,1,1,0
348,-37.0,-7.0,52.0,1645192631.34375,P16,D07,1,1,0
349,-35.0,-7.0,52.0,1645192631.375,P16,D07,1,1,0
350,-36.0,-8.0,52.0,1645192631.40625,P16,D07,1,1,0
351,-35.0,-9.0,52.0,1645192631.4375,P16,D07,1,1,0
352,-36.0,-8.0,52.0,1645192631.46875,P16,D07,1,1,0
353,-36.0,-8.0,52.0,1645192631.5,P16,D07,1,1,0
354,-36.0,-8.0,51.0,1645192631.53125,P16,D07,1,1,0
355,-36.0,-8.0,52.0,1645192631.5625,P16,D07,1,1,0
356,-36.0,-9.0,52.0,1645192631.59375,P16,D07,1,1,0
357,-36.0,-9.0,52.0,1645192631.625,P16,D07,1,1,0
358,-35.0,-9.0,52.0,1645192631.65625,P16,D07,1,1,0
359,-35.0,-9.0,52.0,1645192631.6875,P16,D07,1,1,0
360,-36.0,-9.0,52.0,1645192631.71875,P16,D07,1,1,0
361,-36.0,-9.0,52.0,1645192631.75,P16,D07,1,1,0
362,-35.0,-9.0,52.0,1645192631.78125,P16,D07,1,1,0
363,-36.0,-10.0,52.0,1645192631.8125,P16,D07,1,1,0
364,-36.0,-9.0,52.0,1645192631.84375,P16,D07,1,1,0
365,-36.0,-9.0,52.0,1645192631.875,P16,D07,1,1,0
366,-36.0,-9.0,51.0,1645192631.90625,P16,D07,1,1,0
367,-35.0,-9.0,52.0,1645192631.9375,P16,D07,1,1,0
368,-36.0,-9.0,51.0,1645192631.96875,P16,D07,1,1,0
369,-36.0,-8.0,52.0,1645192632.0,P16,D07,1,1,0
370,-37.0,-8.0,51.0,1645192632.03125,P16,D07,1,1,0
371,-36.0,-9.0,51.0,1645192632.0625,P16,D07,1,1,0
372,-36.0,-8.0,51.0,1645192632.09375,P16,D07,1,1,0
373,-36.0,-8.0,51.0,1645192632.125,P16,D07,1,1,0
374,-36.0,-8.0,52.0,1645192632.15625,P16,D07,1,1,0
375,-37.0,-7.0,51.0,1645192632.1875,P16,D07,1,1,0
376,-36.0,-6.0,51.0,1645192632.21875,P16,D07,1,1,0
377,-36.0,-7.0,52.0,1645192632.25,P16,D07,1,1,0
378,-37.0,-7.0,52.0,1645192632.28125,P16,D07,1,1,0
379,-37.0,-7.0,51.0,1645192632.3125,P16,D07,1,1,0
380,-36.0,-7.0,52.0,1645192632.34375,P16,D07,1,1,0
381,-36.0,-6.0,52.0,1645192632.375,P16,D07,1,1,0
382,-36.0,-6.0,52.0,1645192632.40625,P16,D07,1,1,0
383,-37.0,-6.0,52.0,1645192632.4375,P16,D07,1,1,0
384,-36.0,-6.0,52.0,1645192632.46875,P16,D07,1,1,0
385,-36.0,-6.0,52.0,1645192632.5,P16,D07,1,1,0
386,-36.0,-7.0,52.0,1645192632.53125,P16,D07,1,1,0
387,-38.0,-6.0,52.0,1645192632.5625,P16,D07,1,1,0
388,-37.0,-3.0,51.0,1645192632.59375,P16,D07,1,1,0
389,-36.0,-3.0,51.0,1645192632.625,P16,D07,1,1,0
390,-36.0,-5.0,52.0,1645192632.65625,P16,D07,1,1,0
391,-37.0,-6.0,52.0,1645192632.6875,P16,D07,1,1,0
392,-38.0,-5.0,51.0,1645192632.71875,P16,D07,1,1,0
393,-36.0,-5.0,52.0,1645192632.75,P16,D07,1,1,0
394,-36.0,-4.0,52.0,1645192632.78125,P16,D07,1,1,0
395,-37.0,-4.0,51.0,1645192632.8125,P16,D07,1,1,0
396,-37.0,-4.0,51.0,1645192632.84375,P16,D07,1,1,0
397,-37.0,-5.0,52.0,1645192632.875,P16,D07,1,1,0
398,-36.0,-5.0,52.0,1645192632.90625,P16,D07,1,1,0
399,-37.0,-4.0,51.0,1645192632.9375,P16,D07,1,1,0
400,-37.0,-5.0,51.0,1645192632.96875,P16,D07,1,1,0
401,-36.0,-5.0,52.0,1645192633.0,P16,D07,1,1,0
402,-36.0,-5.0,52.0,1645192633.03125,P16,D07,1,1,0
403,-37.0,-5.0,51.0,1645192633.0625,P16,D07,1,1,0
404,-37.0,-4.0,51.0,1645192633.09375,P16,D07,1,1,0
405,-37.0,-4.0,51.0,1645192633.125,P16,D07,1,1,0
406,-36.0,-4.0,52.0,1645192633.15625,P16,D07,1,1,0
407,-36.0,-4.0,52.0,1645192633.1875,P16,D07,1,1,0
408,-37.0,-5.0,52.0,1645192633.21875,P16,D07,1,1,0
409,-37.0,-5.0,51.0,1645192633.25,P16,D07,1,1,0
410,-37.0,-5.0,52.0,1645192633.28125,P16,D07,1,1,0
411,-37.0,-5.0,52.0,1645192633.3125,P16,D07,1,1,0
412,-37.0,-5.0,52.0,1645192633.34375,P16,D07,1,1,0
413,-36.0,-5.0,52.0,1645192633.375,P16,D07,1,1,0
414,-37.0,-5.0,52.0,1645192633.40625,P16,D07,1,1,0
415,-37.0,-5.0,51.0,1645192633.4375,P16,D07,1,1,0
416,-37.0,-6.0,52.0,1645192633.46875,P16,D07,1,1,0
417,-37.0,-5.0,52.0,1645192633.5,P16,D07,1,1,0
418,-37.0,-5.0,52.0,1645192633.53125,P16,D07,1,1,0
419,-37.0,-5.0,51.0,1645192633.5625,P16,D07,1,1,0
420,-37.0,-5.0,52.0,1645192633.59375,P16,D07,1,1,0
421,-36.0,-6.0,52.0,1645192633.625,P16,D07,1,1,0
422,-36.0,-6.0,52.0,1645192633.65625,P16,D07,1,1,0
423,-36.0,-6.0,52.0,1645192633.6875,P16,D07,1,1,0
424,-36.0,-6.0,52.0,1645192633.71875,P16,D07,1,1,0
425,-37.0,-6.0,52.0,1645192633.75,P16,D07,1,1,0
426,-36.0,-6.0,52.0,1645192633.78125,P16,D07,1,1,0
427,-36.0,-7.0,52.0,1645192633.8125,P16,D07,1,1,0
428,-36.0,-7.0,52.0,1645192633.84375,P16,D07,1,1,0
429,-36.0,-7.0,52.0,1645192633.875,P16,D07,1,1,0
430,-35.0,-7.0,51.0,1645192633.90625,P16,D07,1,1,0
431,-36.0,-8.0,52.0,1645192633.9375,P16,D07,1,1,0
432,-37.0,-7.0,51.0,1645192633.96875,P16,D07,1,1,0
433,-36.0,-7.0,52.0,1645192634.0,P16,D07,1,1,0
434,-36.0,-8.0,52.0,1645192634.03125,P16,D07,1,1,0
435,-35.0,-9.0,52.0,1645192634.0625,P16,D07,1,1,0
436,-37.0,-9.0,52.0,1645192634.09375,P16,D07,1,1,0
437,-37.0,-8.0,51.0,1645192634.125,P16,D07,1,1,0
438,-36.0,-8.0,52.0,1645192634.15625,P16,D07,1,1,0
439,-37.0,-8.0,51.0,1645192634.1875,P16,D07,1,1,0
440,-37.0,-8.0,51.0,1645192634.21875,P16,D07,1,1,0
441,-37.0,-8.0,51.0,1645192634.25,P16,D07,1,1,0
442,-36.0,-8.0,51.0,1645192634.28125,P16,D07,1,1,0
443,-37.0,-9.0,51.0,1645192634.3125,P16,D07,1,1,0
444,-36.0,-9.0,51.0,1645192634.34375,P16,D07,1,1,0
445,-38.0,-8.0,51.0,1645192634.375,P16,D07,1,1,0
446,-37.0,-7.0,51.0,1645192634.40625,P16,D07,1,1,0
447,-37.0,-7.0,51.0,1645192634.4375,P16,D07,1,1,0
448,-37.0,-9.0,51.0,1645192634.46875,P16,D07,1,1,0
449,-38.0,-9.0,51.0,1645192634.5,P16,D07,1,1,0
450,-37.0,-8.0,51.0,1645192634.53125,P16,D07,1,1,0
451,-37.0,-7.0,51.0,1645192634.5625,P16,D07,1,1,0
452,-37.0,-5.0,50.0,1645192634.59375,P16,D07,1,1,0
453,-37.0,-6.0,51.0,1645192634.625,P16,D07,1,1,0
454,-37.0,-7.0,51.0,1645192634.65625,P16,D07,1,1,0
455,-38.0,-6.0,51.0,1645192634.6875,P16,D07,1,1,0
456,-38.0,-6.0,50.0,1645192634.71875,P16,D07,1,1,0
457,-37.0,-6.0,51.0,1645192634.75,P16,D07,1,1,0
458,-37.0,-7.0,51.0,1645192634.78125,P16,D07,1,1,0
459,-38.0,-7.0,51.0,1645192634.8125,P16,D07,1,1,0
460,-38.0,-6.0,51.0,1645192634.84375,P16,D07,1,1,0
461,-37.0,-4.0,51.0,1645192634.875,P16,D07,1,1,0
462,-38.0,-4.0,51.0,1645192634.90625,P16,D07,1,1,0
463,-38.0,-4.0,50.0,1645192634.9375,P16,D07,1,1,0
464,-38.0,-4.0,51.0,1645192634.96875,P16,D07,1,1,0
465,-34.0,-8.0,53.0,1645192635.0,P16,D07,1,1,0
466,-36.0,-8.0,53.0,1645192635.03125,P16,D07,1,1,0
467,-38.0,-7.0,50.0,1645192635.0625,P16,D07,1,1,0
468,-38.0,-5.0,51.0,1645192635.09375,P16,D07,1,1,0
469,-37.0,-5.0,52.0,1645192635.125,P16,D07,1,1,0
470,-37.0,-5.0,51.0,1645192635.15625,P16,D07,1,1,0
471,-37.0,-7.0,52.0,1645192635.1875,P16,D07,1,1,0
472,-37.0,-6.0,51.0,1645192635.21875,P16,D07,1,1,0
473,-37.0,-6.0,52.0,1645192635.25,P16,D07,1,1,0
474,-36.0,-5.0,52.0,1645192635.28125,P16,D07,1,1,0
475,-36.0,-5.0,52.0,1645192635.3125,P16,D07,1,1,0
476,-37.0,-5.0,51.0,1645192635.34375,P16,D07,1,1,0
477,-36.0,-5.0,51.0,1645192635.375,P16,D07,1,1,0
478,-37.0,-5.0,51.0,1645192635.40625,P16,D07,1,1,0
479,-37.0,-5.0,51.0,1645192635.4375,P16,D07,1,1,0
480,-37.0,-5.0,51.0,1645192635.46875,P16,D07,1,1,0
481,-37.0,-5.0,52.0,1645192635.5,P16,D07,1,1,0
482,-37.0,-5.0,52.0,1645192635.53125,P16,D07,1,1,0
483,-36.0,-5.0,52.0,1645192635.5625,P16,D07,1,1,0
484,-37.0,-5.0,51.0,1645192635.59375,P16,D07,1,1,0
485,-36.0,-5.0,52.0,1645192635.625,P16,D07,1,1,0
486,-37.0,-5.0,52.0,1645192635.65625,P16,D07,1,1,0
487,-36.0,-5.0,51.0,1645192635.6875,P16,D07,1,1,0
488,-36.0,-6.0,52.0,1645192635.71875,P16,D07,1,1,0
489,-37.0,-6.0,51.0,1645192635.75,P16,D07,1,1,0
490,-37.0,-6.0,51.0,1645192635.78125,P16,D07,1,1,0
491,-37.0,-6.0,51.0,1645192635.8125,P16,D07,1,1,0
492,-37.0,-6.0,52.0,1645192635.84375,P16,D07,1,1,0
493,-37.0,-6.0,51.0,1645192635.875,P16,D07,1,1,0
494,-37.0,-7.0,52.0,1645192635.90625,P16,D07,1,1,0
495,-36.0,-7.0,52.0,1645192635.9375,P16,D07,1,1,0
496,-36.0,-7.0,52.0,1645192635.96875,P16,D07,1,1,0
497,-37.0,-7.0,51.0,1645192636.0,P16,D07,1,1,0
498,-37.0,-7.0,51.0,1645192636.03125,P16,D07,1,1,0
499,-37.0,-7.0,51.0,1645192636.0625,P16,D07,1,1,0
500,-37.0,-7.0,51.0,1645192636.09375,P16,D07,1,1,0
501,-37.0,-7.0,51.0,1645192636.125,P16,D07,1,1,0
502,-37.0,-7.0,51.0,1645192636.15625,P16,D07,1,1,0
503,-37.0,-8.0,51.0,1645192636.1875,P16,D07,1,1,0
504,-36.0,-8.0,52.0,1645192636.21875,P16,D07,1,1,0
505,-37.0,-8.0,51.0,1645192636.25,P16,D07,1,1,0
506,-37.0,-8.0,51.0,1645192636.28125,P16,D07,1,1,0
507,-36.0,-8.0,52.0,1645192636.3125,P16,D07,1,1,0
508,-36.0,-9.0,52.0,1645192636.34375,P16,D07,1,1,0
509,-37.0,-8.0,51.0,1645192636.375,P16,D07,1,1,0
510,-37.0,-8.0,51.0,1645192636.40625,P16,D07,1,1,0
511,-36.0,-8.0,51.0,1645192636.4375,P16,D07,1,1,0
512,-36.0,-8.0,52.0,1645192636.46875,P16,D07,1,1,0
513,-37.0,-8.0,51.0,1645192636.5,P16,D07,1,1,0
514,-37.0,-8.0,51.0,1645192636.53125,P16,D07,1,1,0
515,-36.0,-8.0,51.0,1645192636.5625,P16,D07,1,1,0
516,-37.0,-8.0,51.0,1645192636.59375,P16,D07,1,1,0
517,-36.0,-8.0,51.0,1645192636.625,P16,D07,1,1,0
518,-36.0,-8.0,51.0,1645192636.65625,P16,D07,1,1,0
519,-37.0,-9.0,52.0,1645192636.6875,P16,D07,1,1,0
520,-37.0,-9.0,51.0,1645192636.71875,P16,D07,1,1,0
521,-37.0,-9.0,51.0,1645192636.75,P16,D07,1,1,0
522,-37.0,-7.0,51.0,1645192636.78125,P16,D07,1,1,0
523,-37.0,-8.0,51.0,1645192636.8125,P16,D07,1,1,0
524,-37.0,-8.0,51.0,1645192636.84375,P16,D07,1,1,0
525,-37.0,-8.0,51.0,1645192636.875,P16,D07,1,1,0
526,-37.0,-7.0,51.0,1645192636.90625,P16,D07,1,1,0
527,-37.0,-7.0,51.0,1645192636.9375,P16,D07,1,1,0
528,-37.0,-7.0,51.0,1645192636.96875,P16,D07,1,1,0
529,-37.0,-8.0,51.0,1645192637.0,P16,D07,1,1,0
530,-37.0,-7.0,51.0,1645192637.03125,P16,D07,1,1,0
531,-36.0,-7.0,51.0,1645192637.0625,P16,D07,1,1,0
532,-37.0,-8.0,51.0,1645192637.09375,P16,D07,1,1,0
533,-37.0,-7.0,51.0,1645192637.125,P16,D07,1,1,0
534,-36.0,-7.0,51.0,1645192637.15625,P16,D07,1,1,0
535,-37.0,-7.0,51.0,1645192637.1875,P16,D07,1,1,0
536,-37.0,-7.0,51.0,1645192637.21875,P16,D07,1,1,0
537,-37.0,-6.0,51.0,1645192637.25,P16,D07,1,1,0
538,-37.0,-6.0,51.0,1645192637.28125,P16,D07,1,1,0
539,-37.0,-7.0,52.0,1645192637.3125,P16,D07,1,1,0
540,-37.0,-7.0,52.0,1645192637.34375,P16,D07,1,1,0
541,-37.0,-6.0,51.0,1645192637.375,P16,D07,1,1,0
542,-37.0,-5.0,51.0,1645192637.40625,P16,D07,1,1,0
543,-37.0,-5.0,51.0,1645192637.4375,P16,D07,1,1,0
544,-37.0,-6.0,51.0,1645192637.46875,P16,D07,1,1,0
545,-36.0,-6.0,52.0,1645192637.5,P16,D07,1,1,0
546,-38.0,-5.0,51.0,1645192637.53125,P16,D07,1,1,0
547,-37.0,-4.0,51.0,1645192637.5625,P16,D07,1,1,0
548,-36.0,-4.0,52.0,1645192637.59375,P16,D07,1,1,0
549,-37.0,-4.0,52.0,1645192637.625,P16,D07,1,1,0
550,-36.0,-5.0,52.0,1645192637.65625,P16,D07,1,1,0
551,-37.0,-4.0,51.0,1645192637.6875,P16,D07,1,1,0
552,-37.0,-4.0,51.0,1645192637.71875,P16,D07,1,1,0
553,-37.0,-4.0,51.0,1645192637.75,P16,D07,1,1,0
554,-36.0,-5.0,52.0,1645192637.78125,P16,D07,1,1,0
555,-36.0,-5.0,52.0,1645192637.8125,P16,D07,1,1,0
556,-37.0,-4.0,52.0,1645192637.84375,P16,D07,1,1,0
557,-36.0,-3.0,52.0,1645192637.875,P16,D07,1,1,0
558,-37.0,-3.0,51.0,1645192637.90625,P16,D07,1,1,0
559,-36.0,-4.0,52.0,1645192637.9375,P16,D07,1,1,0
560,-37.0,-4.0,52.0,1645192637.96875,P16,D07,1,1,0
561,-36.0,-4.0,52.0,1645192638.0,P16,D07,1,1,0
562,-37.0,-4.0,51.0,1645192638.03125,P16,D07,1,1,0
563,-37.0,-4.0,51.0,1645192638.0625,P16,D07,1,1,0
564,-36.0,-5.0,52.0,1645192638.09375,P16,D07,1,1,0
565,-37.0,-4.0,52.0,1645192638.125,P16,D07,1,1,0
566,-37.0,-3.0,51.0,1645192638.15625,P16,D07,1,1,0
567,-37.0,-3.0,51.0,1645192638.1875,P16,D07,1,1,0
568,-36.0,-4.0,52.0,1645192638.21875,P16,D07,1,1,0
569,-37.0,-5.0,52.0,1645192638.25,P16,D07,1,1,0
570,-37.0,-5.0,52.0,1645192638.28125,P16,D07,1,1,0
571,-36.0,-5.0,51.0,1645192638.3125,P16,D07,1,1,0
572,-37.0,-5.0,52.0,1645192638.34375,P16,D07,1,1,0
573,-37.0,-5.0,51.0,1645192638.375,P16,D07,1,1,0
574,-36.0,-5.0,51.0,1645192638.40625,P16,D07,1,1,0
575,-36.0,-5.0,52.0,1645192638.4375,P16,D07,1,1,0
576,-37.0,-5.0,52.0,1645192638.46875,P16,D07,1,1,0
577,-37.0,-5.0,51.0,1645192638.5,P16,D07,1,1,0
578,-37.0,-5.0,51.0,1645192638.53125,P16,D07,1,1,0
579,-36.0,-6.0,52.0,1645192638.5625,P16,D07,1,1,0
580,-36.0,-7.0,51.0,1645192638.59375,P16,D07,1,1,0
581,-36.0,-7.0,51.0,1645192638.625,P16,D07,1,1,0
582,-35.0,-9.0,52.0,1645192638.65625,P16,D07,1,1,0
583,-37.0,-8.0,51.0,1645192638.6875,P16,D07,1,1,0
584,-38.0,-7.0,51.0,1645192638.71875,P16,D07,1,1,0
585,-37.0,-7.0,51.0,1645192638.75,P16,D07,1,1,0
586,-37.0,-7.0,51.0,1645192638.78125,P16,D07,1,1,0
587,-37.0,-7.0,51.0,1645192638.8125,P16,D07,1,1,0
588,-38.0,-9.0,51.0,1645192638.84375,P16,D07,1,1,0
589,-37.0,-9.0,51.0,1645192638.875,P16,D07,1,1,0
590,-37.0,-8.0,51.0,1645192638.90625,P16,D07,1,1,0
591,-37.0,-8.0,51.0,1645192638.9375,P16,D07,1,1,0
592,-37.0,-8.0,51.0,1645192638.96875,P16,D07,1,1,0
593,-37.0,-8.0,51.0,1645192639.0,P16,D07,1,1,0
594,-37.0,-8.0,51.0,1645192639.03125,P16,D07,1,1,0
595,-37.0,-8.0,51.0,1645192639.0625,P16,D07,1,1,0
596,-36.0,-9.0,51.0,1645192639.09375,P16,D07,1,1,0
597,-37.0,-8.0,51.0,1645192639.125,P16,D07,1,1,0
598,-37.0,-8.0,51.0,1645192639.15625,P16,D07,1,1,0
599,-37.0,-8.0,51.0,1645192639.1875,P16,D07,1,1,0
600,-37.0,-9.0,51.0,1645192639.21875,P16,D07,1,1,0
601,-37.0,-9.0,51.0,1645192639.25,P16,D07,1,1,0
602,-37.0,-9.0,51.0,1645192639.28125,P16,D07,1,1,0
603,-37.0,-8.0,51.0,1645192639.3125,P16,D07,1,1,0
604,-38.0,-8.0,51.0,1645192639.34375,P16,D07,1,1,0
605,-37.0,-7.0,51.0,1645192639.375,P16,D07,1,1,0
606,-37.0,-7.0,51.0,1645192639.40625,P16,D07,1,1,0
607,-37.0,-7.0,51.0,1645192639.4375,P16,D07,1,1,0
608,-38.0,-7.0,51.0,1645192639.46875,P16,D07,1,1,0
609,-38.0,-7.0,51.0,1645192639.5,P16,D07,1,1,0
610,-37.0,-7.0,51.0,1645192639.53125,P16,D07,1,1,0
611,-38.0,-7.0,51.0,1645192639.5625,P16,D07,1,1,0
612,-37.0,-7.0,51.0,1645192639.59375,P16,D07,1,1,0
613,-37.0,-7.0,51.0,1645192639.625,P16,D07,1,1,0
614,-38.0,-6.0,51.0,1645192639.65625,P16,D07,1,1,0
615,-37.0,-6.0,51.0,1645192639.6875,P16,D07,1,1,0
616,-37.0,-6.0,51.0,1645192639.71875,P16,D07,1,1,0
617,-37.0,-6.0,52.0,1645192639.75,P16,D07,1,1,0
618,-37.0,-5.0,51.0,1645192639.78125,P16,D07,1,1,0
619,-37.0,-5.0,51.0,1645192639.8125,P16,D07,1,1,0
620,-37.0,-5.0,51.0,1645192639.84375,P16,D07,1,1,0
621,-37.0,-4.0,51.0,1645192639.875,P16,D07,1,1,0
622,-37.0,-5.0,51.0,1645192639.90625,P16,D07,1,1,0
623,-37.0,-4.0,52.0,1645192639.9375,P16,D07,1,1,0
624,-37.0,-4.0,51.0,1645192639.96875,P16,D07,1,1,0
625,-37.0,-4.0,51.0,1645192640.0,P16,D07,1,1,0
626,-37.0,-4.0,52.0,1645192640.03125,P16,D07,1,1,0
627,-36.0,-5.0,52.0,1645192640.0625,P16,D07,1,1,0
628,-37.0,-3.0,51.0,1645192640.09375,P16,D07,1,1,0
629,-37.0,-3.0,52.0,1645192640.125,P16,D07,1,1,0
630,-37.0,-3.0,51.0,1645192640.15625,P16,D07,1,1,0
631,-37.0,-3.0,52.0,1645192640.1875,P16,D07,1,1,0
632,-37.0,-4.0,52.0,1645192640.21875,P16,D07,1,1,0
633,-37.0,-3.0,51.0,1645192640.25,P16,D07,1,1,0
634,-37.0,-3.0,51.0,1645192640.28125,P16,D07,1,1,0
635,-37.0,-3.0,52.0,1645192640.3125,P16,D07,1,1,0
636,-37.0,-3.0,51.0,1645192640.34375,P16,D07,1,1,0
637,-36.0,-3.0,51.0,1645192640.375,P16,D07,1,1,0
638,-37.0,-3.0,52.0,1645192640.40625,P16,D07,1,1,0
639,-36.0,-4.0,52.0,1645192640.4375,P16,D07,1,1,0
640,-37.0,-3.0,51.0,1645192640.46875,P16,D07,1,1,0
641,-37.0,-3.0,51.0,1645192640.5,P16,D07,1,1,0
642,-37.0,-3.0,52.0,1645192640.53125,P16,D07,1,1,0
643,-35.0,-4.0,51.0,1645192640.5625,P16,D07,1,1,0
644,-36.0,-5.0,52.0,1645192640.59375,P16,D07,1,1,0
645,-38.0,-4.0,51.0,1645192640.625,P16,D07,1,1,0
646,-38.0,-4.0,50.0,1645192640.65625,P16,D07,1,1,0
647,-37.0,-6.0,51.0,1645192640.6875,P16,D07,1,1,0
648,-37.0,-6.0,52.0,1645192640.71875,P16,D07,1,1,0
649,-38.0,-6.0,51.0,1645192640.75,P16,D07,1,1,0
650,-38.0,-6.0,51.0,1645192640.78125,P16,D07,1,1,0
651,-37.0,-6.0,51.0,1645192640.8125,P16,D07,1,1,0
652,-38.0,-5.0,51.0,1645192640.84375,P16,D07,1,1,0
653,-37.0,-6.0,51.0,1645192640.875,P16,D07,1,1,0
654,-37.0,-6.0,51.0,1645192640.90625,P16,D07,1,1,0
655,-38.0,-6.0,51.0,1645192640.9375,P16,D07,1,1,0
656,-38.0,-6.0,50.0,1645192640.96875,P16,D07,1,1,0
657,-37.0,-7.0,51.0,1645192641.0,P16,D07,1,1,0
658,-37.0,-7.0,51.0,1645192641.03125,P16,D07,1,1,0
659,-38.0,-7.0,51.0,1645192641.0625,P16,D07,1,1,0
660,-37.0,-8.0,51.0,1645192641.09375,P16,D07,1,1,0
661,-36.0,-8.0,51.0,1645192641.125,P16,D07,1,1,0
662,-37.0,-8.0,51.0,1645192641.15625,P16,D07,1,1,0
663,-38.0,-8.0,51.0,1645192641.1875,P16,D07,1,1,0
664,-37.0,-8.0,51.0,1645192641.21875,P16,D07,1,1,0
665,-37.0,-8.0,51.0,1645192641.25,P16,D07,1,1,0
666,-36.0,-9.0,51.0,1645192641.28125,P16,D07,1,1,0
667,-37.0,-9.0,51.0,1645192641.3125,P16,D07,1,1,0
668,-37.0,-9.0,51.0,1645192641.34375,P16,D07,1,1,0
669,-37.0,-9.0,51.0,1645192641.375,P16,D07,1,1,0
670,-37.0,-10.0,51.0,1645192641.40625,P16,D07,1,1,0
671,-37.0,-9.0,51.0,1645192641.4375,P16,D07,1,1,0
672,-37.0,-9.0,51.0,1645192641.46875,P16,D07,1,1,0
673,-37.0,-10.0,51.0,1645192641.5,P16,D07,1,1,0
674,-38.0,-10.0,51.0,1645192641.53125,P16,D07,1,1,0
675,-38.0,-10.0,50.0,1645192641.5625,P16,D07,1,1,0
676,-38.0,-9.0,50.0,1645192641.59375,P16,D07,1,1,0
677,-38.0,-9.0,50.0,1645192641.625,P16,D07,1,1,0
678,-37.0,-9.0,51.0,1645192641.65625,P16,D07,1,1,0
679,-37.0,-10.0,50.0,1645192641.6875,P16,D07,1,1,0
680,-37.0,-11.0,51.0,1645192641.71875,P16,D07,1,1,0
681,-37.0,-11.0,51.0,1645192641.75,P16,D07,1,1,0
682,-37.0,-10.0,50.0,1645192641.78125,P16,D07,1,1,0
683,-37.0,-10.0,50.0,1645192641.8125,P16,D07,1,1,0
684,-36.0,-12.0,51.0,1645192641.84375,P16,D07,1,1,0
685,-40.0,-9.0,50.0,1645192641.875,P16,D07,1,1,0
686,-40.0,-7.0,50.0,1645192641.90625,P16,D07,1,1,0
687,-38.0,-6.0,51.0,1645192641.9375,P16,D07,1,1,0
688,-37.0,-7.0,51.0,1645192641.96875,P16,D07,1,1,0
689,-37.0,-8.0,51.0,1645192642.0,P16,D07,1,1,0
690,-38.0,-8.0,50.0,1645192642.03125,P16,D07,1,1,0
691,-37.0,-9.0,51.0,1645192642.0625,P16,D07,1,1,0
692,-37.0,-9.0,51.0,1645192642.09375,P16,D07,1,1,0
693,-38.0,-8.0,51.0,1645192642.125,P16,D07,1,1,0
694,-39.0,-6.0,50.0,1645192642.15625,P16,D07,1,1,0
695,-38.0,-5.0,50.0,1645192642.1875,P16,D07,1,1,0
696,-37.0,-5.0,51.0,1645192642.21875,P16,D07,1,1,0
697,-37.0,-6.0,51.0,1645192642.25,P16,D07,1,1,0
698,-40.0,-6.0,50.0,1645192642.28125,P16,D07,1,1,0
699,-40.0,-5.0,49.0,1645192642.3125,P16,D07,1,1,0
700,-38.0,-4.0,50.0,1645192642.34375,P16,D07,1,1,0
701,-38.0,-3.0,51.0,1645192642.375,P16,D07,1,1,0
702,-37.0,-3.0,51.0,1645192642.40625,P16,D07,1,1,0
703,-38.0,-4.0,51.0,1645192642.4375,P16,D07,1,1,0
704,-37.0,-4.0,51.0,1645192642.46875,P16,D07,1,1,0
705,-38.0,-4.0,51.0,1645192642.5,P16,D07,1,1,0
706,-37.0,-4.0,52.0,1645192642.53125,P16,D07,1,1,0
707,-37.0,-5.0,52.0,1645192642.5625,P16,D07,1,1,0
708,-40.0,-4.0,51.0,1645192642.59375,P16,D07,1,1,0
709,-39.0,1.0,49.0,1645192642.625,P16,D07,1,1,0
710,-38.0,1.0,50.0,1645192642.65625,P16,D07,1,1,0
711,-37.0,0.0,51.0,1645192642.6875,P16,D07,1,1,0
712,-38.0,0.0,50.0,1645192642.71875,P16,D07,1,1,0
713,-39.0,-1.0,50.0,1645192642.75,P16,D07,1,1,0
714,-39.0,0.0,50.0,1645192642.78125,P16,D07,1,1,0
715,-37.0,0.0,51.0,1645192642.8125,P16,D07,1,1,0
716,-38.0,0.0,51.0,1645192642.84375,P16,D07,1,1,0
717,-38.0,0.0,51.0,1645192642.875,P16,D07,1,1,0
718,-38.0,-1.0,51.0,1645192642.90625,P16,D07,1,1,0
719,-38.0,0.0,50.0,1645192642.9375,P16,D07,1,1,0
720,-38.0,-1.0,51.0,1645192642.96875,P16,D07,1,1,0
721,-38.0,0.0,50.0,1645192643.0,P16,D07,1,1,0
722,-38.0,-1.0,51.0,1645192643.03125,P16,D07,1,1,0
723,-39.0,0.0,51.0,1645192643.0625,P16,D07,1,1,0
724,-38.0,-1.0,51.0,1645192643.09375,P16,D07,1,1,0
725,-38.0,-1.0,51.0,1645192643.125,P16,D07,1,1,0
726,-38.0,-1.0,50.0,1645192643.15625,P16,D07,1,1,0
727,-36.0,-4.0,51.0,1645192643.1875,P16,D07,1,1,0
728,-38.0,-3.0,52.0,1645192643.21875,P16,D07,1,1,0
729,-39.0,-2.0,50.0,1645192643.25,P16,D07,1,1,0
730,-38.0,-1.0,50.0,1645192643.28125,P16,D07,1,1,0
731,-37.0,-4.0,51.0,1645192643.3125,P16,D07,1,1,0
732,-37.0,-5.0,52.0,1645192643.34375,P16,D07,1,1,0
733,-39.0,-3.0,50.0,1645192643.375,P16,D07,1,1,0
734,-39.0,-2.0,50.0,1645192643.40625,P16,D07,1,1,0
735,-37.0,-3.0,51.0,1645192643.4375,P16,D07,1,1,0
736,-37.0,-4.0,51.0,1645192643.46875,P16,D07,1,1,0
737,-39.0,-4.0,51.0,1645192643.5,P16,D07,1,1,0
738,-38.0,-4.0,50.0,1645192643.53125,P16,D07,1,1,0
739,-37.0,-4.0,51.0,1645192643.5625,P16,D07,1,1,0
740,-37.0,-4.0,51.0,1645192643.59375,P16,D07,1,1,0
741,-38.0,-4.0,51.0,1645192643.625,P16,D07,1,1,0
742,-38.0,-4.0,50.0,1645192643.65625,P16,D07,1,1,0
743,-37.0,-5.0,51.0,1645192643.6875,P16,D07,1,1,0
744,-37.0,-6.0,52.0,1645192643.71875,P16,D07,1,1,0
745,-39.0,-6.0,51.0,1645192643.75,P16,D07,1,1,0
746,-39.0,-5.0,50.0,1645192643.78125,P16,D07,1,1,0
747,-37.0,-5.0,51.0,1645192643.8125,P16,D07,1,1,0
748,-37.0,-5.0,51.0,1645192643.84375,P16,D07,1,1,0
749,-37.0,-6.0,51.0,1645192643.875,P16,D07,1,1,0
750,-37.0,-8.0,51.0,1645192643.90625,P16,D07,1,1,0
751,-37.0,-8.0,52.0,1645192643.9375,P16,D07,1,1,0
752,-37.0,-7.0,51.0,1645192643.96875,P16,D07,1,1,0
753,-37.0,-7.0,51.0,1645192644.0,P16,D07,1,1,0
754,-37.0,-7.0,51.0,1645192644.03125,P16,D07,1,1,0
755,-36.0,-9.0,52.0,1645192644.0625,P16,D07,1,1,0
756,-37.0,-9.0,51.0,1645192644.09375,P16,D07,1,1,0
757,-37.0,-9.0,51.0,1645192644.125,P16,D07,1,1,0
758,-37.0,-9.0,50.0,1645192644.15625,P16,D07,1,1,0
759,-36.0,-9.0,51.0,1645192644.1875,P16,D07,1,1,0
760,-37.0,-9.0,51.0,1645192644.21875,P16,D07,1,1,0
761,-37.0,-9.0,50.0,1645192644.25,P16,D07,1,1,0
762,-38.0,-9.0,50.0,1645192644.28125,P16,D07,1,1,0
763,-37.0,-9.0,50.0,1645192644.3125,P16,D07,1,1,0
764,-37.0,-10.0,51.0,1645192644.34375,P16,D07,1,1,0
765,-38.0,-10.0,52.0,1645192644.375,P16,D07,1,1,0
766,-39.0,-9.0,49.0,1645192644.40625,P16,D07,1,1,0
767,-38.0,-10.0,50.0,1645192644.4375,P16,D07,1,1,0
768,-37.0,-10.0,51.0,1645192644.46875,P16,D07,1,1,0
769,-37.0,-10.0,51.0,1645192644.5,P16,D07,1,1,0
770,-38.0,-10.0,50.0,1645192644.53125,P16,D07,1,1,0
771,-38.0,-10.0,50.0,1645192644.5625,P16,D07,1,1,0
772,-37.0,-9.0,51.0,1645192644.59375,P16,D07,1,1,0
773,-37.0,-9.0,51.0,1645192644.625,P16,D07,1,1,0
774,-37.0,-10.0,51.0,1645192644.65625,P16,D07,1,1,0
775,-38.0,-10.0,50.0,1645192644.6875,P16,D07,1,1,0
776,-38.0,-10.0,51.0,1645192644.71875,P16,D07,1,1,0
777,-37.0,-9.0,51.0,1645192644.75,P16,D07,1,1,0
778,-37.0,-9.0,51.0,1645192644.78125,P16,D07,1,1,0
779,-38.0,-8.0,50.0,1645192644.8125,P16,D07,1,1,0
780,-37.0,-8.0,50.0,1645192644.84375,P16,D07,1,1,0
781,-37.0,-9.0,51.0,1645192644.875,P16,D07,1,1,0
782,-37.0,-8.0,50.0,1645192644.90625,P16,D07,1,1,0
783,-38.0,-8.0,51.0,1645192644.9375,P16,D07,1,1,0
784,-38.0,-8.0,51.0,1645192644.96875,P16,D07,1,1,0
785,-37.0,-8.0,51.0,1645192645.0,P16,D07,1,1,0
786,-37.0,-8.0,51.0,1645192645.03125,P16,D07,1,1,0
787,-39.0,-8.0,50.0,1645192645.0625,P16,D07,1,1,0
788,-37.0,-7.0,51.0,1645192645.09375,P16,D07,1,1,0
789,-36.0,-7.0,51.0,1645192645.125,P16,D07,1,1,0
790,-36.0,-6.0,51.0,1645192645.15625,P16,D07,1,1,0
791,-37.0,-7.0,51.0,1645192645.1875,P16,D07,1,1,0
792,-37.0,-6.0,51.0,1645192645.21875,P16,D07,1,1,0
793,-37.0,-6.0,51.0,1645192645.25,P16,D07,1,1,0
794,-37.0,-6.0,51.0,1645192645.28125,P16,D07,1,1,0
795,-38.0,-6.0,51.0,1645192645.3125,P16,D07,1,1,0
796,-37.0,-5.0,51.0,1645192645.34375,P16,D07,1,1,0
797,-37.0,-6.0,51.0,1645192645.375,P16,D07,1,1,0
798,-39.0,-5.0,50.0,1645192645.40625,P16,D07,1,1,0
799,-38.0,-5.0,51.0,1645192645.4375,P16,D07,1,1,0
800,-37.0,-5.0,51.0,1645192645.46875,P16,D07,1,1,0
801,-37.0,-5.0,51.0,1645192645.5,P16,D07,1,1,0
802,-38.0,-5.0,51.0,1645192645.53125,P16,D07,1,1,0
803,-38.0,-5.0,51.0,1645192645.5625,P16,D07,1,1,0
804,-37.0,-4.0,51.0,1645192645.59375,P16,D07,1,1,0
805,-37.0,-4.0,51.0,1645192645.625,P16,D07,1,1,0
806,-37.0,-4.0,51.0,1645192645.65625,P16,D07,1,1,0
807,-37.0,-5.0,51.0,1645192645.6875,P16,D07,1,1,0
808,-37.0,-4.0,51.0,1645192645.71875,P16,D07,1,1,0
809,-38.0,-4.0,51.0,1645192645.75,P16,D07,1,1,0
810,-37.0,-4.0,51.0,1645192645.78125,P16,D07,1,1,0
811,-37.0,-4.0,51.0,1645192645.8125,P16,D07,1,1,0
812,-38.0,-4.0,51.0,1645192645.84375,P16,D07,1,1,0
813,-37.0,-4.0,51.0,1645192645.875,P16,D07,1,1,0
814,-37.0,-4.0,51.0,1645192645.90625,P16,D07,1,1,0
815,-37.0,-5.0,51.0,1645192645.9375,P16,D07,1,1,0
816,-38.0,-5.0,51.0,1645192645.96875,P16,D07,1,1,0
817,-37.0,-6.0,51.0,1645192646.0,P16,D07,1,1,0
818,-38.0,-6.0,52.0,1645192646.03125,P16,D07,1,1,0
819,-37.0,-6.0,51.0,1645192646.0625,P16,D07,1,1,0
820,-37.0,-5.0,51.0,1645192646.09375,P16,D07,1,1,0
821,-36.0,-6.0,51.0,1645192646.125,P16,D07,1,1,0
822,-37.0,-6.0,52.0,1645192646.15625,P16,D07,1,1,0
823,-37.0,-6.0,51.0,1645192646.1875,P16,D07,1,1,0
824,-38.0,-6.0,51.0,1645192646.21875,P16,D07,1,1,0
825,-36.0,-5.0,51.0,1645192646.25,P16,D07,1,1,0
826,-36.0,-5.0,52.0,1645192646.28125,P16,D07,1,1,0
827,-37.0,-6.0,51.0,1645192646.3125,P16,D07,1,1,0
828,-37.0,-6.0,51.0,1645192646.34375,P16,D07,1,1,0
829,-36.0,-7.0,52.0,1645192646.375,P16,D07,1,1,0
830,-36.0,-7.0,52.0,1645192646.40625,P16,D07,1,1,0
831,-37.0,-7.0,51.0,1645192646.4375,P16,D07,1,1,0
832,-37.0,-7.0,51.0,1645192646.46875,P16,D07,1,1,0
833,-37.0,-7.0,51.0,1645192646.5,P16,D07,1,1,0
834,-37.0,-7.0,51.0,1645192646.53125,P16,D07,1,1,0
835,-37.0,-7.0,51.0,1645192646.5625,P16,D07,1,1,0
836,-37.0,-8.0,52.0,1645192646.59375,P16,D07,1,1,0
837,-37.0,-8.0,51.0,1645192646.625,P16,D07,1,1,0
838,-36.0,-8.0,51.0,1645192646.65625,P16,D07,1,1,0
839,-36.0,-9.0,51.0,1645192646.6875,P16,D07,1,1,0
840,-36.0,-8.0,52.0,1645192646.71875,P16,D07,1,1,0
841,-37.0,-8.0,51.0,1645192646.75,P16,D07,1,1,0
842,-37.0,-8.0,51.0,1645192646.78125,P16,D07,1,1,0
843,-36.0,-8.0,52.0,1645192646.8125,P16,D07,1,1,0
844,-36.0,-8.0,52.0,1645192646.84375,P16,D07,1,1,0
845,-36.0,-8.0,51.0,1645192646.875,P16,D07,1,1,0
846,-36.0,-8.0,51.0,1645192646.90625,P16,D07,1,1,0
847,-36.0,-8.0,51.0,1645192646.9375,P16,D07,1,1,0
848,-36.0,-8.0,52.0,1645192646.96875,P16,D07,1,1,0
849,-36.0,-8.0,52.0,1645192647.0,P16,D07,1,1,0
850,-36.0,-8.0,52.0,1645192647.03125,P16,D07,1,1,0
851,-37.0,-8.0,52.0,1645192647.0625,P16,D07,1,1,0
852,-37.0,-8.0,51.0,1645192647.09375,P16,D07,1,1,0
853,-36.0,-7.0,52.0,1645192647.125,P16,D07,1,1,0
854,-36.0,-7.0,51.0,1645192647.15625,P16,D07,1,1,0
855,-36.0,-7.0,52.0,1645192647.1875,P16,D07,1,1,0
856,-37.0,-7.0,51.0,1645192647.21875,P16,D07,1,1,0
857,-37.0,-7.0,51.0,1645192647.25,P16,D07,1,1,0
858,-36.0,-7.0,51.0,1645192647.28125,P16,D07,1,1,0
859,-36.0,-7.0,52.0,1645192647.3125,P16,D07,1,1,0
860,-36.0,-7.0,52.0,1645192647.34375,P16,D07,1,1,0
861,-36.0,-7.0,52.0,1645192647.375,P16,D07,1,1,0
862,-36.0,-7.0,52.0,1645192647.40625,P16,D07,1,1,0
863,-37.0,-7.0,52.0,1645192647.4375,P16,D07,1,1,0
864,-36.0,-6.0,52.0,1645192647.46875,P16,D07,1,1,0
865,-36.0,-6.0,51.0,1645192647.5,P16,D07,1,1,0
866,-36.0,-6.0,51.0,1645192647.53125,P16,D07,1,1,0
867,-37.0,-6.0,51.0,1645192647.5625,P16,D07,1,1,0
868,-37.0,-6.0,51.0,1645192647.59375,P16,D07,1,1,0
869,-37.0,-6.0,52.0,1645192647.625,P16,D07,1,1,0
870,-37.0,-5.0,51.0,1645192647.65625,P16,D07,1,1,0
871,-37.0,-5.0,51.0,1645192647.6875,P16,D07,1,1,0
872,-37.0,-6.0,52.0,1645192647.71875,P16,D07,1,1,0
873,-38.0,-5.0,51.0,1645192647.75,P16,D07,1,1,0
874,-37.0,-5.0,51.0,1645192647.78125,P16,D07,1,1,0
875,-37.0,-5.0,51.0,1645192647.8125,P16,D07,1,1,0
876,-36.0,-5.0,52.0,1645192647.84375,P16,D07,1,1,0
877,-38.0,-6.0,51.0,1645192647.875,P16,D07,1,1,0
878,-38.0,-5.0,51.0,1645192647.90625,P16,D07,1,1,0
879,-37.0,-5.0,51.0,1645192647.9375,P16,D07,1,1,0
880,-37.0,-4.0,52.0,1645192647.96875,P16,D07,1,1,0
881,-37.0,-4.0,51.0,1645192648.0,P16,D07,1,1,0
882,-37.0,-4.0,51.0,1645192648.03125,P16,D07,1,1,0
883,-37.0,-5.0,52.0,1645192648.0625,P16,D07,1,1,0
884,-37.0,-4.0,51.0,1645192648.09375,P16,D07,1,1,0
885,-37.0,-4.0,52.0,1645192648.125,P16,D07,1,1,0
886,-37.0,-4.0,51.0,1645192648.15625,P16,D07,1,1,0
887,-37.0,-5.0,51.0,1645192648.1875,P16,D07,1,1,0
888,-38.0,-5.0,52.0,1645192648.21875,P16,D07,1,1,0
889,-37.0,-4.0,51.0,1645192648.25,P16,D07,1,1,0
890,-37.0,-4.0,52.0,1645192648.28125,P16,D07,1,1,0
891,-37.0,-4.0,52.0,1645192648.3125,P16,D07,1,1,0
892,-37.0,-4.0,51.0,1645192648.34375,P16,D07,1,1,0
893,-37.0,-4.0,51.0,1645192648.375,P16,D07,1,1,0
894,-37.0,-4.0,51.0,1645192648.40625,P16,D07,1,1,0
895,-37.0,-5.0,51.0,1645192648.4375,P16,D07,1,1,0
896,-38.0,-5.0,51.0,1645192648.46875,P16,D07,1,1,0
897,-37.0,-5.0,51.0,1645192648.5,P16,D07,1,1,0
898,-37.0,-5.0,51.0,1645192648.53125,P16,D07,1,1,0
899,-37.0,-6.0,52.0,1645192648.5625,P16,D07,1,1,0
900,-38.0,-6.0,51.0,1645192648.59375,P16,D07,1,1,0
901,-37.0,-6.0,51.0,1645192648.625,P16,D07,1,1,0
902,-37.0,-6.0,51.0,1645192648.65625,P16,D07,1,1,0
903,-37.0,-6.0,51.0,1645192648.6875,P16,D07,1,1,0
904,-38.0,-6.0,51.0,1645192648.71875,P16,D07,1,1,0
905,-37.0,-6.0,51.0,1645192648.75,P16,D07,1,1,0
906,-37.0,-6.0,51.0,1645192648.78125,P16,D07,1,1,0
907,-37.0,-7.0,51.0,1645192648.8125,P16,D07,1,1,0
908,-37.0,-7.0,51.0,1645192648.84375,P16,D07,1,1,0
909,-37.0,-7.0,51.0,1645192648.875,P16,D07,1,1,0
910,-38.0,-7.0,51.0,1645192648.90625,P16,D07,1,1,0
911,-37.0,-6.0,51.0,1645192648.9375,P16,D07,1,1,0
912,-37.0,-7.0,51.0,1645192648.96875,P16,D07,1,1,0
913,-38.0,-6.0,51.0,1645192649.0,P16,D07,1,1,0
914,-38.0,-6.0,50.0,1645192649.03125,P16,D07,1,1,0
915,-36.0,-8.0,51.0,1645192649.0625,P16,D07,1,1,0
916,-37.0,-8.0,52.0,1645192649.09375,P16,D07,1,1,0
917,-38.0,-8.0,51.0,1645192649.125,P16,D07,1,1,0
918,-38.0,-7.0,50.0,1645192649.15625,P16,D07,1,1,0
919,-37.0,-7.0,51.0,1645192649.1875,P16,D07,1,1,0
920,-37.0,-8.0,51.0,1645192649.21875,P16,D07,1,1,0
921,-37.0,-10.0,51.0,1645192649.25,P16,D07,1,1,0
922,-38.0,-9.0,50.0,1645192649.28125,P16,D07,1,1,0
923,-38.0,-9.0,50.0,1645192649.3125,P16,D07,1,1,0
924,-38.0,-9.0,51.0,1645192649.34375,P16,D07,1,1,0
925,-38.0,-8.0,50.0,1645192649.375,P16,D07,1,1,0
926,-37.0,-8.0,51.0,1645192649.40625,P16,D07,1,1,0
927,-38.0,-7.0,51.0,1645192649.4375,P16,D07,1,1,0
928,-37.0,-8.0,51.0,1645192649.46875,P16,D07,1,1,0
929,-37.0,-9.0,50.0,1645192649.5,P16,D07,1,1,0
930,-39.0,-8.0,50.0,1645192649.53125,P16,D07,1,1,0
931,-38.0,-8.0,50.0,1645192649.5625,P16,D07,1,1,0
932,-38.0,-7.0,50.0,1645192649.59375,P16,D07,1,1,0
933,-38.0,-7.0,50.0,1645192649.625,P16,D07,1,1,0
934,-38.0,-8.0,50.0,1645192649.65625,P16,D07,1,1,0
935,-39.0,-8.0,50.0,1645192649.6875,P16,D07,1,1,0
936,-38.0,-8.0,50.0,1645192649.71875,P16,D07,1,1,0
937,-39.0,-7.0,50.0,1645192649.75,P16,D07,1,1,0
938,-39.0,-8.0,50.0,1645192649.78125,P16,D07,1,1,0
939,-39.0,-8.0,50.0,1645192649.8125,P16,D07,1,1,0
940,-38.0,-8.0,50.0,1645192649.84375,P16,D07,1,1,0
941,-38.0,-8.0,50.0,1645192649.875,P16,D07,1,1,0
942,-38.0,-8.0,50.0,1645192649.90625,P16,D07,1,1,0
943,-39.0,-7.0,50.0,1645192649.9375,P16,D07,1,1,0
944,-38.0,-7.0,50.0,1645192649.96875,P16,D07,1,1,0
945,-38.0,-7.0,50.0,1645192650.0,P16,D07,1,1,0
946,-38.0,-6.0,51.0,1645192650.03125,P16,D07,1,1,0
947,-38.0,-7.0,50.0,1645192650.0625,P16,D07,1,1,0
948,-38.0,-7.0,51.0,1645192650.09375,P16,D07,1,1,0
949,-38.0,-7.0,50.0,1645192650.125,P16,D07,1,1,0
950,-38.0,-6.0,51.0,1645192650.15625,P16,D07,1,1,0
951,-38.0,-5.0,51.0,1645192650.1875,P16,D07,1,1,0
952,-38.0,-5.0,51.0,1645192650.21875,P16,D07,1,1,0
953,-38.0,-5.0,51.0,1645192650.25,P16,D07,1,1,0
954,-38.0,-5.0,50.0,1645192650.28125,P16,D07,1,1,0
955,-39.0,-6.0,50.0,1645192650.3125,P16,D07,1,1,0
956,-39.0,-6.0,51.0,1645192650.34375,P16,D07,1,1,0
957,-37.0,-4.0,51.0,1645192650.375,P16,D07,1,1,0
958,-37.0,-3.0,51.0,1645192650.40625,P16,D07,1,1,0
959,-38.0,-3.0,51.0,1645192650.4375,P16,D07,1,1,0
960,-38.0,-4.0,51.0,1645192650.46875,P16,D07,1,1,0
961,-38.0,-4.0,51.0,1645192650.5,P16,D07,1,1,0
962,-38.0,-4.0,50.0,1645192650.53125,P16,D07,1,1,0
963,-38.0,-4.0,51.0,1645192650.5625,P16,D07,1,1,0
964,-37.0,-4.0,51.0,1645192650.59375,P16,D07,1,1,0
965,-38.0,-4.0,51.0,1645192650.625,P16,D07,1,1,0
966,-38.0,-3.0,51.0,1645192650.65625,P16,D07,1,1,0
967,-38.0,-3.0,51.0,1645192650.6875,P16,D07,1,1,0
968,-37.0,-4.0,51.0,1645192650.71875,P16,D07,1,1,0
969,-37.0,-4.0,51.0,1645192650.75,P16,D07,1,1,0
970,-38.0,-3.0,51.0,1645192650.78125,P16,D07,1,1,0
971,-38.0,-3.0,51.0,1645192650.8125,P16,D07,1,1,0
972,-38.0,-3.0,51.0,1645192650.84375,P16,D07,1,1,0
973,-37.0,-3.0,51.0,1645192650.875,P16,D07,1,1,0
974,-38.0,-4.0,51.0,1645192650.90625,P16,D07,1,1,0
975,-38.0,-4.0,51.0,1645192650.9375,P16,D07,1,1,0
976,-38.0,-3.0,50.0,1645192650.96875,P16,D07,1,1,0
977,-38.0,-4.0,51.0,1645192651.0,P16,D07,1,1,0
978,-38.0,-4.0,51.0,1645192651.03125,P16,D07,1,1,0
979,-39.0,-5.0,50.0,1645192651.0625,P16,D07,1,1,0
980,-41.0,-4.0,50.0,1645192651.09375,P16,D07,1,1,0
981,-37.0,-5.0,51.0,1645192651.125,P16,D07,1,1,0
982,-36.0,-4.0,52.0,1645192651.15625,P16,D07,1,1,0
983,-37.0,-4.0,51.0,1645192651.1875,P16,D07,1,1,0
984,-37.0,-5.0,51.0,1645192651.21875,P16,D07,1,1,0
985,-38.0,-6.0,51.0,1645192651.25,P16,D07,1,1,0
986,-37.0,-6.0,51.0,1645192651.28125,P16,D07,1,1,0
987,-38.0,-6.0,51.0,1645192651.3125,P16,D07,1,1,0
988,-37.0,-6.0,51.0,1645192651.34375,P16,D07,1,1,0
989,-37.0,-7.0,51.0,1645192651.375,P16,D07,1,1,0
990,-38.0,-6.0,51.0,1645192651.40625,P16,D07,1,1,0
991,-38.0,-7.0,51.0,1645192651.4375,P16,D07,1,1,0
992,-35.0,-9.0,51.0,1645192651.46875,P16,D07,1,1,0
993,-36.0,-9.0,51.0,1645192651.5,P16,D07,1,1,0
994,-38.0,-8.0,51.0,1645192651.53125,P16,D07,1,1,0
995,-38.0,-7.0,50.0,1645192651.5625,P16,D07,1,1,0
996,-38.0,-7.0,51.0,1645192651.59375,P16,D07,1,1,0
997,-37.0,-7.0,50.0,1645192651.625,P16,D07,1,1,0
998,-38.0,-8.0,51.0,1645192651.65625,P16,D07,1,1,0
999,-38.0,-8.0,50.0,1645192651.6875,P16,D07,1,1,0
1000,-37.0,-9.0,51.0,1645192651.71875,P16,D07,1,1,0
1001,-37.0,-9.0,51.0,1645192651.75,P16,D07,1,1,0
1002,-38.0,-9.0,51.0,1645192651.78125,P16,D07,1,1,0
1003,-38.0,-8.0,50.0,1645192651.8125,P16,D07,1,1,0
1004,-38.0,-8.0,50.0,1645192651.84375,P16,D07,1,1,0
1005,-37.0,-9.0,50.0,1645192651.875,P16,D07,1,1,0
1006,-38.0,-9.0,50.0,1645192651.90625,P16,D07,1,1,0
1007,-37.0,-10.0,50.0,1645192651.9375,P16,D07,1,1,0
1008,-37.0,-10.0,50.0,1645192651.96875,P16,D07,1,1,0
1009,-38.0,-10.0,50.0,1645192652.0,P16,D07,1,1,0
1010,-38.0,-10.0,51.0,1645192652.03125,P16,D07,1,1,0
1011,-38.0,-10.0,50.0,1645192652.0625,P16,D07,1,1,0
1012,-38.0,-10.0,50.0,1645192652.09375,P16,D07,1,1,0
1013,-38.0,-10.0,50.0,1645192652.125,P16,D07,1,1,0
1014,-37.0,-10.0,50.0,1645192652.15625,P16,D07,1,1,0
1015,-38.0,-10.0,50.0,1645192652.1875,P16,D07,1,1,0
1016,-38.0,-10.0,50.0,1645192652.21875,P16,D07,1,1,0
1017,-37.0,-11.0,50.0,1645192652.25,P16,D07,1,1,0
1018,-37.0,-11.0,51.0,1645192652.28125,P16,D07,1,1,0
1019,-39.0,-10.0,51.0,1645192652.3125,P16,D07,1,1,0
1020,-40.0,-8.0,49.0,1645192652.34375,P16,D07,1,1,0
1021,-39.0,-8.0,49.0,1645192652.375,P16,D07,1,1,0
1022,-38.0,-8.0,50.0,1645192652.40625,P16,D07,1,1,0
1023,-39.0,-8.0,50.0,1645192652.4375,P16,D07,1,1,0
1024,-39.0,-9.0,50.0,1645192652.46875,P16,D07,1,1,0
1025,-38.0,-8.0,50.0,1645192652.5,P16,D07,1,1,0
1026,-38.0,-8.0,50.0,1645192652.53125,P16,D07,1,1,0
1027,-39.0,-7.0,49.0,1645192652.5625,P16,D07,1,1,0
1028,-38.0,-7.0,50.0,1645192652.59375,P16,D07,1,1,0
1029,-37.0,-8.0,51.0,1645192652.625,P16,D07,1,1,0
1030,-38.0,-7.0,51.0,1645192652.65625,P16,D07,1,1,0
1031,-38.0,-6.0,50.0,1645192652.6875,P16,D07,1,1,0
1032,-38.0,-7.0,51.0,1645192652.71875,P16,D07,1,1,0
1033,-38.0,-7.0,50.0,1645192652.75,P16,D07,1,1,0
1034,-37.0,-8.0,51.0,1645192652.78125,P16,D07,1,1,0
1035,-39.0,-7.0,50.0,1645192652.8125,P16,D07,1,1,0
1036,-39.0,-6.0,50.0,1645192652.84375,P16,D07,1,1,0
1037,-39.0,-5.0,50.0,1645192652.875,P16,D07,1,1,0
1038,-38.0,-4.0,50.0,1645192652.90625,P16,D07,1,1,0
1039,-38.0,-5.0,50.0,1645192652.9375,P16,D07,1,1,0
1040,-40.0,-4.0,49.0,1645192652.96875,P16,D07,1,1,0
1041,-39.0,-4.0,50.0,1645192653.0,P16,D07,1,1,0
1042,-38.0,-4.0,50.0,1645192653.03125,P16,D07,1,1,0
1043,-39.0,-5.0,50.0,1645192653.0625,P16,D07,1,1,0
1044,-39.0,-4.0,50.0,1645192653.09375,P16,D07,1,1,0
1045,-39.0,-3.0,50.0,1645192653.125,P16,D07,1,1,0
1046,-38.0,-4.0,50.0,1645192653.15625,P16,D07,1,1,0
1047,-39.0,-4.0,50.0,1645192653.1875,P16,D07,1,1,0
1048,-39.0,-4.0,50.0,1645192653.21875,P16,D07,1,1,0
1049,-37.0,-5.0,51.0,1645192653.25,P16,D07,1,1,0
1050,-39.0,-5.0,51.0,1645192653.28125,P16,D07,1,1,0
1051,-39.0,-3.0,50.0,1645192653.3125,P16,D07,1,1,0
1052,-39.0,-4.0,50.0,1645192653.34375,P16,D07,1,1,0
1053,-39.0,-4.0,50.0,1645192653.375,P16,D07,1,1,0
1054,-38.0,-5.0,51.0,1645192653.40625,P16,D07,1,1,0
1055,-39.0,-5.0,50.0,1645192653.4375,P16,D07,1,1,0
1056,-39.0,-5.0,50.0,1645192653.46875,P16,D07,1,1,0
1057,-39.0,-4.0,50.0,1645192653.5,P16,D07,1,1,0
1058,-38.0,-4.0,49.0,1645192653.53125,P16,D07,1,1,0
1059,-36.0,-6.0,50.0,1645192653.5625,P16,D07,1,1,0
1060,-38.0,-7.0,52.0,1645192653.59375,P16,D07,1,1,0
1061,-39.0,-6.0,50.0,1645192653.625,P16,D07,1,1,0
1062,-39.0,-4.0,50.0,1645192653.65625,P16,D07,1,1,0
1063,-38.0,-4.0,50.0,1645192653.6875,P16,D07,1,1,0
1064,-37.0,-6.0,51.0,1645192653.71875,P16,D07,1,1,0
1065,-38.0,-7.0,51.0,1645192653.75,P16,D07,1,1,0
1066,-38.0,-7.0,50.0,1645192653.78125,P16,D07,1,1,0
1067,-38.0,-6.0,51.0,1645192653.8125,P16,D07,1,1,0
1068,-38.0,-6.0,50.0,1645192653.84375,P16,D07,1,1,0
1069,-38.0,-7.0,50.0,1645192653.875,P16,D07,1,1,0
1070,-38.0,-7.0,50.0,1645192653.90625,P16,D07,1,1,0
1071,-38.0,-8.0,50.0,1645192653.9375,P16,D07,1,1,0
1072,-38.0,-8.0,50.0,1645192653.96875,P16,D07,1,1,0
1073,-38.0,-8.0,50.0,1645192654.0,P16,D07,1,1,0
1074,-38.0,-8.0,51.0,1645192654.03125,P16,D07,1,1,0
1075,-37.0,-8.0,51.0,1645192654.0625,P16,D07,1,1,0
1076,-38.0,-8.0,50.0,1645192654.09375,P16,D07,1,1,0
1077,-37.0,-10.0,51.0,1645192654.125,P16,D07,1,1,0
1078,-38.0,-10.0,51.0,1645192654.15625,P16,D07,1,1,0
1079,-39.0,-9.0,50.0,1645192654.1875,P16,D07,1,1,0
1080,-38.0,-8.0,50.0,1645192654.21875,P16,D07,1,1,0
1081,-38.0,-8.0,50.0,1645192654.25,P16,D07,1,1,0
1082,-38.0,-10.0,50.0,1645192654.28125,P16,D07,1,1,0
1083,-38.0,-10.0,51.0,1645192654.3125,P16,D07,1,1,0
1084,-38.0,-10.0,50.0,1645192654.34375,P16,D07,1,1,0
1085,-38.0,-9.0,50.0,1645192654.375,P16,D07,1,1,0
1086,-38.0,-9.0,50.0,1645192654.40625,P16,D07,1,1,0
1087,-38.0,-10.0,50.0,1645192654.4375,P16,D07,1,1,0
1088,-38.0,-9.0,50.0,1645192654.46875,P16,D07,1,1,0
1089,-38.0,-9.0,50.0,1645192654.5,P16,D07,1,1,0
1090,-38.0,-10.0,50.0,1645192654.53125,P16,D07,1,1,0
1091,-38.0,-9.0,50.0,1645192654.5625,P16,D07,1,1,0
1092,-39.0,-8.0,50.0,1645192654.59375,P16,D07,1,1,0
1093,-38.0,-9.0,50.0,1645192654.625,P16,D07,1,1,0
1094,-39.0,-10.0,50.0,1645192654.65625,P16,D07,1,1,0
1095,-38.0,-9.0,50.0,1645192654.6875,P16,D07,1,1,0
1096,-37.0,-9.0,50.0,1645192654.71875,P16,D07,1,1,0
1097,-38.0,-9.0,50.0,1645192654.75,P16,D07,1,1,0
1098,-38.0,-8.0,50.0,1645192654.78125,P16,D07,1,1,0
1099,-38.0,-8.0,50.0,1645192654.8125,P16,D07,1,1,0
1100,-37.0,-8.0,50.0,1645192654.84375,P16,D07,1,1,0
1101,-38.0,-8.0,51.0,1645192654.875,P16,D07,1,1,0
1102,-38.0,-8.0,51.0,1645192654.90625,P16,D07,1,1,0
1103,-38.0,-8.0,51.0,1645192654.9375,P16,D07,1,1,0
1104,-38.0,-8.0,51.0,1645192654.96875,P16,D07,1,1,0
1105,-38.0,-7.0,50.0,1645192655.0,P16,D07,1,1,0
1106,-37.0,-7.0,51.0,1645192655.03125,P16,D07,1,1,0
1107,-38.0,-7.0,51.0,1645192655.0625,P16,D07,1,1,0
1108,-38.0,-7.0,50.0,1645192655.09375,P16,D07,1,1,0
1109,-38.0,-7.0,50.0,1645192655.125,P16,D07,1,1,0
1110,-38.0,-6.0,50.0,1645192655.15625,P16,D07,1,1,0
1111,-38.0,-6.0,50.0,1645192655.1875,P16,D07,1,1,0
1112,-37.0,-6.0,51.0,1645192655.21875,P16,D07,1,1,0
1113,-37.0,-6.0,51.0,1645192655.25,P16,D07,1,1,0
1114,-38.0,-6.0,51.0,1645192655.28125,P16,D07,1,1,0
1115,-38.0,-6.0,51.0,1645192655.3125,P16,D07,1,1,0
1116,-38.0,-6.0,51.0,1645192655.34375,P16,D07,1,1,0
1117,-38.0,-5.0,51.0,1645192655.375,P16,D07,1,1,0
1118,-38.0,-5.0,51.0,1645192655.40625,P16,D07,1,1,0
1119,-38.0,-4.0,51.0,1645192655.4375,P16,D07,1,1,0
1120,-37.0,-4.0,51.0,1645192655.46875,P16,D07,1,1,0
1121,-39.0,-5.0,50.0,1645192655.5,P16,D07,1,1,0
1122,-38.0,-4.0,50.0,1645192655.53125,P16,D07,1,1,0
1123,-38.0,-4.0,51.0,1645192655.5625,P16,D07,1,1,0
1124,-38.0,-4.0,51.0,1645192655.59375,P16,D07,1,1,0
1125,-38.0,-4.0,50.0,1645192655.625,P16,D07,1,1,0
1126,-38.0,-5.0,51.0,1645192655.65625,P16,D07,1,1,0
1127,-38.0,-4.0,51.0,1645192655.6875,P16,D07,1,1,0
1128,-38.0,-4.0,51.0,1645192655.71875,P16,D07,1,1,0
1129,-38.0,-5.0,51.0,1645192655.75,P16,D07,1,1,0
1130,-38.0,-4.0,51.0,1645192655.78125,P16,D07,1,1,0
1131,-38.0,-4.0,50.0,1645192655.8125,P16,D07,1,1,0
1132,-38.0,-5.0,50.0,1645192655.84375,P16,D07,1,1,0
1133,-38.0,-5.0,51.0,1645192655.875,P16,D07,1,1,0
1134,-38.0,-5.0,51.0,1645192655.90625,P16,D07,1,1,0
1135,-38.0,-4.0,50.0,1645192655.9375,P16,D07,1,1,0
1136,-38.0,-5.0,51.0,1645192655.96875,P16,D07,1,1,0
1137,-38.0,-5.0,50.0,1645192656.0,P16,D07,1,1,0
1138,-38.0,-5.0,50.0,1645192656.03125,P16,D07,1,1,0
1139,-38.0,-6.0,51.0,1645192656.0625,P16,D07,1,1,0
1140,-38.0,-6.0,50.0,1645192656.09375,P16,D07,1,1,0
1141,-39.0,-5.0,50.0,1645192656.125,P16,D07,1,1,0
1142,-38.0,-5.0,50.0,1645192656.15625,P16,D07,1,1,0
1143,-38.0,-5.0,51.0,1645192656.1875,P16,D07,1,1,0
1144,-38.0,-6.0,50.0,1645192656.21875,P16,D07,1,1,0
1145,-38.0,-6.0,50.0,1645192656.25,P16,D07,1,1,0
1146,-38.0,-7.0,50.0,1645192656.28125,P16,D07,1,1,0
1147,-38.0,-7.0,51.0,1645192656.3125,P16,D07,1,1,0
1148,-38.0,-7.0,50.0,1645192656.34375,P16,D07,1,1,0
1149,-39.0,-7.0,50.0,1645192656.375,P16,D07,1,1,0
1150,-37.0,-7.0,50.0,1645192656.40625,P16,D07,1,1,0
1151,-38.0,-7.0,51.0,1645192656.4375,P16,D07,1,1,0
1152,-38.0,-7.0,50.0,1645192656.46875,P16,D07,1,1,0
1153,-38.0,-7.0,50.0,1645192656.5,P16,D07,1,1,0
1154,-38.0,-8.0,50.0,1645192656.53125,P16,D07,1,1,0
1155,-38.0,-8.0,51.0,1645192656.5625,P16,D07,1,1,0
1156,-38.0,-8.0,50.0,1645192656.59375,P16,D07,1,1,0
1157,-38.0,-8.0,50.0,1645192656.625,P16,D07,1,1,0
1158,-38.0,-9.0,50.0,1645192656.65625,P16,D07,1,1,0
1159,-38.0,-9.0,50.0,1645192656.6875,P16,D07,1,1,0
1160,-38.0,-9.0,50.0,1645192656.71875,P16,D07,1,1,0
1161,-38.0,-9.0,50.0,1645192656.75,P16,D07,1,1,0
1162,-38.0,-10.0,50.0,1645192656.78125,P16,D07,1,1,0
1163,-38.0,-10.0,50.0,1645192656.8125,P16,D07,1,1,0
1164,-38.0,-10.0,50.0,1645192656.84375,P16,D07,1,1,0
1165,-38.0,-9.0,50.0,1645192656.875,P16,D07,1,1,0
1166,-38.0,-9.0,50.0,1645192656.90625,P16,D07,1,1,0
1167,-38.0,-9.0,50.0,1645192656.9375,P16,D07,1,1,0
1168,-38.0,-10.0,50.0,1645192656.96875,P16,D07,1,1,0
1169,-38.0,-10.0,50.0,1645192657.0,P16,D07,1,1,0
1170,-38.0,-10.0,50.0,1645192657.03125,P16,D07,1,1,0
1171,-38.0,-10.0,50.0,1645192657.0625,P16,D07,1,1,0
1172,-38.0,-10.0,50.0,1645192657.09375,P16,D07,1,1,0
1173,-38.0,-10.0,50.0,1645192657.125,P16,D07,1,1,0
1174,-38.0,-9.0,50.0,1645192657.15625,P16,D07,1,1,0
1175,-38.0,-9.0,50.0,1645192657.1875,P16,D07,1,1,0
1176,-38.0,-9.0,50.0,1645192657.21875,P16,D07,1,1,0
1177,-38.0,-10.0,50.0,1645192657.25,P16,D07,1,1,0
1178,-38.0,-10.0,50.0,1645192657.28125,P16,D07,1,1,0
1179,-38.0,-10.0,51.0,1645192657.3125,P16,D07,1,1,0
1180,-38.0,-10.0,50.0,1645192657.34375,P16,D07,1,1,0
1181,-38.0,-10.0,50.0,1645192657.375,P16,D07,1,1,0
1182,-38.0,-10.0,50.0,1645192657.40625,P16,D07,1,1,0
1183,-38.0,-10.0,51.0,1645192657.4375,P16,D07,1,1,0
1184,-38.0,-8.0,50.0,1645192657.46875,P16,D07,1,1,0
1185,-36.0,-8.0,51.0,1645192657.5,P16,D07,1,1,0
1186,-37.0,-8.0,51.0,1645192657.53125,P16,D07,1,1,0
1187,-37.0,-8.0,51.0,1645192657.5625,P16,D07,1,1,0
1188,-38.0,-8.0,51.0,1645192657.59375,P16,D07,1,1,0
1189,-37.0,-7.0,51.0,1645192657.625,P16,D07,1,1,0
1190,-37.0,-7.0,51.0,1645192657.65625,P16,D07,1,1,0
1191,-37.0,-7.0,51.0,1645192657.6875,P16,D07,1,1,0
1192,-37.0,-7.0,51.0,1645192657.71875,P16,D07,1,1,0
1193,-37.0,-7.0,51.0,1645192657.75,P16,D07,1,1,0
1194,-37.0,-7.0,51.0,1645192657.78125,P16,D07,1,1,0
1195,-37.0,-7.0,51.0,1645192657.8125,P16,D07,1,1,0
1196,-37.0,-7.0,51.0,1645192657.84375,P16,D07,1,1,0
1197,-38.0,-6.0,51.0,1645192657.875,P16,D07,1,1,0
1198,-38.0,-6.0,50.0,1645192657.90625,P16,D07,1,1,0
1199,-37.0,-6.0,51.0,1645192657.9375,P16,D07,1,1,0
1200,-38.0,-6.0,51.0,1645192657.96875,P16,D07,1,1,0
1201,-39.0,-6.0,50.0,1645192658.0,P16,D07,1,1,0
1202,-38.0,-6.0,51.0,1645192658.03125,P16,D07,1,1,0
1203,-37.0,-6.0,51.0,1645192658.0625,P16,D07,1,1,0
1204,-37.0,-6.0,51.0,1645192658.09375,P16,D07,1,1,0
1205,-37.0,-6.0,51.0,1645192658.125,P16,D07,1,1,0
1206,-37.0,-6.0,51.0,1645192658.15625,P16,D07,1,1,0
1207,-39.0,-5.0,51.0,1645192658.1875,P16,D07,1,1,0
1208,-38.0,-4.0,50.0,1645192658.21875,P16,D07,1,1,0
1209,-38.0,-5.0,51.0,1645192658.25,P16,D07,1,1,0
1210,-37.0,-5.0,51.0,1645192658.28125,P16,D07,1,1,0
1211,-37.0,-5.0,51.0,1645192658.3125,P16,D07,1,1,0
1212,-38.0,-5.0,51.0,1645192658.34375,P16,D07,1,1,0
1213,-38.0,-5.0,51.0,1645192658.375,P16,D07,1,1,0
1214,-38.0,-5.0,51.0,1645192658.40625,P16,D07,1,1,0
1215,-37.0,-6.0,51.0,1645192658.4375,P16,D07,1,1,0
1216,-38.0,-5.0,51.0,1645192658.46875,P16,D07,1,1,0
1217,-38.0,-5.0,50.0,1645192658.5,P16,D07,1,1,0
1218,-38.0,-4.0,51.0,1645192658.53125,P16,D07,1,1,0
1219,-38.0,-5.0,51.0,1645192658.5625,P16,D07,1,1,0
1220,-38.0,-6.0,51.0,1645192658.59375,P16,D07,1,1,0
1221,-38.0,-6.0,51.0,1645192658.625,P16,D07,1,1,0
1222,-38.0,-6.0,51.0,1645192658.65625,P16,D07,1,1,0
1223,-38.0,-6.0,51.0,1645192658.6875,P16,D07,1,1,0
1224,-37.0,-6.0,50.0,1645192658.71875,P16,D07,1,1,0
1225,-37.0,-7.0,51.0,1645192658.75,P16,D07,1,1,0
1226,-38.0,-7.0,51.0,1645192658.78125,P16,D07,1,1,0
1227,-38.0,-6.0,50.0,1645192658.8125,P16,D07,1,1,0
1228,-37.0,-7.0,50.0,1645192658.84375,P16,D07,1,1,0
1229,-38.0,-8.0,51.0,1645192658.875,P16,D07,1,1,0
1230,-38.0,-8.0,51.0,1645192658.90625,P16,D07,1,1,0
1231,-38.0,-7.0,50.0,1645192658.9375,P16,D07,1,1,0
1232,-37.0,-7.0,50.0,1645192658.96875,P16,D07,1,1,0
1233,-38.0,-8.0,51.0,1645192659.0,P16,D07,1,1,0
1234,-38.0,-8.0,50.0,1645192659.03125,P16,D07,1,1,0
1235,-38.0,-7.0,51.0,1645192659.0625,P16,D07,1,1,0
1236,-38.0,-8.0,51.0,1645192659.09375,P16,D07,1,1,0
1237,-37.0,-8.0,50.0,1645192659.125,P16,D07,1,1,0
1238,-37.0,-10.0,51.0,1645192659.15625,P16,D07,1,1,0
1239,-38.0,-10.0,51.0,1645192659.1875,P16,D07,1,1,0
1240,-38.0,-9.0,50.0,1645192659.21875,P16,D07,1,1,0
1241,-38.0,-8.0,50.0,1645192659.25,P16,D07,1,1,0
1242,-38.0,-8.0,51.0,1645192659.28125,P16,D07,1,1,0
1243,-37.0,-9.0,51.0,1645192659.3125,P16,D07,1,1,0
1244,-38.0,-9.0,50.0,1645192659.34375,P16,D07,1,1,0
1245,-38.0,-9.0,50.0,1645192659.375,P16,D07,1,1,0
1246,-37.0,-9.0,51.0,1645192659.40625,P16,D07,1,1,0
1247,-38.0,-9.0,51.0,1645192659.4375,P16,D07,1,1,0
1248,-38.0,-9.0,51.0,1645192659.46875,P16,D07,1,1,0
1249,-38.0,-9.0,51.0,1645192659.5,P16,D07,1,1,0
1250,-37.0,-9.0,51.0,1645192659.53125,P16,D07,1,1,0
1251,-37.0,-10.0,51.0,1645192659.5625,P16,D07,1,1,0
1252,-38.0,-10.0,51.0,1645192659.59375,P16,D07,1,1,0
1253,-37.0,-9.0,51.0,1645192659.625,P16,D07,1,1,0
1254,-37.0,-9.0,51.0,1645192659.65625,P16,D07,1,1,0
1255,-37.0,-9.0,51.0,1645192659.6875,P16,D07,1,1,0
1256,-38.0,-9.0,50.0,1645192659.71875,P16,D07,1,1,0
1257,-37.0,-9.0,50.0,1645192659.75,P16,D07,1,1,0
1258,-37.0,-10.0,50.0,1645192659.78125,P16,D07,1,1,0
1259,-37.0,-10.0,50.0,1645192659.8125,P16,D07,1,1,0
1260,-38.0,-9.0,50.0,1645192659.84375,P16,D07,1,1,0
1261,-38.0,-9.0,50.0,1645192659.875,P16,D07,1,1,0
1262,-38.0,-9.0,50.0,1645192659.90625,P16,D07,1,1,0
1263,-37.0,-10.0,50.0,1645192659.9375,P16,D07,1,1,0
1264,-38.0,-10.0,51.0,1645192659.96875,P16,D07,1,1,0
1265,-38.0,-9.0,51.0,1645192660.0,P16,D07,1,1,0
1266,-38.0,-9.0,51.0,1645192660.03125,P16,D07,1,1,0
1267,-37.0,-9.0,51.0,1645192660.0625,P16,D07,1,1,0
1268,-37.0,-9.0,50.0,1645192660.09375,P16,D07,1,1,0
1269,-38.0,-9.0,50.0,1645192660.125,P16,D07,1,1,0
1270,-37.0,-9.0,51.0,1645192660.15625,P16,D07,1,1,0
1271,-36.0,-10.0,51.0,1645192660.1875,P16,D07,1,1,0
1272,-37.0,-9.0,51.0,1645192660.21875,P16,D07,1,1,0
1273,-37.0,-9.0,51.0,1645192660.25,P16,D07,1,1,0
1274,-38.0,-8.0,51.0,1645192660.28125,P16,D07,1,1,0
1275,-37.0,-8.0,51.0,1645192660.3125,P16,D07,1,1,0
1276,-37.0,-8.0,51.0,1645192660.34375,P16,D07,1,1,0
1277,-37.0,-8.0,51.0,1645192660.375,P16,D07,1,1,0
1278,-38.0,-8.0,51.0,1645192660.40625,P16,D07,1,1,0
1279,-37.0,-8.0,51.0,1645192660.4375,P16,D07,1,1,0
1280,-37.0,-8.0,51.0,1645192660.46875,P16,D07,1,1,0
1281,-38.0,-8.0,50.0,1645192660.5,P16,D07,1,1,0
1282,-38.0,-8.0,50.0,1645192660.53125,P16,D07,1,1,0
1283,-38.0,-8.0,50.0,1645192660.5625,P16,D07,1,1,0
1284,-38.0,-7.0,50.0,1645192660.59375,P16,D07,1,1,0
1285,-38.0,-7.0,51.0,1645192660.625,P16,D07,1,1,0
1286,-38.0,-7.0,50.0,1645192660.65625,P16,D07,1,1,0
1287,-39.0,-7.0,50.0,1645192660.6875,P16,D07,1,1,0
1288,-37.0,-7.0,51.0,1645192660.71875,P16,D07,1,1,0
1289,-38.0,-7.0,51.0,1645192660.75,P16,D07,1,1,0
1290,-38.0,-6.0,50.0,1645192660.78125,P16,D07,1,1,0
1291,-38.0,-7.0,51.0,1645192660.8125,P16,D07,1,1,0
1292,-39.0,-6.0,50.0,1645192660.84375,P16,D07,1,1,0
1293,-38.0,-6.0,50.0,1645192660.875,P16,D07,1,1,0
1294,-39.0,-6.0,50.0,1645192660.90625,P16,D07,1,1,0
1295,-38.0,-6.0,51.0,1645192660.9375,P16,D07,1,1,0
1296,-38.0,-6.0,50.0,1645192660.96875,P16,D07,1,1,0
1297,-38.0,-6.0,51.0,1645192661.0,P16,D07,1,1,0
1298,-38.0,-5.0,51.0,1645192661.03125,P16,D07,1,1,0
1299,-38.0,-5.0,50.0,1645192661.0625,P16,D07,1,1,0
1300,-38.0,-6.0,50.0,1645192661.09375,P16,D07,1,1,0
1301,-38.0,-5.0,51.0,1645192661.125,P16,D07,1,1,0
1302,-38.0,-5.0,51.0,1645192661.15625,P16,D07,1,1,0
1303,-38.0,-5.0,50.0,1645192661.1875,P16,D07,1,1,0
1304,-38.0,-5.0,50.0,1645192661.21875,P16,D07,1,1,0
1305,-38.0,-5.0,50.0,1645192661.25,P16,D07,1,1,0
1306,-39.0,-5.0,50.0,1645192661.28125,P16,D07,1,1,0
1307,-38.0,-5.0,50.0,1645192661.3125,P16,D07,1,1,0
1308,-38.0,-5.0,51.0,1645192661.34375,P16,D07,1,1,0
1309,-38.0,-5.0,51.0,1645192661.375,P16,D07,1,1,0
1310,-38.0,-5.0,51.0,1645192661.40625,P16,D07,1,1,0
1311,-38.0,-4.0,50.0,1645192661.4375,P16,D07,1,1,0
1312,-38.0,-6.0,51.0,1645192661.46875,P16,D07,1,1,0
1313,-38.0,-5.0,51.0,1645192661.5,P16,D07,1,1,0
1314,-38.0,-5.0,50.0,1645192661.53125,P16,D07,1,1,0
1315,-38.0,-5.0,50.0,1645192661.5625,P16,D07,1,1,0
1316,-37.0,-7.0,51.0,1645192661.59375,P16,D07,1,1,0
1317,-38.0,-6.0,51.0,1645192661.625,P16,D07,1,1,0
1318,-39.0,-6.0,50.0,1645192661.65625,P16,D07,1,1,0
1319,-38.0,-6.0,51.0,1645192661.6875,P16,D07,1,1,0
1320,-38.0,-6.0,51.0,1645192661.71875,P16,D07,1,1,0
1321,-37.0,-7.0,51.0,1645192661.75,P16,D07,1,1,0
1322,-38.0,-7.0,51.0,1645192661.78125,P16,D07,1,1,0
1323,-38.0,-6.0,50.0,1645192661.8125,P16,D07,1,1,0
1324,-38.0,-6.0,50.0,1645192661.84375,P16,D07,1,1,0
1325,-38.0,-7.0,50.0,1645192661.875,P16,D07,1,1,0
1326,-37.0,-7.0,50.0,1645192661.90625,P16,D07,1,1,0
1327,-38.0,-7.0,50.0,1645192661.9375,P16,D07,1,1,0
1328,-38.0,-7.0,50.0,1645192661.96875,P16,D07,1,1,0
1329,-38.0,-7.0,51.0,1645192662.0,P16,D07,1,1,0
1330,-38.0,-7.0,51.0,1645192662.03125,P16,D07,1,1,0
1331,-38.0,-8.0,50.0,1645192662.0625,P16,D07,1,1,0
1332,-38.0,-7.0,50.0,1645192662.09375,P16,D07,1,1,0
1333,-37.0,-8.0,51.0,1645192662.125,P16,D07,1,1,0
1334,-38.0,-8.0,51.0,1645192662.15625,P16,D07,1,1,0
1335,-38.0,-7.0,50.0,1645192662.1875,P16,D07,1,1,0
1336,-37.0,-8.0,50.0,1645192662.21875,P16,D07,1,1,0
1337,-37.0,-8.0,51.0,1645192662.25,P16,D07,1,1,0
1338,-38.0,-8.0,50.0,1645192662.28125,P16,D07,1,1,0
1339,-38.0,-8.0,50.0,1645192662.3125,P16,D07,1,1,0
1340,-38.0,-8.0,50.0,1645192662.34375,P16,D07,1,1,0
1341,-38.0,-8.0,51.0,1645192662.375,P16,D07,1,1,0
1342,-38.0,-8.0,50.0,1645192662.40625,P16,D07,1,1,0
1343,-38.0,-8.0,50.0,1645192662.4375,P16,D07,1,1,0
1344,-38.0,-8.0,51.0,1645192662.46875,P16,D07,1,1,0
1345,-39.0,-8.0,50.0,1645192662.5,P16,D07,1,1,0
1346,-38.0,-8.0,50.0,1645192662.53125,P16,D07,1,1,0
1347,-38.0,-8.0,50.0,1645192662.5625,P16,D07,1,1,0
1348,-39.0,-8.0,50.0,1645192662.59375,P16,D07,1,1,0
1349,-39.0,-8.0,50.0,1645192662.625,P16,D07,1,1,0
1350,-38.0,-8.0,50.0,1645192662.65625,P16,D07,1,1,0
1351,-38.0,-8.0,50.0,1645192662.6875,P16,D07,1,1,0
1352,-39.0,-8.0,50.0,1645192662.71875,P16,D07,1,1,0
1353,-39.0,-8.0,50.0,1645192662.75,P16,D07,1,1,0
1354,-38.0,-7.0,50.0,1645192662.78125,P16,D07,1,1,0
1355,-39.0,-7.0,50.0,1645192662.8125,P16,D07,1,1,0
1356,-38.0,-6.0,50.0,1645192662.84375,P16,D07,1,1,0
1357,-38.0,-6.0,50.0,1645192662.875,P16,D07,1,1,0
1358,-38.0,-6.0,51.0,1645192662.90625,P16,D07,1,1,0
1359,-38.0,-7.0,51.0,1645192662.9375,P16,D07,1,1,0
1360,-38.0,-7.0,50.0,1645192662.96875,P16,D07,1,1,0
1361,-38.0,-6.0,51.0,1645192663.0,P16,D07,1,1,0
1362,-38.0,-6.0,51.0,1645192663.03125,P16,D07,1,1,0
1363,-38.0,-5.0,50.0,1645192663.0625,P16,D07,1,1,0
1364,-38.0,-5.0,50.0,1645192663.09375,P16,D07,1,1,0
1365,-38.0,-5.0,50.0,1645192663.125,P16,D07,1,1,0
1366,-38.0,-6.0,51.0,1645192663.15625,P16,D07,1,1,0
1367,-38.0,-6.0,51.0,1645192663.1875,P16,D07,1,1,0
1368,-38.0,-6.0,50.0,1645192663.21875,P16,D07,1,1,0
1369,-38.0,-5.0,51.0,1645192663.25,P16,D07,1,1,0
1370,-38.0,-6.0,51.0,1645192663.28125,P16,D07,1,1,0
1371,-39.0,-6.0,51.0,1645192663.3125,P16,D07,1,1,0
1372,-39.0,-4.0,50.0,1645192663.34375,P16,D07,1,1,0
1373,-38.0,-3.0,50.0,1645192663.375,P16,D07,1,1,0
1374,-38.0,-5.0,51.0,1645192663.40625,P16,D07,1,1,0
1375,-39.0,-5.0,50.0,1645192663.4375,P16,D07,1,1,0
1376,-39.0,-4.0,50.0,1645192663.46875,P16,D07,1,1,0
1377,-38.0,-3.0,50.0,1645192663.5,P16,D07,1,1,0
1378,-38.0,-4.0,50.0,1645192663.53125,P16,D07,1,1,0
1379,-38.0,-5.0,51.0,1645192663.5625,P16,D07,1,1,0
1380,-39.0,-4.0,50.0,1645192663.59375,P16,D07,1,1,0
1381,-38.0,-4.0,50.0,1645192663.625,P16,D07,1,1,0
1382,-38.0,-4.0,50.0,1645192663.65625,P16,D07,1,1,0
1383,-39.0,-4.0,50.0,1645192663.6875,P16,D07,1,1,0
1384,-38.0,-4.0,51.0,1645192663.71875,P16,D07,1,1,0
1385,-38.0,-3.0,51.0,1645192663.75,P16,D07,1,1,0
1386,-38.0,-3.0,51.0,1645192663.78125,P16,D07,1,1,0
1387,-39.0,-3.0,51.0,1645192663.8125,P16,D07,1,1,0
1388,-38.0,-3.0,50.0,1645192663.84375,P16,D07,1,1,0
1389,-38.0,-3.0,50.0,1645192663.875,P16,D07,1,1,0
1390,-38.0,-4.0,51.0,1645192663.90625,P16,D07,1,1,0
1391,-38.0,-4.0,50.0,1645192663.9375,P16,D07,1,1,0
1392,-38.0,-4.0,50.0,1645192663.96875,P16,D07,1,1,0
1393,-38.0,-3.0,50.0,1645192664.0,P16,D07,1,1,0
1394,-38.0,-3.0,50.0,1645192664.03125,P16,D07,1,1,0
1395,-39.0,-3.0,50.0,1645192664.0625,P16,D07,1,1,0
1396,-39.0,-4.0,50.0,1645192664.09375,P16,D07,1,1,0
1397,-38.0,-5.0,50.0,1645192664.125,P16,D07,1,1,0
1398,-39.0,-6.0,50.0,1645192664.15625,P16,D07,1,1,0
1399,-39.0,-6.0,50.0,1645192664.1875,P16,D07,1,1,0
1400,-38.0,-6.0,51.0,1645192664.21875,P16,D07,1,1,0
1401,-38.0,-7.0,51.0,1645192664.25,P16,D07,1,1,0
1402,-38.0,-6.0,50.0,1645192664.28125,P16,D07,1,1,0
1403,-39.0,-6.0,50.0,1645192664.3125,P16,D07,1,1,0
1404,-39.0,-6.0,50.0,1645192664.34375,P16,D07,1,1,0
1405,-39.0,-6.0,50.0,1645192664.375,P16,D07,1,1,0
1406,-38.0,-5.0,51.0,1645192664.40625,P16,D07,1,1,0
1407,-39.0,-5.0,49.0,1645192664.4375,P16,D07,1,1,0
1408,-37.0,-6.0,51.0,1645192664.46875,P16,D07,1,1,0
1409,-39.0,-5.0,50.0,1645192664.5,P16,D07,1,1,0
1410,-41.0,-5.0,49.0,1645192664.53125,P16,D07,1,1,0
1411,-36.0,-6.0,52.0,1645192664.5625,P16,D07,1,1,0
1412,-37.0,-6.0,51.0,1645192664.59375,P16,D07,1,1,0
1413,-40.0,-6.0,49.0,1645192664.625,P16,D07,1,1,0
1414,-38.0,-6.0,50.0,1645192664.65625,P16,D07,1,1,0
1415,-38.0,-6.0,50.0,1645192664.6875,P16,D07,1,1,0
1416,-40.0,-5.0,49.0,1645192664.71875,P16,D07,1,1,0
1417,-38.0,-6.0,50.0,1645192664.75,P16,D07,1,1,0
1418,-39.0,-6.0,50.0,1645192664.78125,P16,D07,1,1,0
1419,-39.0,-6.0,50.0,1645192664.8125,P16,D07,1,1,0
1420,-38.0,-7.0,50.0,1645192664.84375,P16,D07,1,1,0
1421,-38.0,-6.0,50.0,1645192664.875,P16,D07,1,1,0
1422,-39.0,-7.0,50.0,1645192664.90625,P16,D07,1,1,0
1423,-39.0,-7.0,50.0,1645192664.9375,P16,D07,1,1,0
1424,-39.0,-6.0,50.0,1645192664.96875,P16,D07,1,1,0
1425,-39.0,-6.0,50.0,1645192665.0,P16,D07,1,1,0
1426,-38.0,-6.0,50.0,1645192665.03125,P16,D07,1,1,0
1427,-38.0,-7.0,50.0,1645192665.0625,P16,D07,1,1,0
1428,-39.0,-6.0,50.0,1645192665.09375,P16,D07,1,1,0
1429,-39.0,-6.0,50.0,1645192665.125,P16,D07,1,1,0
1430,-39.0,-6.0,50.0,1645192665.15625,P16,D07,1,1,0
1431,-39.0,-7.0,50.0,1645192665.1875,P16,D07,1,1,0
1432,-39.0,-6.0,50.0,1645192665.21875,P16,D07,1,1,0
1433,-38.0,-6.0,50.0,1645192665.25,P16,D07,1,1,0
1434,-39.0,-6.0,50.0,1645192665.28125,P16,D07,1,1,0
1435,-39.0,-6.0,50.0,1645192665.3125,P16,D07,1,1,0
1436,-39.0,-7.0,50.0,1645192665.34375,P16,D07,1,1,0
1437,-39.0,-7.0,51.0,1645192665.375,P16,D07,1,1,0
1438,-39.0,-6.0,50.0,1645192665.40625,P16,D07,1,1,0
1439,-38.0,-6.0,50.0,1645192665.4375,P16,D07,1,1,0
1440,-39.0,-6.0,50.0,1645192665.46875,P16,D07,1,1,0
1441,-39.0,-6.0,50.0,1645192665.5,P16,D07,1,1,0
1442,-39.0,-6.0,50.0,1645192665.53125,P16,D07,1,1,0
1443,-38.0,-6.0,50.0,1645192665.5625,P16,D07,1,1,0
1444,-39.0,-7.0,50.0,1645192665.59375,P16,D07,1,1,0
1445,-39.0,-7.0,50.0,1645192665.625,P16,D07,1,1,0
1446,-39.0,-6.0,50.0,1645192665.65625,P16,D07,1,1,0
1447,-39.0,-6.0,50.0,1645192665.6875,P16,D07,1,1,0
1448,-39.0,-6.0,50.0,1645192665.71875,P16,D07,1,1,0
1449,-38.0,-6.0,50.0,1645192665.75,P16,D07,1,1,0
1450,-39.0,-7.0,50.0,1645192665.78125,P16,D07,1,1,0
1451,-39.0,-6.0,50.0,1645192665.8125,P16,D07,1,1,0
1452,-39.0,-6.0,50.0,1645192665.84375,P16,D07,1,1,0
1453,-39.0,-7.0,50.0,1645192665.875,P16,D07,1,1,0
1454,-39.0,-7.0,50.0,1645192665.90625,P16,D07,1,1,0
1455,-39.0,-6.0,50.0,1645192665.9375,P16,D07,1,1,0
1456,-39.0,-6.0,50.0,1645192665.96875,P16,D07,1,1,0
1457,-38.0,-7.0,50.0,1645192666.0,P16,D07,1,1,0
1458,-38.0,-8.0,50.0,1645192666.03125,P16,D07,1,1,0
1459,-39.0,-7.0,50.0,1645192666.0625,P16,D07,1,1,0
1460,-39.0,-7.0,49.0,1645192666.09375,P16,D07,1,1,0
1461,-39.0,-7.0,50.0,1645192666.125,P16,D07,1,1,0
1462,-39.0,-7.0,50.0,1645192666.15625,P16,D07,1,1,0
1463,-39.0,-7.0,49.0,1645192666.1875,P16,D07,1,1,0
1464,-39.0,-7.0,49.0,1645192666.21875,P16,D07,1,1,0
1465,-39.0,-7.0,49.0,1645192666.25,P16,D07,1,1,0
1466,-40.0,-7.0,49.0,1645192666.28125,P16,D07,1,1,0
1467,-39.0,-7.0,50.0,1645192666.3125,P16,D07,1,1,0
1468,-40.0,-8.0,49.0,1645192666.34375,P16,D07,1,1,0
1469,-40.0,-8.0,48.0,1645192666.375,P16,D07,1,1,0
1470,-39.0,-9.0,50.0,1645192666.40625,P16,D07,1,1,0
1471,-37.0,-8.0,51.0,1645192666.4375,P16,D07,1,1,0
1472,-40.0,-8.0,49.0,1645192666.46875,P16,D07,1,1,0
1473,-39.0,-8.0,49.0,1645192666.5,P16,D07,1,1,0
1474,-38.0,-8.0,50.0,1645192666.53125,P16,D07,1,1,0
1475,-39.0,-9.0,49.0,1645192666.5625,P16,D07,1,1,0
1476,-40.0,-9.0,49.0,1645192666.59375,P16,D07,1,1,0
1477,-39.0,-9.0,49.0,1645192666.625,P16,D07,1,1,0
1478,-39.0,-9.0,50.0,1645192666.65625,P16,D07,1,1,0
1479,-40.0,-9.0,49.0,1645192666.6875,P16,D07,1,1,0
1480,-40.0,-9.0,49.0,1645192666.71875,P16,D07,1,1,0
1481,-40.0,-9.0,49.0,1645192666.75,P16,D07,1,1,0
1482,-39.0,-9.0,50.0,1645192666.78125,P16,D07,1,1,0
1483,-39.0,-8.0,49.0,1645192666.8125,P16,D07,1,1,0
1484,-39.0,-8.0,50.0,1645192666.84375,P16,D07,1,1,0
1485,-38.0,-8.0,50.0,1645192666.875,P16,D07,1,1,0
1486,-39.0,-9.0,49.0,1645192666.90625,P16,D07,1,1,0
1487,-40.0,-9.0,49.0,1645192666.9375,P16,D07,1,1,0
1488,-39.0,-7.0,49.0,1645192666.96875,P16,D07,1,1,0
1489,-39.0,-6.0,49.0,1645192667.0,P16,D07,1,1,0
1490,-40.0,-6.0,49.0,1645192667.03125,P16,D07,1,1,0
1491,-39.0,-5.0,49.0,1645192667.0625,P16,D07,1,1,0
1492,-39.0,-6.0,49.0,1645192667.09375,P16,D07,1,1,0
1493,-39.0,-7.0,50.0,1645192667.125,P16,D07,1,1,0
1494,-39.0,-7.0,50.0,1645192667.15625,P16,D07,1,1,0
1495,-39.0,-7.0,50.0,1645192667.1875,P16,D07,1,1,0
1496,-38.0,-5.0,50.0,1645192667.21875,P16,D07,1,1,0
1497,-39.0,-5.0,50.0,1645192667.25,P16,D07,1,1,0
1498,-39.0,-5.0,50.0,1645192667.28125,P16,D07,1,1,0
1499,-39.0,-6.0,50.0,1645192667.3125,P16,D07,1,1,0
1500,-39.0,-5.0,50.0,1645192667.34375,P16,D07,1,1,0
1501,-38.0,-4.0,50.0,1645192667.375,P16,D07,1,1,0
1502,-40.0,-4.0,50.0,1645192667.40625,P16,D07,1,1,0
1503,-39.0,-4.0,50.0,1645192667.4375,P16,D07,1,1,0
1504,-39.0,-3.0,50.0,1645192667.46875,P16,D07,1,1,0
1505,-38.0,-4.0,50.0,1645192667.5,P16,D07,1,1,0
1506,-37.0,-6.0,51.0,1645192667.53125,P16,D07,1,1,0
1507,-39.0,-5.0,51.0,1645192667.5625,P16,D07,1,1,0
1508,-39.0,-4.0,50.0,1645192667.59375,P16,D07,1,1,0
1509,-39.0,-1.0,50.0,1645192667.625,P16,D07,1,1,0
1510,-38.0,-2.0,50.0,1645192667.65625,P16,D07,1,1,0
1511,-38.0,-3.0,50.0,1645192667.6875,P16,D07,1,1,0
1512,-40.0,-3.0,50.0,1645192667.71875,P16,D07,1,1,0
1513,-39.0,-3.0,50.0,1645192667.75,P16,D07,1,1,0
1514,-38.0,-3.0,50.0,1645192667.78125,P16,D07,1,1,0
1515,-39.0,-3.0,50.0,1645192667.8125,P16,D07,1,1,0
1516,-39.0,-4.0,50.0,1645192667.84375,P16,D07,1,1,0
1517,-40.0,-4.0,50.0,1645192667.875,P16,D07,1,1,0
1518,-39.0,-4.0,49.0,1645192667.90625,P16,D07,1,1,0
1519,-39.0,-5.0,50.0,1645192667.9375,P16,D07,1,1,0
1520,-40.0,-6.0,49.0,1645192667.96875,P16,D07,1,1,0
1521,-38.0,-7.0,51.0,1645192668.0,P16,D07,1,1,0
1522,-39.0,-8.0,51.0,1645192668.03125,P16,D07,1,1,0
1523,-39.0,-7.0,50.0,1645192668.0625,P16,D07,1,1,0
1524,-37.0,-6.0,50.0,1645192668.09375,P16,D07,1,1,0
1525,-38.0,-7.0,51.0,1645192668.125,P16,D07,1,1,0
1526,-38.0,-7.0,51.0,1645192668.15625,P16,D07,1,1,0
1527,-39.0,-7.0,50.0,1645192668.1875,P16,D07,1,1,0
1528,-39.0,-7.0,50.0,1645192668.21875,P16,D07,1,1,0
1529,-39.0,-7.0,50.0,1645192668.25,P16,D07,1,1,0
1530,-38.0,-6.0,50.0,1645192668.28125,P16,D07,1,1,0
1531,-38.0,-5.0,50.0,1645192668.3125,P16,D07,1,1,0
1532,-38.0,-7.0,50.0,1645192668.34375,P16,D07,1,1,0
1533,-38.0,-7.0,50.0,1645192668.375,P16,D07,1,1,0
1534,-39.0,-6.0,50.0,1645192668.40625,P16,D07,1,1,0
1535,-39.0,-6.0,50.0,1645192668.4375,P16,D07,1,1,0
1536,-38.0,-6.0,50.0,1645192668.46875,P16,D07,1,1,0
1537,-38.0,-7.0,51.0,1645192668.5,P16,D07,1,1,0
1538,-38.0,-7.0,50.0,1645192668.53125,P16,D07,1,1,0
1539,-39.0,-7.0,50.0,1645192668.5625,P16,D07,1,1,0
1540,-39.0,-7.0,50.0,1645192668.59375,P16,D07,1,1,0
1541,-38.0,-7.0,50.0,1645192668.625,P16,D07,1,1,0
1542,-38.0,-7.0,50.0,1645192668.65625,P16,D07,1,1,0
1543,-39.0,-8.0,50.0,1645192668.6875,P16,D07,1,1,0
1544,-39.0,-7.0,50.0,1645192668.71875,P16,D07,1,1,0
1545,-39.0,-7.0,50.0,1645192668.75,P16,D07,1,1,0
1546,-38.0,-7.0,50.0,1645192668.78125,P16,D07,1,1,0
1547,-38.0,-8.0,50.0,1645192668.8125,P16,D07,1,1,0
1548,-39.0,-8.0,50.0,1645192668.84375,P16,D07,1,1,0
1549,-39.0,-8.0,50.0,1645192668.875,P16,D07,1,1,0
1550,-39.0,-8.0,50.0,1645192668.90625,P16,D07,1,1,0
1551,-39.0,-8.0,50.0,1645192668.9375,P16,D07,1,1,0
1552,-39.0,-8.0,50.0,1645192668.96875,P16,D07,1,1,0
1553,-38.0,-8.0,50.0,1645192669.0,P16,D07,1,1,0
1554,-39.0,-8.0,50.0,1645192669.03125,P16,D07,1,1,0
1555,-39.0,-8.0,50.0,1645192669.0625,P16,D07,1,1,0
1556,-39.0,-8.0,50.0,1645192669.09375,P16,D07,1,1,0
1557,-38.0,-8.0,50.0,1645192669.125,P16,D07,1,1,0
1558,-39.0,-8.0,51.0,1645192669.15625,P16,D07,1,1,0
1559,-42.0,-7.0,51.0,1645192669.1875,P16,D07,1,1,0
1560,-47.0,-10.0,52.0,1645192669.21875,P16,D07,1,1,0
1561,-36.0,-11.0,54.0,1645192669.25,P16,D07,1,1,0
1562,-30.0,-9.0,54.0,1645192669.28125,P16,D07,1,1,0
1563,-31.0,-9.0,53.0,1645192669.3125,P16,D07,1,1,0
1564,-35.0,-7.0,53.0,1645192669.34375,P16,D07,1,1,0
1565,-32.0,-8.0,52.0,1645192669.375,P16,D07,1,1,0
1566,-31.0,-8.0,53.0,1645192669.40625,P16,D07,1,1,0
1567,-32.0,-9.0,52.0,1645192669.4375,P16,D07,1,1,0
1568,-32.0,-8.0,53.0,1645192669.46875,P16,D07,1,1,0
1569,-35.0,-10.0,57.0,1645192669.5,P16,D07,1,1,0
1570,-30.0,-11.0,56.0,1645192669.53125,P16,D07,1,1,0
1571,-30.0,-10.0,53.0,1645192669.5625,P16,D07,1,1,0
1572,-29.0,-11.0,51.0,1645192669.59375,P16,D07,1,1,0
1573,-24.0,-9.0,51.0,1645192669.625,P16,D07,1,1,0
1574,-24.0,-8.0,50.0,1645192669.65625,P16,D07,1,1,0
1575,-27.0,-3.0,51.0,1645192669.6875,P16,D07,1,1,0
1576,-27.0,-1.0,52.0,1645192669.71875,P16,D07,1,1,0
1577,-24.0,-1.0,53.0,1645192669.75,P16,D07,1,1,0
1578,-41.0,7.0,74.0,1645192669.78125,P16,D07,1,1,0
1579,-37.0,-4.0,67.0,1645192669.8125,P16,D07,1,1,0
1580,-31.0,-3.0,55.0,1645192669.84375,P16,D07,1,1,0
1581,-31.0,-4.0,56.0,1645192669.875,P16,D07,1,1,0
1582,-28.0,-3.0,57.0,1645192669.90625,P16,D07,1,1,0
1583,-27.0,-4.0,57.0,1645192669.9375,P16,D07,1,1,0
1584,-30.0,-6.0,56.0,1645192669.96875,P16,D07,1,1,0
1585,-33.0,-5.0,54.0,1645192670.0,P16,D07,1,1,0
1586,-32.0,-5.0,54.0,1645192670.03125,P16,D07,1,1,0
1587,-29.0,-4.0,55.0,1645192670.0625,P16,D07,1,1,0
1588,-30.0,-4.0,56.0,1645192670.09375,P16,D07,1,1,0
1589,-30.0,-5.0,55.0,1645192670.125,P16,D07,1,1,0
1590,-30.0,-5.0,55.0,1645192670.15625,P16,D07,1,1,0
1591,-30.0,-5.0,55.0,1645192670.1875,P16,D07,1,1,0
1592,-30.0,-5.0,55.0,1645192670.21875,P16,D07,1,1,0
1593,-31.0,-5.0,55.0,1645192670.25,P16,D07,1,1,0
1594,-30.0,-5.0,55.0,1645192670.28125,P16,D07,1,1,0
1595,-31.0,-4.0,55.0,1645192670.3125,P16,D07,1,1,0
1596,-30.0,-4.0,55.0,1645192670.34375,P16,D07,1,1,0
1597,-31.0,-4.0,55.0,1645192670.375,P16,D07,1,1,0
1598,-31.0,-5.0,54.0,1645192670.40625,P16,D07,1,1,0
1599,-31.0,-5.0,55.0,1645192670.4375,P16,D07,1,1,0
1600,-32.0,-5.0,55.0,1645192670.46875,P16,D07,1,1,0
1601,-32.0,-5.0,54.0,1645192670.5,P16,D07,1,1,0
1602,-31.0,-5.0,55.0,1645192670.53125,P16,D07,1,1,0
1603,-32.0,-5.0,54.0,1645192670.5625,P16,D07,1,1,0
1604,-32.0,-5.0,54.0,1645192670.59375,P16,D07,1,1,0
1605,-32.0,-5.0,55.0,1645192670.625,P16,D07,1,1,0
1606,-32.0,-5.0,54.0,1645192670.65625,P16,D07,1,1,0
1607,-31.0,-5.0,55.0,1645192670.6875,P16,D07,1,1,0
1608,-32.0,-5.0,54.0,1645192670.71875,P16,D07,1,1,0
1609,-31.0,-5.0,54.0,1645192670.75,P16,D07,1,1,0
1610,-32.0,-5.0,54.0,1645192670.78125,P16,D07,1,1,0
1611,-32.0,-5.0,54.0,1645192670.8125,P16,D07,1,1,0
1612,-31.0,-6.0,55.0,1645192670.84375,P16,D07,1,1,0
1613,-32.0,-5.0,54.0,1645192670.875,P16,D07,1,1,0
1614,-32.0,-5.0,54.0,1645192670.90625,P16,D07,1,1,0
1615,-32.0,-6.0,55.0,1645192670.9375,P16,D07,1,1,0
1616,-31.0,-6.0,54.0,1645192670.96875,P16,D07,1,1,0
1617,-32.0,-5.0,54.0,1645192671.0,P16,D07,1,1,0
1618,-32.0,-6.0,54.0,1645192671.03125,P16,D07,1,1,0
1619,-32.0,-6.0,54.0,1645192671.0625,P16,D07,1,1,0
1620,-32.0,-6.0,54.0,1645192671.09375,P16,D07,1,1,0
1621,-32.0,-6.0,54.0,1645192671.125,P16,D07,1,1,0
1622,-32.0,-6.0,54.0,1645192671.15625,P16,D07,1,1,0
1623,-32.0,-6.0,54.0,1645192671.1875,P16,D07,1,1,0
1624,-32.0,-6.0,54.0,1645192671.21875,P16,D07,1,1,0
1625,-32.0,-6.0,54.0,1645192671.25,P16,D07,1,1,0
1626,-32.0,-6.0,54.0,1645192671.28125,P16,D07,1,1,0
1627,-32.0,-6.0,54.0,1645192671.3125,P16,D07,1,1,0
1628,-32.0,-6.0,54.0,1645192671.34375,P16,D07,1,1,0
1629,-32.0,-6.0,54.0,1645192671.375,P16,D07,1,1,0
1630,-32.0,-6.0,54.0,1645192671.40625,P16,D07,1,1,0
1631,-32.0,-6.0,54.0,1645192671.4375,P16,D07,1,1,0
1632,-32.0,-6.0,54.0,1645192671.46875,P16,D07,1,1,0
1633,-32.0,-6.0,54.0,1645192671.5,P16,D07,1,1,0
1634,-32.0,-6.0,54.0,1645192671.53125,P16,D07,1,1,0
1635,-32.0,-6.0,54.0,1645192671.5625,P16,D07,1,1,0
1636,-32.0,-6.0,54.0,1645192671.59375,P16,D07,1,1,0
1637,-32.0,-6.0,54.0,1645192671.625,P16,D07,1,1,0
1638,-32.0,-6.0,54.0,1645192671.65625,P16,D07,1,1,0
1639,-32.0,-6.0,54.0,1645192671.6875,P16,D07,1,1,0
1640,-32.0,-6.0,54.0,1645192671.71875,P16,D07,1,1,0
1641,-32.0,-6.0,54.0,1645192671.75,P16,D07,1,1,0
1642,-32.0,-6.0,54.0,1645192671.78125,P16,D07,1,1,0
1643,-32.0,-6.0,54.0,1645192671.8125,P16,D07,1,1,0
1644,-32.0,-6.0,54.0,1645192671.84375,P16,D07,1,1,0
1645,-32.0,-6.0,54.0,1645192671.875,P16,D07,1,1,0
1646,-32.0,-6.0,54.0,1645192671.90625,P16,D07,1,1,0
1647,-32.0,-6.0,54.0,1645192671.9375,P16,D07,1,1,0
1648,-32.0,-6.0,54.0,1645192671.96875,P16,D07,1,1,0
1649,-32.0,-6.0,54.0,1645192672.0,P16,D07,1,1,0
1650,-32.0,-6.0,54.0,1645192672.03125,P16,D07,1,1,0
1651,-32.0,-6.0,54.0,1645192672.0625,P16,D07,1,1,0
1652,-32.0,-6.0,54.0,1645192672.09375,P16,D07,1,1,0
1653,-32.0,-6.0,54.0,1645192672.125,P16,D07,1,1,0
1654,-32.0,-6.0,54.0,1645192672.15625,P16,D07,1,1,0
1655,-32.0,-6.0,54.0,1645192672.1875,P16,D07,1,1,0
1656,-32.0,-6.0,54.0,1645192672.21875,P16,D07,1,1,0
1657,-32.0,-6.0,54.0,1645192672.25,P16,D07,1,1,0
1658,-32.0,-6.0,54.0,1645192672.28125,P16,D07,1,1,0
1659,-32.0,-5.0,54.0,1645192672.3125,P16,D07,1,1,0
1660,-32.0,-6.0,54.0,1645192672.34375,P16,D07,1,1,0
1661,-32.0,-6.0,54.0,1645192672.375,P16,D07,1,1,0
1662,-32.0,-5.0,54.0,1645192672.40625,P16,D07,1,1,0
1663,-32.0,-6.0,54.0,1645192672.4375,P16,D07,1,1,0
1664,-32.0,-6.0,54.0,1645192672.46875,P16,D07,1,1,0
1665,-32.0,-5.0,54.0,1645192672.5,P16,D07,1,1,0
1666,-32.0,-5.0,54.0,1645192672.53125,P16,D07,1,1,0
1667,-32.0,-6.0,54.0,1645192672.5625,P16,D07,1,1,0
1668,-32.0,-6.0,54.0,1645192672.59375,P16,D07,1,1,0
1669,-32.0,-6.0,54.0,1645192672.625,P16,D07,1,1,0
1670,-32.0,-5.0,54.0,1645192672.65625,P16,D07,1,1,0
1671,-32.0,-5.0,54.0,1645192672.6875,P16,D07,1,1,0
1672,-32.0,-6.0,54.0,1645192672.71875,P16,D07,1,1,0
1673,-32.0,-6.0,54.0,1645192672.75,P16,D07,1,1,0
1674,-32.0,-5.0,54.0,1645192672.78125,P16,D07,1,1,0
1675,-32.0,-5.0,54.0,1645192672.8125,P16,D07,1,1,0
1676,-32.0,-6.0,54.0,1645192672.84375,P16,D07,1,1,0
1677,-32.0,-6.0,54.0,1645192672.875,P16,D07,1,1,0
1678,-32.0,-5.0,54.0,1645192672.90625,P16,D07,1,1,0
1679,-32.0,-5.0,54.0,1645192672.9375,P16,D07,1,1,0
1680,-32.0,-6.0,54.0,1645192672.96875,P16,D07,1,1,0
1681,-32.0,-6.0,54.0,1645192673.0,P16,D07,1,1,0
1682,-32.0,-5.0,54.0,1645192673.03125,P16,D07,1,1,0
1683,-32.0,-5.0,54.0,1645192673.0625,P16,D07,1,1,0
1684,-32.0,-6.0,54.0,1645192673.09375,P16,D07,1,1,0
1685,-32.0,-5.0,54.0,1645192673.125,P16,D07,1,1,0
1686,-32.0,-5.0,54.0,1645192673.15625,P16,D07,1,1,0
1687,-32.0,-6.0,54.0,1645192673.1875,P16,D07,1,1,0
1688,-32.0,-6.0,54.0,1645192673.21875,P16,D07,1,1,0
1689,-32.0,-6.0,54.0,1645192673.25,P16,D07,1,1,0
1690,-32.0,-6.0,54.0,1645192673.28125,P16,D07,1,1,0
1691,-32.0,-6.0,54.0,1645192673.3125,P16,D07,1,1,0
1692,-32.0,-6.0,54.0,1645192673.34375,P16,D07,1,1,0
1693,-32.0,-6.0,54.0,1645192673.375,P16,D07,1,1,0
1694,-32.0,-6.0,54.0,1645192673.40625,P16,D07,1,1,0
1695,-32.0,-6.0,54.0,1645192673.4375,P16,D07,1,1,0
1696,-32.0,-6.0,54.0,1645192673.46875,P16,D07,1,1,0
1697,-32.0,-6.0,54.0,1645192673.5,P16,D07,1,1,0
1698,-32.0,-6.0,54.0,1645192673.53125,P16,D07,1,1,0
1699,-32.0,-6.0,54.0,1645192673.5625,P16,D07,1,1,0
1700,-32.0,-6.0,54.0,1645192673.59375,P16,D07,1,1,0
1701,-32.0,-6.0,54.0,1645192673.625,P16,D07,1,1,0
1702,-32.0,-6.0,54.0,1645192673.65625,P16,D07,1,1,0
1703,-32.0,-6.0,54.0,1645192673.6875,P16,D07,1,1,0
1704,-32.0,-6.0,54.0,1645192673.71875,P16,D07,1,1,0
1705,-32.0,-6.0,54.0,1645192673.75,P16,D07,1,1,0
1706,-32.0,-6.0,54.0,1645192673.78125,P16,D07,1,1,0
1707,-32.0,-6.0,54.0,1645192673.8125,P16,D07,1,1,0
1708,-32.0,-6.0,54.0,1645192673.84375,P16,D07,1,1,0
1709,-32.0,-6.0,54.0,1645192673.875,P16,D07,1,1,0
1710,-32.0,-6.0,54.0,1645192673.90625,P16,D07,1,1,0
1711,-33.0,-7.0,54.0,1645192673.9375,P16,D07,1,1,0
1712,-33.0,-6.0,54.0,1645192673.96875,P16,D07,1,1,0
1713,-32.0,-6.0,54.0,1645192674.0,P16,D07,1,1,0
1714,-32.0,-6.0,54.0,1645192674.03125,P16,D07,1,1,0
1715,-33.0,-6.0,54.0,1645192674.0625,P16,D07,1,1,0
1716,-32.0,-6.0,54.0,1645192674.09375,P16,D07,1,1,0
1717,-33.0,-6.0,54.0,1645192674.125,P16,D07,1,1,0
1718,-33.0,-6.0,54.0,1645192674.15625,P16,D07,1,1,0
1719,-33.0,-6.0,54.0,1645192674.1875,P16,D07,1,1,0
1720,-32.0,-6.0,54.0,1645192674.21875,P16,D07,1,1,0
1721,-32.0,-6.0,54.0,1645192674.25,P16,D07,1,1,0
1722,-33.0,-6.0,54.0,1645192674.28125,P16,D07,1,1,0
1723,-32.0,-6.0,54.0,1645192674.3125,P16,D07,1,1,0
1724,-32.0,-6.0,54.0,1645192674.34375,P16,D07,1,1,0
1725,-33.0,-6.0,54.0,1645192674.375,P16,D07,1,1,0
1726,-32.0,-6.0,54.0,1645192674.40625,P16,D07,1,1,0
1727,-33.0,-6.0,54.0,1645192674.4375,P16,D07,1,1,0
1728,-32.0,-6.0,54.0,1645192674.46875,P16,D07,1,1,0
1729,-32.0,-6.0,54.0,1645192674.5,P16,D07,1,1,0
1730,-33.0,-6.0,54.0,1645192674.53125,P16,D07,1,1,0
1731,-32.0,-6.0,54.0,1645192674.5625,P16,D07,1,1,0
1732,-33.0,-6.0,54.0,1645192674.59375,P16,D07,1,1,0
1733,-32.0,-6.0,54.0,1645192674.625,P16,D07,1,1,0
1734,-32.0,-6.0,54.0,1645192674.65625,P16,D07,1,1,0
1735,-32.0,-6.0,54.0,1645192674.6875,P16,D07,1,1,0
1736,-33.0,-6.0,54.0,1645192674.71875,P16,D07,1,1,0
1737,-33.0,-6.0,54.0,1645192674.75,P16,D07,1,1,0
1738,-33.0,-6.0,54.0,1645192674.78125,P16,D07,1,1,0
1739,-32.0,-6.0,54.0,1645192674.8125,P16,D07,1,1,0
1740,-33.0,-6.0,54.0,1645192674.84375,P16,D07,1,1,0
1741,-33.0,-6.0,54.0,1645192674.875,P16,D07,1,1,0
1742,-32.0,-7.0,54.0,1645192674.90625,P16,D07,1,1,0
1743,-33.0,-6.0,54.0,1645192674.9375,P16,D07,1,1,0
1744,-33.0,-6.0,54.0,1645192674.96875,P16,D07,1,1,0
1745,-32.0,-6.0,54.0,1645192675.0,P16,D07,1,1,0
1746,-32.0,-6.0,54.0,1645192675.03125,P16,D07,1,1,0
1747,-33.0,-6.0,54.0,1645192675.0625,P16,D07,1,1,0
1748,-32.0,-6.0,54.0,1645192675.09375,P16,D07,1,1,0
1749,-32.0,-6.0,54.0,1645192675.125,P16,D07,1,1,0
1750,-33.0,-6.0,54.0,1645192675.15625,P16,D07,1,1,0
1751,-32.0,-6.0,54.0,1645192675.1875,P16,D07,1,1,0
1752,-32.0,-6.0,54.0,1645192675.21875,P16,D07,1,1,0
1753,-32.0,-6.0,54.0,1645192675.25,P16,D07,1,1,0
1754,-33.0,-6.0,53.0,1645192675.28125,P16,D07,1,1,0
1755,-32.0,-6.0,54.0,1645192675.3125,P16,D07,1,1,0
1756,-33.0,-6.0,54.0,1645192675.34375,P16,D07,1,1,0
1757,-33.0,-6.0,54.0,1645192675.375,P16,D07,1,1,0
1758,-32.0,-6.0,54.0,1645192675.40625,P16,D07,1,1,0
1759,-33.0,-6.0,54.0,1645192675.4375,P16,D07,1,1,0
1760,-33.0,-6.0,54.0,1645192675.46875,P16,D07,1,1,0
1761,-33.0,-6.0,54.0,1645192675.5,P16,D07,1,1,0
1762,-32.0,-6.0,54.0,1645192675.53125,P16,D07,1,1,0
1763,-33.0,-6.0,54.0,1645192675.5625,P16,D07,1,1,0
1764,-33.0,-6.0,54.0,1645192675.59375,P16,D07,1,1,0
1765,-33.0,-6.0,54.0,1645192675.625,P16,D07,1,1,0
1766,-33.0,-6.0,54.0,1645192675.65625,P16,D07,1,1,0
1767,-33.0,-6.0,54.0,1645192675.6875,P16,D07,1,1,0
1768,-32.0,-6.0,54.0,1645192675.71875,P16,D07,1,1,0
1769,-33.0,-6.0,54.0,1645192675.75,P16,D07,1,1,0
1770,-32.0,-6.0,54.0,1645192675.78125,P16,D07,1,1,0
1771,-32.0,-6.0,54.0,1645192675.8125,P16,D07,1,1,0
1772,-32.0,-6.0,54.0,1645192675.84375,P16,D07,1,1,0
1773,-33.0,-6.0,54.0,1645192675.875,P16,D07,1,1,0
1774,-32.0,-6.0,54.0,1645192675.90625,P16,D07,1,1,0
1775,-32.0,-6.0,54.0,1645192675.9375,P16,D07,1,1,0
1776,-32.0,-6.0,54.0,1645192675.96875,P16,D07,1,1,0
1777,-33.0,-6.0,54.0,1645192676.0,P16,D07,1,1,0
1778,-33.0,-6.0,54.0,1645192676.03125,P16,D07,1,1,0
1779,-32.0,-6.0,54.0,1645192676.0625,P16,D07,1,1,0
1780,-33.0,-6.0,54.0,1645192676.09375,P16,D07,1,1,0
1781,-32.0,-6.0,54.0,1645192676.125,P16,D07,1,1,0
1782,-32.0,-6.0,54.0,1645192676.15625,P16,D07,1,1,0
1783,-33.0,-6.0,54.0,1645192676.1875,P16,D07,1,1,0
1784,-32.0,-6.0,54.0,1645192676.21875,P16,D07,1,1,0
1785,-32.0,-6.0,54.0,1645192676.25,P16,D07,1,1,0
1786,-32.0,-6.0,54.0,1645192676.28125,P16,D07,1,1,0
1787,-32.0,-6.0,54.0,1645192676.3125,P16,D07,1,1,0
1788,-32.0,-6.0,54.0,1645192676.34375,P16,D07,1,1,0
1789,-32.0,-6.0,54.0,1645192676.375,P16,D07,1,1,0
1790,-33.0,-6.0,54.0,1645192676.40625,P16,D07,1,1,0
1791,-33.0,-6.0,54.0,1645192676.4375,P16,D07,1,1,0
1792,-32.0,-6.0,54.0,1645192676.46875,P16,D07,1,1,0
1793,-33.0,-6.0,54.0,1645192676.5,P16,D07,1,1,0
1794,-32.0,-6.0,54.0,1645192676.53125,P16,D07,1,1,0
1795,-32.0,-6.0,54.0,1645192676.5625,P16,D07,1,1,0
1796,-33.0,-6.0,54.0,1645192676.59375,P16,D07,1,1,0
1797,-32.0,-6.0,54.0,1645192676.625,P16,D07,1,1,0
1798,-32.0,-6.0,54.0,1645192676.65625,P16,D07,1,1,0
1799,-33.0,-6.0,54.0,1645192676.6875,P16,D07,1,1,0
1800,-33.0,-6.0,54.0,1645192676.71875,P16,D07,1,1,0
1801,-32.0,-6.0,54.0,1645192676.75,P16,D07,1,1,0
1802,-32.0,-6.0,54.0,1645192676.78125,P16,D07,1,1,0
1803,-33.0,-6.0,54.0,1645192676.8125,P16,D07,1,1,0
1804,-32.0,-6.0,54.0,1645192676.84375,P16,D07,1,1,0
1805,-33.0,-6.0,54.0,1645192676.875,P16,D07,1,1,0
1806,-33.0,-6.0,54.0,1645192676.90625,P16,D07,1,1,0
1807,-32.0,-6.0,54.0,1645192676.9375,P16,D07,1,1,0
1808,-33.0,-6.0,54.0,1645192676.96875,P16,D07,1,1,0
1809,-33.0,-6.0,54.0,1645192677.0,P16,D07,1,1,0
1810,-32.0,-6.0,54.0,1645192677.03125,P16,D07,1,1,0
1811,-33.0,-6.0,54.0,1645192677.0625,P16,D07,1,1,0
1812,-33.0,-6.0,54.0,1645192677.09375,P16,D07,1,1,0
1813,-33.0,-6.0,53.0,1645192677.125,P16,D07,1,1,0
1814,-32.0,-6.0,54.0,1645192677.15625,P16,D07,1,1,0
1815,-32.0,-6.0,54.0,1645192677.1875,P16,D07,1,1,0
1816,-33.0,-6.0,54.0,1645192677.21875,P16,D07,1,1,0
1817,-33.0,-6.0,54.0,1645192677.25,P16,D07,1,1,0
1818,-33.0,-6.0,54.0,1645192677.28125,P16,D07,1,1,0
1819,-32.0,-7.0,54.0,1645192677.3125,P16,D07,1,1,0
1820,-33.0,-6.0,54.0,1645192677.34375,P16,D07,1,1,0
1821,-32.0,-6.0,54.0,1645192677.375,P16,D07,1,1,0
1822,-32.0,-6.0,54.0,1645192677.40625,P16,D07,1,1,0
1823,-32.0,-6.0,54.0,1645192677.4375,P16,D07,1,1,0
1824,-32.0,-6.0,54.0,1645192677.46875,P16,D07,1,1,0
1825,-33.0,-6.0,54.0,1645192677.5,P16,D07,1,1,0
1826,-32.0,-7.0,54.0,1645192677.53125,P16,D07,1,1,0
1827,-33.0,-6.0,54.0,1645192677.5625,P16,D07,1,1,0
1828,-32.0,-6.0,54.0,1645192677.59375,P16,D07,1,1,0
1829,-32.0,-6.0,54.0,1645192677.625,P16,D07,1,1,0
1830,-33.0,-6.0,54.0,1645192677.65625,P16,D07,1,1,0
1831,-32.0,-6.0,54.0,1645192677.6875,P16,D07,1,1,0
1832,-32.0,-6.0,54.0,1645192677.71875,P16,D07,1,1,0
1833,-32.0,-6.0,54.0,1645192677.75,P16,D07,1,1,0
1834,-33.0,-6.0,54.0,1645192677.78125,P16,D07,1,1,0
1835,-33.0,-6.0,54.0,1645192677.8125,P16,D07,1,1,0
1836,-32.0,-6.0,54.0,1645192677.84375,P16,D07,1,1,0
1837,-32.0,-6.0,54.0,1645192677.875,P16,D07,1,1,0
1838,-32.0,-6.0,54.0,1645192677.90625,P16,D07,1,1,0
1839,-32.0,-6.0,54.0,1645192677.9375,P16,D07,1,1,0
1840,-32.0,-6.0,54.0,1645192677.96875,P16,D07,1,1,0
1841,-33.0,-7.0,54.0,1645192678.0,P16,D07,1,1,0
1842,-32.0,-6.0,54.0,1645192678.03125,P16,D07,1,1,0
1843,-32.0,-6.0,54.0,1645192678.0625,P16,D07,1,1,0
1844,-33.0,-6.0,54.0,1645192678.09375,P16,D07,1,1,0
1845,-32.0,-6.0,54.0,1645192678.125,P16,D07,1,1,0
1846,-33.0,-7.0,54.0,1645192678.15625,P16,D07,1,1,0
1847,-32.0,-6.0,54.0,1645192678.1875,P16,D07,1,1,0
1848,-32.0,-6.0,54.0,1645192678.21875,P16,D07,1,1,0
1849,-32.0,-6.0,54.0,1645192678.25,P16,D07,1,1,0
1850,-32.0,-6.0,54.0,1645192678.28125,P16,D07,1,1,0
1851,-32.0,-6.0,54.0,1645192678.3125,P16,D07,1,1,0
1852,-32.0,-7.0,54.0,1645192678.34375,P16,D07,1,1,0
1853,-33.0,-6.0,54.0,1645192678.375,P16,D07,1,1,0
1854,-33.0,-6.0,54.0,1645192678.40625,P16,D07,1,1,0
1855,-33.0,-6.0,54.0,1645192678.4375,P16,D07,1,1,0
1856,-32.0,-7.0,54.0,1645192678.46875,P16,D07,1,1,0
1857,-32.0,-7.0,54.0,1645192678.5,P16,D07,1,1,0
1858,-32.0,-6.0,54.0,1645192678.53125,P16,D07,1,1,0
1859,-32.0,-6.0,54.0,1645192678.5625,P16,D07,1,1,0
1860,-32.0,-6.0,54.0,1645192678.59375,P16,D07,1,1,0
1861,-33.0,-6.0,54.0,1645192678.625,P16,D07,1,1,0
1862,-32.0,-6.0,54.0,1645192678.65625,P16,D07,1,1,0
1863,-33.0,-6.0,54.0,1645192678.6875,P16,D07,1,1,0
1864,-33.0,-6.0,54.0,1645192678.71875,P16,D07,1,1,0
1865,-32.0,-6.0,54.0,1645192678.75,P16,D07,1,1,0
1866,-32.0,-6.0,54.0,1645192678.78125,P16,D07,1,1,0
1867,-32.0,-6.0,54.0,1645192678.8125,P16,D07,1,1,0
1868,-33.0,-6.0,54.0,1645192678.84375,P16,D07,1,1,0
1869,-32.0,-7.0,54.0,1645192678.875,P16,D07,1,1,0
1870,-33.0,-6.0,54.0,1645192678.90625,P16,D07,1,1,0
1871,-33.0,-6.0,53.0,1645192678.9375,P16,D07,1,1,0
1872,-32.0,-6.0,54.0,1645192678.96875,P16,D07,1,1,0
1873,-33.0,-6.0,54.0,1645192679.0,P16,D07,1,1,0
1874,-32.0,-6.0,54.0,1645192679.03125,P16,D07,1,1,0
1875,-33.0,-6.0,54.0,1645192679.0625,P16,D07,1,1,0
1876,-32.0,-7.0,54.0,1645192679.09375,P16,D07,1,1,0
1877,-32.0,-6.0,54.0,1645192679.125,P16,D07,1,1,0
1878,-32.0,-6.0,54.0,1645192679.15625,P16,D07,1,1,0
1879,-33.0,-6.0,54.0,1645192679.1875,P16,D07,1,1,0
1880,-32.0,-6.0,54.0,1645192679.21875,P16,D07,1,1,0
1881,-32.0,-6.0,54.0,1645192679.25,P16,D07,1,1,0
1882,-32.0,-6.0,54.0,1645192679.28125,P16,D07,1,1,0
1883,-33.0,-6.0,54.0,1645192679.3125,P16,D07,1,1,0
1884,-32.0,-6.0,54.0,1645192679.34375,P16,D07,1,1,0
1885,-32.0,-6.0,54.0,1645192679.375,P16,D07,1,1,0
1886,-32.0,-6.0,54.0,1645192679.40625,P16,D07,1,1,0
1887,-32.0,-6.0,54.0,1645192679.4375,P16,D07,1,1,0
1888,-32.0,-6.0,54.0,1645192679.46875,P16,D07,1,1,0
1889,-33.0,-6.0,54.0,1645192679.5,P16,D07,1,1,0
1890,-32.0,-6.0,54.0,1645192679.53125,P16,D07,1,1,0
1891,-33.0,-6.0,54.0,1645192679.5625,P16,D07,1,1,0
1892,-32.0,-6.0,54.0,1645192679.59375,P16,D07,1,1,0
1893,-32.0,-5.0,54.0,1645192679.625,P16,D07,1,1,0
1894,-32.0,-6.0,54.0,1645192679.65625,P16,D07,1,1,0
1895,-32.0,-6.0,54.0,1645192679.6875,P16,D07,1,1,0
1896,-32.0,-6.0,54.0,1645192679.71875,P16,D07,1,1,0
1897,-32.0,-6.0,54.0,1645192679.75,P16,D07,1,1,0
1898,-32.0,-6.0,54.0,1645192679.78125,P16,D07,1,1,0
1899,-32.0,-6.0,54.0,1645192679.8125,P16,D07,1,1,0
1900,-32.0,-6.0,54.0,1645192679.84375,P16,D07,1,1,0
1901,-32.0,-6.0,54.0,1645192679.875,P16,D07,1,1,0
1902,-32.0,-6.0,54.0,1645192679.90625,P16,D07,1,1,0
1903,-32.0,-6.0,54.0,1645192679.9375,P16,D07,1,1,0
1904,-32.0,-6.0,54.0,1645192679.96875,P16,D07,1,1,0
1905,-32.0,-6.0,54.0,1645192680.0,P16,D07,1,1,0
1906,-32.0,-6.0,54.0,1645192680.03125,P16,D07,1,1,0
1907,-32.0,-6.0,54.0,1645192680.0625,P16,D07,1,1,0
1908,-32.0,-6.0,54.0,1645192680.09375,P16,D07,1,1,0
1909,-32.0,-6.0,54.0,1645192680.125,P16,D07,1,1,0
1910,-32.0,-6.0,54.0,1645192680.15625,P16,D07,1,1,0
1911,-32.0,-6.0,54.0,1645192680.1875,P16,D07,1,1,0
1912,-32.0,-6.0,54.0,1645192680.21875,P16,D07,1,1,0
1913,-32.0,-6.0,54.0,1645192680.25,P16,D07,1,1,0
1914,-32.0,-6.0,54.0,1645192680.28125,P16,D07,1,1,0
1915,-32.0,-6.0,54.0,1645192680.3125,P16,D07,1,1,0
1916,-32.0,-6.0,54.0,1645192680.34375,P16,D07,1,1,0
1917,-32.0,-6.0,54.0,1645192680.375,P16,D07,1,1,0
1918,-32.0,-6.0,54.0,1645192680.40625,P16,D07,1,1,0
1919,-32.0,-6.0,54.0,1645192680.4375,P16,D07,1,1,0
1920,-32.0,-6.0,54.0,1645192680.46875,P16,D07,1,1,0
1921,-32.0,-6.0,54.0,1645192680.5,P16,D07,1,1,0
1922,-32.0,-6.0,54.0,1645192680.53125,P16,D07,1,1,0
1923,-32.0,-6.0,54.0,1645192680.5625,P16,D07,1,1,0
1924,-32.0,-6.0,54.0,1645192680.59375,P16,D07,1,1,0
1925,-32.0,-6.0,54.0,1645192680.625,P16,D07,1,1,0
1926,-32.0,-6.0,54.0,1645192680.65625,P16,D07,1,1,0
1927,-32.0,-6.0,54.0,1645192680.6875,P16,D07,1,1,0
1928,-32.0,-6.0,54.0,1645192680.71875,P16,D07,1,1,0
1929,-32.0,-6.0,54.0,1645192680.75,P16,D07,1,1,0
1930,-32.0,-6.0,54.0,1645192680.78125,P16,D07,1,1,0
1931,-32.0,-6.0,54.0,1645192680.8125,P16,D07,1,1,0
1932,-32.0,-6.0,54.0,1645192680.84375,P16,D07,1,1,0
1933,-32.0,-6.0,54.0,1645192680.875,P16,D07,1,1,0
1934,-32.0,-6.0,54.0,1645192680.90625,P16,D07,1,1,0
1935,-32.0,-6.0,54.0,1645192680.9375,P16,D07,1,1,0
1936,-32.0,-6.0,54.0,1645192680.96875,P16,D07,1,1,0
1937,-32.0,-6.0,54.0,1645192681.0,P16,D07,1,1,0
1938,-32.0,-6.0,54.0,1645192681.03125,P16,D07,1,1,0
1939,-32.0,-6.0,54.0,1645192681.0625,P16,D07,1,1,0
1940,-32.0,-6.0,54.0,1645192681.09375,P16,D07,1,1,0
1941,-32.0,-6.0,54.0,1645192681.125,P16,D07,1,1,0
1942,-32.0,-6.0,54.0,1645192681.15625,P16,D07,1,1,0
1943,-32.0,-6.0,54.0,1645192681.1875,P16,D07,1,1,0
1944,-32.0,-6.0,54.0,1645192681.21875,P16,D07,1,1,0
1945,-32.0,-6.0,54.0,1645192681.25,P16,D07,1,1,0
1946,-32.0,-6.0,54.0,1645192681.28125,P16,D07,1,1,0
1947,-32.0,-6.0,54.0,1645192681.3125,P16,D07,1,1,0
1948,-32.0,-6.0,54.0,1645192681.34375,P16,D07,1,1,0
1949,-33.0,-6.0,54.0,1645192681.375,P16,D07,1,1,0
1950,-32.0,-6.0,54.0,1645192681.40625,P16,D07,1,1,0
1951,-32.0,-6.0,54.0,1645192681.4375,P16,D07,1,1,0
1952,-32.0,-6.0,54.0,1645192681.46875,P16,D07,1,1,0
1953,-32.0,-6.0,54.0,1645192681.5,P16,D07,1,1,0
1954,-32.0,-6.0,54.0,1645192681.53125,P16,D07,1,1,0
1955,-32.0,-6.0,54.0,1645192681.5625,P16,D07,1,1,0
1956,-32.0,-6.0,54.0,1645192681.59375,P16,D07,1,1,0
1957,-32.0,-6.0,54.0,1645192681.625,P16,D07,1,1,0
1958,-32.0,-6.0,54.0,1645192681.65625,P16,D07,1,1,0
1959,-32.0,-6.0,54.0,1645192681.6875,P16,D07,1,1,0
1960,-32.0,-7.0,54.0,1645192681.71875,P16,D07,1,1,0
1961,-32.0,-6.0,54.0,1645192681.75,P16,D07,1,1,0
1962,-32.0,-6.0,54.0,1645192681.78125,P16,D07,1,1,0
1963,-32.0,-6.0,54.0,1645192681.8125,P16,D07,1,1,0
1964,-32.0,-6.0,54.0,1645192681.84375,P16,D07,1,1,0
1965,-32.0,-6.0,54.0,1645192681.875,P16,D07,1,1,0
1966,-32.0,-6.0,54.0,1645192681.90625,P16,D07,1,1,0
1967,-32.0,-6.0,54.0,1645192681.9375,P16,D07,1,1,0
1968,-33.0,-7.0,54.0,1645192681.96875,P16,D07,1,1,0
1969,-32.0,-6.0,54.0,1645192682.0,P16,D07,1,1,0
1970,-32.0,-6.0,54.0,1645192682.03125,P16,D07,1,1,0
1971,-32.0,-7.0,54.0,1645192682.0625,P16,D07,1,1,0
1972,-32.0,-6.0,54.0,1645192682.09375,P16,D07,1,1,0
1973,-32.0,-6.0,54.0,1645192682.125,P16,D07,1,1,0
1974,-32.0,-6.0,54.0,1645192682.15625,P16,D07,1,1,0
1975,-33.0,-6.0,54.0,1645192682.1875,P16,D07,1,1,0
1976,-32.0,-6.0,54.0,1645192682.21875,P16,D07,1,1,0
1977,-32.0,-7.0,54.0,1645192682.25,P16,D07,1,1,0
1978,-32.0,-7.0,54.0,1645192682.28125,P16,D07,1,1,0
1979,-32.0,-6.0,54.0,1645192682.3125,P16,D07,1,1,0
1980,-32.0,-6.0,54.0,1645192682.34375,P16,D07,1,1,0
1981,-32.0,-6.0,54.0,1645192682.375,P16,D07,1,1,0
1982,-32.0,-6.0,54.0,1645192682.40625,P16,D07,1,1,0
1983,-32.0,-6.0,54.0,1645192682.4375,P16,D07,1,1,0
1984,-32.0,-6.0,54.0,1645192682.46875,P16,D07,1,1,0
1985,-32.0,-6.0,54.0,1645192682.5,P16,D07,1,1,0
1986,-32.0,-6.0,54.0,1645192682.53125,P16,D07,1,1,0
1987,-32.0,-6.0,54.0,1645192682.5625,P16,D07,1,1,0
1988,-32.0,-6.0,54.0,1645192682.59375,P16,D07,1,1,0
1989,-32.0,-7.0,54.0,1645192682.625,P16,D07,1,1,0
1990,-32.0,-6.0,54.0,1645192682.65625,P16,D07,1,1,0
1991,-32.0,-6.0,54.0,1645192682.6875,P16,D07,1,1,0
1992,-32.0,-6.0,54.0,1645192682.71875,P16,D07,1,1,0
1993,-32.0,-6.0,54.0,1645192682.75,P16,D07,1,1,0
1994,-32.0,-6.0,54.0,1645192682.78125,P16,D07,1,1,0
1995,-32.0,-6.0,54.0,1645192682.8125,P16,D07,1,1,0
1996,-32.0,-6.0,54.0,1645192682.84375,P16,D07,1,1,0
1997,-32.0,-6.0,54.0,1645192682.875,P16,D07,1,1,0
1998,-32.0,-6.0,54.0,1645192682.90625,P16,D07,1,1,0
1999,-32.0,-6.0,54.0,1645192682.9375,P16,D07,1,1,0
2000,-32.0,-7.0,54.0,1645192682.96875,P16,D07,1,1,0
2001,-32.0,-6.0,54.0,1645192683.0,P16,D07,1,1,0
2002,-32.0,-6.0,54.0,1645192683.03125,P16,D07,1,1,0
2003,-32.0,-7.0,54.0,1645192683.0625,P16,D07,1,1,0
2004,-32.0,-7.0,54.0,1645192683.09375,P16,D07,1,1,0
2005,-32.0,-6.0,54.0,1645192683.125,P16,D07,1,1,0
2006,-32.0,-6.0,54.0,1645192683.15625,P16,D07,1,1,0
2007,-32.0,-6.0,54.0,1645192683.1875,P16,D07,1,1,0
2008,-32.0,-6.0,54.0,1645192683.21875,P16,D07,1,1,0
2009,-32.0,-6.0,54.0,1645192683.25,P16,D07,1,1,0
2010,-32.0,-6.0,54.0,1645192683.28125,P16,D07,1,1,0
2011,-32.0,-6.0,54.0,1645192683.3125,P16,D07,1,1,0
2012,-32.0,-6.0,54.0,1645192683.34375,P16,D07,1,1,0
2013,-32.0,-6.0,54.0,1645192683.375,P16,D07,1,1,0
2014,-32.0,-6.0,54.0,1645192683.40625,P16,D07,1,1,0
2015,-32.0,-6.0,54.0,1645192683.4375,P16,D07,1,1,0
2016,-32.0,-6.0,54.0,1645192683.46875,P16,D07,1,1,0
2017,-32.0,-6.0,54.0,1645192683.5,P16,D07,1,1,0
2018,-32.0,-6.0,54.0,1645192683.53125,P16,D07,1,1,0
2019,-31.0,-6.0,54.0,1645192683.5625,P16,D07,1,1,0
2020,-32.0,-6.0,54.0,1645192683.59375,P16,D07,1,1,0
2021,-32.0,-6.0,54.0,1645192683.625,P16,D07,1,1,0
2022,-32.0,-6.0,54.0,1645192683.65625,P16,D07,1,1,0
2023,-32.0,-6.0,54.0,1645192683.6875,P16,D07,1,1,0
2024,-32.0,-6.0,54.0,1645192683.71875,P16,D07,1,1,0
2025,-32.0,-6.0,54.0,1645192683.75,P16,D07,1,1,0
2026,-32.0,-6.0,54.0,1645192683.78125,P16,D07,1,1,0
2027,-32.0,-6.0,54.0,1645192683.8125,P16,D07,1,1,0
2028,-32.0,-6.0,54.0,1645192683.84375,P16,D07,1,1,0
2029,-32.0,-6.0,54.0,1645192683.875,P16,D07,1,1,0
2030,-32.0,-6.0,54.0,1645192683.90625,P16,D07,1,1,0
2031,-32.0,-6.0,54.0,1645192683.9375,P16,D07,1,1,0
2032,-32.0,-6.0,54.0,1645192683.96875,P16,D07,1,1,0
2033,-32.0,-6.0,54.0,1645192684.0,P16,D07,1,1,0
2034,-32.0,-6.0,54.0,1645192684.03125,P16,D07,1,1,0
2035,-32.0,-6.0,54.0,1645192684.0625,P16,D07,1,1,0
2036,-32.0,-6.0,54.0,1645192684.09375,P16,D07,1,1,0
2037,-32.0,-6.0,54.0,1645192684.125,P16,D07,1,1,0
2038,-32.0,-6.0,54.0,1645192684.15625,P16,D07,1,1,0
2039,-32.0,-6.0,54.0,1645192684.1875,P16,D07,1,1,0
2040,-32.0,-7.0,54.0,1645192684.21875,P16,D07,1,1,0
2041,-32.0,-6.0,54.0,1645192684.25,P16,D07,1,1,0
2042,-32.0,-6.0,54.0,1645192684.28125,P16,D07,1,1,0
2043,-32.0,-6.0,54.0,1645192684.3125,P16,D07,1,1,0
2044,-32.0,-6.0,54.0,1645192684.34375,P16,D07,1,1,0
2045,-32.0,-6.0,54.0,1645192684.375,P16,D07,1,1,0
2046,-32.0,-6.0,54.0,1645192684.40625,P16,D07,1,1,0
2047,-32.0,-6.0,54.0,1645192684.4375,P16,D07,1,1,0
2048,-32.0,-6.0,54.0,1645192684.46875,P16,D07,1,1,0
2049,-32.0,-7.0,54.0,1645192684.5,P16,D07,1,1,0
2050,-32.0,-6.0,54.0,1645192684.53125,P16,D07,1,1,0
2051,-32.0,-7.0,54.0,1645192684.5625,P16,D07,1,1,0
2052,-32.0,-7.0,54.0,1645192684.59375,P16,D07,1,1,0
2053,-32.0,-6.0,54.0,1645192684.625,P16,D07,1,1,0
2054,-32.0,-7.0,54.0,1645192684.65625,P16,D07,1,1,0
2055,-32.0,-7.0,54.0,1645192684.6875,P16,D07,1,1,0
2056,-32.0,-7.0,54.0,1645192684.71875,P16,D07,1,1,0
2057,-32.0,-7.0,54.0,1645192684.75,P16,D07,1,1,0
2058,-32.0,-7.0,54.0,1645192684.78125,P16,D07,1,1,0
2059,-32.0,-6.0,54.0,1645192684.8125,P16,D07,1,1,0
2060,-32.0,-7.0,54.0,1645192684.84375,P16,D07,1,1,0
2061,-32.0,-7.0,54.0,1645192684.875,P16,D07,1,1,0
2062,-32.0,-7.0,54.0,1645192684.90625,P16,D07,1,1,0
2063,-32.0,-7.0,54.0,1645192684.9375,P16,D07,1,1,0
2064,-32.0,-7.0,54.0,1645192684.96875,P16,D07,1,1,0
2065,-32.0,-7.0,54.0,1645192685.0,P16,D07,1,1,0
2066,-32.0,-7.0,54.0,1645192685.03125,P16,D07,1,1,0
2067,-32.0,-7.0,54.0,1645192685.0625,P16,D07,1,1,0
2068,-32.0,-7.0,54.0,1645192685.09375,P16,D07,1,1,0
2069,-32.0,-7.0,54.0,1645192685.125,P16,D07,1,1,0
2070,-32.0,-7.0,54.0,1645192685.15625,P16,D07,1,1,0
2071,-32.0,-6.0,54.0,1645192685.1875,P16,D07,1,1,0
2072,-32.0,-7.0,54.0,1645192685.21875,P16,D07,1,1,0
2073,-32.0,-7.0,54.0,1645192685.25,P16,D07,1,1,0
2074,-32.0,-7.0,54.0,1645192685.28125,P16,D07,1,1,0
2075,-32.0,-7.0,54.0,1645192685.3125,P16,D07,1,1,0
2076,-32.0,-7.0,54.0,1645192685.34375,P16,D07,1,1,0
2077,-32.0,-7.0,54.0,1645192685.375,P16,D07,1,1,0
2078,-32.0,-7.0,54.0,1645192685.40625,P16,D07,1,1,0
2079,-32.0,-6.0,54.0,1645192685.4375,P16,D07,1,1,0
2080,-32.0,-7.0,54.0,1645192685.46875,P16,D07,1,1,0
2081,-32.0,-7.0,54.0,1645192685.5,P16,D07,1,1,0
2082,-32.0,-7.0,54.0,1645192685.53125,P16,D07,1,1,0
2083,-32.0,-7.0,54.0,1645192685.5625,P16,D07,1,1,0
2084,-32.0,-7.0,54.0,1645192685.59375,P16,D07,1,1,0
2085,-32.0,-7.0,54.0,1645192685.625,P16,D07,1,1,0
2086,-32.0,-7.0,54.0,1645192685.65625,P16,D07,1,1,0
2087,-32.0,-7.0,54.0,1645192685.6875,P16,D07,1,1,0
2088,-32.0,-6.0,54.0,1645192685.71875,P16,D07,1,1,0
2089,-32.0,-7.0,54.0,1645192685.75,P16,D07,1,1,0
2090,-32.0,-6.0,54.0,1645192685.78125,P16,D07,1,1,0
2091,-32.0,-7.0,54.0,1645192685.8125,P16,D07,1,1,0
2092,-32.0,-7.0,54.0,1645192685.84375,P16,D07,1,1,0
2093,-32.0,-7.0,54.0,1645192685.875,P16,D07,1,1,0
2094,-32.0,-7.0,54.0,1645192685.90625,P16,D07,1,1,0
2095,-32.0,-6.0,54.0,1645192685.9375,P16,D07,1,1,0
2096,-32.0,-6.0,54.0,1645192685.96875,P16,D07,1,1,0
2097,-32.0,-7.0,54.0,1645192686.0,P16,D07,1,1,0
2098,-32.0,-6.0,54.0,1645192686.03125,P16,D07,1,1,0
2099,-32.0,-7.0,54.0,1645192686.0625,P16,D07,1,1,0
2100,-32.0,-6.0,54.0,1645192686.09375,P16,D07,1,1,0
2101,-32.0,-6.0,54.0,1645192686.125,P16,D07,1,1,0
2102,-32.0,-7.0,54.0,1645192686.15625,P16,D07,1,1,0
2103,-32.0,-6.0,54.0,1645192686.1875,P16,D07,1,1,0
2104,-32.0,-6.0,54.0,1645192686.21875,P16,D07,1,1,0
2105,-32.0,-6.0,54.0,1645192686.25,P16,D07,1,1,0
2106,-32.0,-7.0,54.0,1645192686.28125,P16,D07,1,1,0
2107,-32.0,-6.0,54.0,1645192686.3125,P16,D07,1,1,0
2108,-32.0,-6.0,54.0,1645192686.34375,P16,D07,1,1,0
2109,-32.0,-6.0,54.0,1645192686.375,P16,D07,1,1,0
2110,-32.0,-6.0,54.0,1645192686.40625,P16,D07,1,1,0
2111,-32.0,-6.0,54.0,1645192686.4375,P16,D07,1,1,0
2112,-32.0,-6.0,54.0,1645192686.46875,P16,D07,1,1,0
2113,-32.0,-6.0,54.0,1645192686.5,P16,D07,1,1,0
2114,-32.0,-6.0,54.0,1645192686.53125,P16,D07,1,1,0
2115,-32.0,-6.0,54.0,1645192686.5625,P16,D07,1,1,0
2116,-32.0,-6.0,54.0,1645192686.59375,P16,D07,1,1,0
2117,-32.0,-6.0,54.0,1645192686.625,P16,D07,1,1,0
2118,-32.0,-6.0,54.0,1645192686.65625,P16,D07,1,1,0
2119,-32.0,-6.0,54.0,1645192686.6875,P16,D07,1,1,0
2120,-32.0,-6.0,54.0,1645192686.71875,P16,D07,1,1,0
2121,-32.0,-6.0,54.0,1645192686.75,P16,D07,1,1,0
2122,-32.0,-6.0,54.0,1645192686.78125,P16,D07,1,1,0
2123,-32.0,-6.0,54.0,1645192686.8125,P16,D07,1,1,0
2124,-32.0,-6.0,54.0,1645192686.84375,P16,D07,1,1,0
2125,-32.0,-6.0,54.0,1645192686.875,P16,D07,1,1,0
2126,-32.0,-6.0,54.0,1645192686.90625,P16,D07,1,1,0
2127,-32.0,-6.0,54.0,1645192686.9375,P16,D07,1,1,0
2128,-31.0,-6.0,54.0,1645192686.96875,P16,D07,1,1,0
2129,-32.0,-6.0,54.0,1645192687.0,P16,D07,1,1,0
2130,-32.0,-6.0,54.0,1645192687.03125,P16,D07,1,1,0
2131,-32.0,-6.0,54.0,1645192687.0625,P16,D07,1,1,0
2132,-32.0,-6.0,54.0,1645192687.09375,P16,D07,1,1,0
2133,-32.0,-6.0,54.0,1645192687.125,P16,D07,1,1,0
2134,-32.0,-6.0,54.0,1645192687.15625,P16,D07,1,1,0
2135,-31.0,-6.0,54.0,1645192687.1875,P16,D07,1,1,0
2136,-32.0,-6.0,54.0,1645192687.21875,P16,D07,1,1,0
2137,-32.0,-6.0,54.0,1645192687.25,P16,D07,1,1,0
2138,-32.0,-6.0,54.0,1645192687.28125,P16,D07,1,1,0
2139,-32.0,-6.0,54.0,1645192687.3125,P16,D07,1,1,0
2140,-32.0,-6.0,54.0,1645192687.34375,P16,D07,1,1,0
2141,-32.0,-6.0,54.0,1645192687.375,P16,D07,1,1,0
2142,-32.0,-6.0,54.0,1645192687.40625,P16,D07,1,1,0
2143,-32.0,-6.0,54.0,1645192687.4375,P16,D07,1,1,0
2144,-32.0,-6.0,54.0,1645192687.46875,P16,D07,1,1,0
2145,-32.0,-6.0,54.0,1645192687.5,P16,D07,1,1,0
2146,-32.0,-7.0,54.0,1645192687.53125,P16,D07,1,1,0
2147,-32.0,-6.0,54.0,1645192687.5625,P16,D07,1,1,0
2148,-32.0,-6.0,54.0,1645192687.59375,P16,D07,1,1,0
2149,-32.0,-6.0,54.0,1645192687.625,P16,D07,1,1,0
2150,-32.0,-6.0,54.0,1645192687.65625,P16,D07,1,1,0
2151,-32.0,-6.0,54.0,1645192687.6875,P16,D07,1,1,0
2152,-32.0,-6.0,54.0,1645192687.71875,P16,D07,1,1,0
2153,-32.0,-6.0,54.0,1645192687.75,P16,D07,1,1,0
2154,-32.0,-6.0,54.0,1645192687.78125,P16,D07,1,1,0
2155,-32.0,-6.0,54.0,1645192687.8125,P16,D07,1,1,0
2156,-32.0,-6.0,54.0,1645192687.84375,P16,D07,1,1,0
2157,-32.0,-6.0,54.0,1645192687.875,P16,D07,1,1,0
2158,-32.0,-6.0,54.0,1645192687.90625,P16,D07,1,1,0
2159,-32.0,-6.0,54.0,1645192687.9375,P16,D07,1,1,0
2160,-32.0,-6.0,54.0,1645192687.96875,P16,D07,1,1,0
2161,-32.0,-6.0,54.0,1645192688.0,P16,D07,1,1,0
2162,-32.0,-7.0,54.0,1645192688.03125,P16,D07,1,1,0
2163,-32.0,-7.0,54.0,1645192688.0625,P16,D07,1,1,0
2164,-32.0,-6.0,54.0,1645192688.09375,P16,D07,1,1,0
2165,-32.0,-6.0,54.0,1645192688.125,P16,D07,1,1,0
2166,-32.0,-6.0,54.0,1645192688.15625,P16,D07,1,1,0
2167,-32.0,-6.0,54.0,1645192688.1875,P16,D07,1,1,0
2168,-32.0,-6.0,54.0,1645192688.21875,P16,D07,1,1,0
2169,-32.0,-6.0,54.0,1645192688.25,P16,D07,1,1,0
2170,-32.0,-6.0,54.0,1645192688.28125,P16,D07,1,1,0
2171,-32.0,-6.0,54.0,1645192688.3125,P16,D07,1,1,0
2172,-32.0,-6.0,54.0,1645192688.34375,P16,D07,1,1,0
2173,-32.0,-7.0,54.0,1645192688.375,P16,D07,1,1,0
2174,-32.0,-6.0,54.0,1645192688.40625,P16,D07,1,1,0
2175,-32.0,-7.0,54.0,1645192688.4375,P16,D07,1,1,0
2176,-32.0,-7.0,54.0,1645192688.46875,P16,D07,1,1,0
2177,-32.0,-7.0,54.0,1645192688.5,P16,D07,1,1,0
2178,-32.0,-7.0,54.0,1645192688.53125,P16,D07,1,1,0
2179,-32.0,-7.0,54.0,1645192688.5625,P16,D07,1,1,0
2180,-32.0,-7.0,54.0,1645192688.59375,P16,D07,1,1,0
2181,-32.0,-7.0,54.0,1645192688.625,P16,D07,1,1,0
2182,-32.0,-7.0,54.0,1645192688.65625,P16,D07,1,1,0
2183,-32.0,-6.0,54.0,1645192688.6875,P16,D07,1,1,0
2184,-32.0,-6.0,54.0,1645192688.71875,P16,D07,1,1,0
2185,-32.0,-7.0,54.0,1645192688.75,P16,D07,1,1,0
2186,-33.0,-7.0,54.0,1645192688.78125,P16,D07,1,1,0
2187,-32.0,-7.0,53.0,1645192688.8125,P16,D07,1,1,0
2188,-32.0,-7.0,54.0,1645192688.84375,P16,D07,1,1,0
2189,-32.0,-7.0,54.0,1645192688.875,P16,D07,1,1,0
2190,-32.0,-7.0,54.0,1645192688.90625,P16,D07,1,1,0
2191,-32.0,-7.0,54.0,1645192688.9375,P16,D07,1,1,0
2192,-32.0,-7.0,54.0,1645192688.96875,P16,D07,1,1,0
2193,-32.0,-7.0,54.0,1645192689.0,P16,D07,1,1,0
2194,-33.0,-7.0,54.0,1645192689.03125,P16,D07,1,1,0
2195,-32.0,-7.0,54.0,1645192689.0625,P16,D07,1,1,0
2196,-32.0,-7.0,54.0,1645192689.09375,P16,D07,1,1,0
2197,-33.0,-7.0,54.0,1645192689.125,P16,D07,1,1,0
2198,-32.0,-7.0,54.0,1645192689.15625,P16,D07,1,1,0
2199,-32.0,-7.0,54.0,1645192689.1875,P16,D07,1,1,0
2200,-33.0,-7.0,54.0,1645192689.21875,P16,D07,1,1,0
2201,-32.0,-7.0,54.0,1645192689.25,P16,D07,1,1,0
2202,-32.0,-7.0,54.0,1645192689.28125,P16,D07,1,1,0
2203,-32.0,-7.0,54.0,1645192689.3125,P16,D07,1,1,0
2204,-33.0,-7.0,54.0,1645192689.34375,P16,D07,1,1,0
2205,-32.0,-7.0,54.0,1645192689.375,P16,D07,1,1,0
2206,-32.0,-7.0,54.0,1645192689.40625,P16,D07,1,1,0
2207,-33.0,-7.0,54.0,1645192689.4375,P16,D07,1,1,0
2208,-32.0,-7.0,54.0,1645192689.46875,P16,D07,1,1,0
2209,-32.0,-7.0,54.0,1645192689.5,P16,D07,1,1,0
2210,-32.0,-7.0,54.0,1645192689.53125,P16,D07,1,1,0
2211,-32.0,-7.0,54.0,1645192689.5625,P16,D07,1,1,0
2212,-32.0,-7.0,54.0,1645192689.59375,P16,D07,1,1,0
2213,-32.0,-7.0,54.0,1645192689.625,P16,D07,1,1,0
2214,-32.0,-7.0,54.0,1645192689.65625,P16,D07,1,1,0
2215,-33.0,-7.0,54.0,1645192689.6875,P16,D07,1,1,0
2216,-32.0,-7.0,54.0,1645192689.71875,P16,D07,1,1,0
2217,-32.0,-7.0,54.0,1645192689.75,P16,D07,1,1,0
2218,-33.0,-7.0,54.0,1645192689.78125,P16,D07,1,1,0
2219,-32.0,-7.0,54.0,1645192689.8125,P16,D07,1,1,0
2220,-33.0,-7.0,54.0,1645192689.84375,P16,D07,1,1,0
2221,-32.0,-6.0,54.0,1645192689.875,P16,D07,1,1,0
2222,-32.0,-7.0,54.0,1645192689.90625,P16,D07,1,1,0
2223,-32.0,-7.0,54.0,1645192689.9375,P16,D07,1,1,0
2224,-32.0,-7.0,54.0,1645192689.96875,P16,D07,1,1,0
2225,-32.0,-7.0,54.0,1645192690.0,P16,D07,1,1,0
2226,-32.0,-6.0,54.0,1645192690.03125,P16,D07,1,1,0
2227,-32.0,-7.0,54.0,1645192690.0625,P16,D07,1,1,0
2228,-32.0,-6.0,54.0,1645192690.09375,P16,D07,1,1,0
2229,-32.0,-7.0,54.0,1645192690.125,P16,D07,1,1,0
2230,-32.0,-7.0,54.0,1645192690.15625,P16,D07,1,1,0
2231,-32.0,-7.0,54.0,1645192690.1875,P16,D07,1,1,0
2232,-32.0,-6.0,54.0,1645192690.21875,P16,D07,1,1,0
2233,-32.0,-6.0,54.0,1645192690.25,P16,D07,1,1,0
2234,-32.0,-6.0,54.0,1645192690.28125,P16,D07,1,1,0
2235,-32.0,-6.0,54.0,1645192690.3125,P16,D07,1,1,0
2236,-32.0,-6.0,54.0,1645192690.34375,P16,D07,1,1,0
2237,-32.0,-6.0,54.0,1645192690.375,P16,D07,1,1,0
2238,-32.0,-6.0,54.0,1645192690.40625,P16,D07,1,1,0
2239,-32.0,-6.0,54.0,1645192690.4375,P16,D07,1,1,0
2240,-32.0,-7.0,54.0,1645192690.46875,P16,D07,1,1,0
2241,-32.0,-7.0,54.0,1645192690.5,P16,D07,1,1,0
2242,-32.0,-6.0,54.0,1645192690.53125,P16,D07,1,1,0
2243,-32.0,-7.0,54.0,1645192690.5625,P16,D07,1,1,0
2244,-33.0,-7.0,54.0,1645192690.59375,P16,D07,1,1,0
2245,-31.0,-6.0,54.0,1645192690.625,P16,D07,1,1,0
2246,-32.0,-6.0,54.0,1645192690.65625,P16,D07,1,1,0
2247,-32.0,-6.0,54.0,1645192690.6875,P16,D07,1,1,0
2248,-32.0,-6.0,54.0,1645192690.71875,P16,D07,1,1,0
2249,-32.0,-6.0,54.0,1645192690.75,P16,D07,1,1,0
2250,-32.0,-6.0,54.0,1645192690.78125,P16,D07,1,1,0
2251,-32.0,-6.0,54.0,1645192690.8125,P16,D07,1,1,0
2252,-32.0,-6.0,54.0,1645192690.84375,P16,D07,1,1,0
2253,-32.0,-6.0,54.0,1645192690.875,P16,D07,1,1,0
2254,-32.0,-6.0,54.0,1645192690.90625,P16,D07,1,1,0
2255,-32.0,-6.0,54.0,1645192690.9375,P16,D07,1,1,0
2256,-32.0,-6.0,54.0,1645192690.96875,P16,D07,1,1,0
2257,-32.0,-6.0,54.0,1645192691.0,P16,D07,1,1,0
2258,-32.0,-6.0,54.0,1645192691.03125,P16,D07,1,1,0
2259,-32.0,-6.0,54.0,1645192691.0625,P16,D07,1,1,0
2260,-32.0,-6.0,54.0,1645192691.09375,P16,D07,1,1,0
2261,-32.0,-6.0,54.0,1645192691.125,P16,D07,1,1,0
2262,-32.0,-6.0,54.0,1645192691.15625,P16,D07,1,1,0
2263,-32.0,-6.0,54.0,1645192691.1875,P16,D07,1,1,0
2264,-32.0,-6.0,54.0,1645192691.21875,P16,D07,1,1,0
2265,-32.0,-6.0,54.0,1645192691.25,P16,D07,1,1,0
2266,-32.0,-6.0,54.0,1645192691.28125,P16,D07,1,1,0
2267,-32.0,-6.0,54.0,1645192691.3125,P16,D07,1,1,0
2268,-32.0,-6.0,54.0,1645192691.34375,P16,D07,1,1,0
2269,-32.0,-6.0,54.0,1645192691.375,P16,D07,1,1,0
2270,-32.0,-7.0,54.0,1645192691.40625,P16,D07,1,1,0
2271,-32.0,-6.0,54.0,1645192691.4375,P16,D07,1,1,0
2272,-32.0,-6.0,54.0,1645192691.46875,P16,D07,1,1,0
2273,-32.0,-7.0,54.0,1645192691.5,P16,D07,1,1,0
2274,-32.0,-7.0,54.0,1645192691.53125,P16,D07,1,1,0
2275,-32.0,-7.0,54.0,1645192691.5625,P16,D07,1,1,0
2276,-32.0,-7.0,54.0,1645192691.59375,P16,D07,1,1,0
2277,-32.0,-7.0,54.0,1645192691.625,P16,D07,1,1,0
2278,-32.0,-7.0,54.0,1645192691.65625,P16,D07,1,1,0
2279,-32.0,-6.0,54.0,1645192691.6875,P16,D07,1,1,0
2280,-32.0,-6.0,54.0,1645192691.71875,P16,D07,1,1,0
2281,-32.0,-7.0,54.0,1645192691.75,P16,D07,1,1,0
2282,-32.0,-7.0,54.0,1645192691.78125,P16,D07,1,1,0
2283,-32.0,-6.0,54.0,1645192691.8125,P16,D07,1,1,0
2284,-32.0,-7.0,54.0,1645192691.84375,P16,D07,1,1,0
2285,-32.0,-7.0,54.0,1645192691.875,P16,D07,1,1,0
2286,-32.0,-6.0,54.0,1645192691.90625,P16,D07,1,1,0
2287,-32.0,-6.0,54.0,1645192691.9375,P16,D07,1,1,0
2288,-32.0,-7.0,54.0,1645192691.96875,P16,D07,1,1,0
2289,-32.0,-7.0,54.0,1645192692.0,P16,D07,1,1,0
2290,-32.0,-7.0,54.0,1645192692.03125,P16,D07,1,1,0
2291,-32.0,-7.0,54.0,1645192692.0625,P16,D07,1,1,0
2292,-32.0,-7.0,54.0,1645192692.09375,P16,D07,1,1,0
2293,-32.0,-7.0,54.0,1645192692.125,P16,D07,1,1,0
2294,-32.0,-6.0,54.0,1645192692.15625,P16,D07,1,1,0
2295,-32.0,-6.0,54.0,1645192692.1875,P16,D07,1,1,0
2296,-32.0,-6.0,54.0,1645192692.21875,P16,D07,1,1,0
2297,-32.0,-7.0,54.0,1645192692.25,P16,D07,1,1,0
2298,-33.0,-7.0,54.0,1645192692.28125,P16,D07,1,1,0
2299,-32.0,-7.0,54.0,1645192692.3125,P16,D07,1,1,0
2300,-32.0,-6.0,54.0,1645192692.34375,P16,D07,1,1,0
2301,-32.0,-7.0,54.0,1645192692.375,P16,D07,1,1,0
2302,-32.0,-7.0,54.0,1645192692.40625,P16,D07,1,1,0
2303,-32.0,-7.0,54.0,1645192692.4375,P16,D07,1,1,0
2304,-33.0,-6.0,53.0,1645192692.46875,P16,D07,1,1,0
2305,-33.0,-6.0,54.0,1645192692.5,P16,D07,1,1,0
2306,-32.0,-7.0,54.0,1645192692.53125,P16,D07,1,1,0
2307,-32.0,-7.0,54.0,1645192692.5625,P16,D07,1,1,0
2308,-33.0,-6.0,54.0,1645192692.59375,P16,D07,1,1,0
2309,-33.0,-7.0,54.0,1645192692.625,P16,D07,1,1,0
2310,-32.0,-7.0,54.0,1645192692.65625,P16,D07,1,1,0
2311,-33.0,-7.0,53.0,1645192692.6875,P16,D07,1,1,0
2312,-33.0,-7.0,54.0,1645192692.71875,P16,D07,1,1,0
2313,-33.0,-7.0,54.0,1645192692.75,P16,D07,1,1,0
2314,-32.0,-7.0,54.0,1645192692.78125,P16,D07,1,1,0
2315,-33.0,-7.0,53.0,1645192692.8125,P16,D07,1,1,0
2316,-33.0,-7.0,54.0,1645192692.84375,P16,D07,1,1,0
2317,-32.0,-7.0,54.0,1645192692.875,P16,D07,1,1,0
2318,-32.0,-7.0,54.0,1645192692.90625,P16,D07,1,1,0
2319,-32.0,-7.0,54.0,1645192692.9375,P16,D07,1,1,0
2320,-32.0,-7.0,54.0,1645192692.96875,P16,D07,1,1,0
2321,-33.0,-7.0,53.0,1645192693.0,P16,D07,1,1,0
2322,-33.0,-7.0,54.0,1645192693.03125,P16,D07,1,1,0
2323,-32.0,-7.0,54.0,1645192693.0625,P16,D07,1,1,0
2324,-32.0,-7.0,54.0,1645192693.09375,P16,D07,1,1,0
2325,-32.0,-7.0,53.0,1645192693.125,P16,D07,1,1,0
2326,-33.0,-7.0,54.0,1645192693.15625,P16,D07,1,1,0
2327,-32.0,-7.0,54.0,1645192693.1875,P16,D07,1,1,0
2328,-33.0,-7.0,54.0,1645192693.21875,P16,D07,1,1,0
2329,-33.0,-7.0,54.0,1645192693.25,P16,D07,1,1,0
2330,-32.0,-7.0,54.0,1645192693.28125,P16,D07,1,1,0
2331,-32.0,-7.0,54.0,1645192693.3125,P16,D07,1,1,0
2332,-33.0,-7.0,54.0,1645192693.34375,P16,D07,1,1,0
2333,-33.0,-7.0,53.0,1645192693.375,P16,D07,1,1,0
2334,-33.0,-7.0,54.0,1645192693.40625,P16,D07,1,1,0
2335,-33.0,-7.0,54.0,1645192693.4375,P16,D07,1,1,0
2336,-33.0,-7.0,54.0,1645192693.46875,P16,D07,1,1,0
2337,-33.0,-7.0,54.0,1645192693.5,P16,D07,1,1,0
2338,-33.0,-7.0,54.0,1645192693.53125,P16,D07,1,1,0
2339,-32.0,-7.0,54.0,1645192693.5625,P16,D07,1,1,0
2340,-33.0,-7.0,54.0,1645192693.59375,P16,D07,1,1,0
2341,-32.0,-7.0,54.0,1645192693.625,P16,D07,1,1,0
2342,-32.0,-7.0,54.0,1645192693.65625,P16,D07,1,1,0
2343,-32.0,-7.0,54.0,1645192693.6875,P16,D07,1,1,0
2344,-33.0,-7.0,54.0,1645192693.71875,P16,D07,1,1,0
2345,-33.0,-7.0,54.0,1645192693.75,P16,D07,1,1,0
2346,-32.0,-7.0,54.0,1645192693.78125,P16,D07,1,1,0
2347,-32.0,-7.0,54.0,1645192693.8125,P16,D07,1,1,0
2348,-32.0,-7.0,54.0,1645192693.84375,P16,D07,1,1,0
2349,-32.0,-7.0,54.0,1645192693.875,P16,D07,1,1,0
2350,-32.0,-7.0,54.0,1645192693.90625,P16,D07,1,1,0
2351,-33.0,-6.0,54.0,1645192693.9375,P16,D07,1,1,0
2352,-32.0,-7.0,54.0,1645192693.96875,P16,D07,1,1,0
2353,-33.0,-7.0,54.0,1645192694.0,P16,D07,1,1,0
2354,-32.0,-7.0,54.0,1645192694.03125,P16,D07,1,1,0
2355,-33.0,-7.0,54.0,1645192694.0625,P16,D07,1,1,0
2356,-32.0,-6.0,54.0,1645192694.09375,P16,D07,1,1,0
2357,-32.0,-7.0,54.0,1645192694.125,P16,D07,1,1,0
2358,-32.0,-6.0,54.0,1645192694.15625,P16,D07,1,1,0
2359,-33.0,-6.0,53.0,1645192694.1875,P16,D07,1,1,0
2360,-32.0,-6.0,53.0,1645192694.21875,P16,D07,1,1,0
2361,-32.0,-7.0,54.0,1645192694.25,P16,D07,1,1,0
2362,-32.0,-8.0,54.0,1645192694.28125,P16,D07,1,1,0
2363,-33.0,-7.0,54.0,1645192694.3125,P16,D07,1,1,0
2364,-32.0,-6.0,54.0,1645192694.34375,P16,D07,1,1,0
2365,-32.0,-7.0,54.0,1645192694.375,P16,D07,1,1,0
2366,-32.0,-7.0,54.0,1645192694.40625,P16,D07,1,1,0
2367,-33.0,-7.0,54.0,1645192694.4375,P16,D07,1,1,0
2368,-32.0,-7.0,53.0,1645192694.46875,P16,D07,1,1,0
