,acc_x,acc_y,acc_z,timestamp,participant,document,val,arou,eng
0,-38.0,2.0,50.0,1645184356.6875,P15,D00,0,0,0
1,-38.0,3.0,51.0,1645184356.71875,P15,D00,0,0,0
2,-41.0,3.0,49.0,1645184356.75,P15,D00,0,0,0
3,-40.0,3.0,49.0,1645184356.78125,P15,D00,0,0,0
4,-41.0,2.0,49.0,1645184356.8125,P15,D00,0,0,0
5,-41.0,2.0,49.0,1645184356.84375,P15,D00,0,0,0
6,-42.0,2.0,49.0,1645184356.875,P15,D00,0,0,0
7,-41.0,4.0,49.0,1645184356.90625,P15,D00,0,0,0
8,-41.0,4.0,49.0,1645184356.9375,P15,D00,0,0,0
9,-42.0,3.0,48.0,1645184356.96875,P15,D00,0,0,0
10,-42.0,2.0,48.0,1645184357.0,P15,D00,0,0,0
11,-41.0,3.0,48.0,1645184357.03125,P15,D00,0,0,0
12,-40.0,3.0,49.0,1645184357.0625,P15,D00,0,0,0
13,-40.0,3.0,49.0,1645184357.09375,P15,D00,0,0,0
14,-40.0,3.0,49.0,1645184357.125,P15,D00,0,0,0
15,-39.0,4.0,49.0,1645184357.15625,P15,D00,0,0,0
16,-40.0,1.0,50.0,1645184357.1875,P15,D00,0,0,0
17,-40.0,4.0,50.0,1645184357.21875,P15,D00,0,0,0
18,-40.0,2.0,50.0,1645184357.25,P15,D00,0,0,0
19,-40.0,4.0,49.0,1645184357.28125,P15,D00,0,0,0
20,-39.0,2.0,51.0,1645184357.3125,P15,D00,0,0,0
21,-40.0,3.0,50.0,1645184357.34375,P15,D00,0,0,0
22,-40.0,3.0,49.0,1645184357.375,P15,D00,0,0,0
23,-39.0,2.0,49.0,1645184357.40625,P15,D00,0,0,0
24,-40.0,4.0,50.0,1645184357.4375,P15,D00,0,0,0
25,-40.0,3.0,49.0,1645184357.46875,P15,D00,0,0,0
26,-42.0,3.0,48.0,1645184357.5,P15,D00,0,0,0
27,-42.0,3.0,48.0,1645184357.53125,P15,D00,0,0,0
28,-40.0,2.0,49.0,1645184357.5625,P15,D00,0,0,0
29,-39.0,3.0,49.0,1645184357.59375,P15,D00,0,0,0
30,-41.0,2.0,49.0,1645184357.625,P15,D00,0,0,0
31,-42.0,2.0,48.0,1645184357.65625,P15,D00,0,0,0
32,-41.0,3.0,48.0,1645184357.6875,P15,D00,0,0,0
33,-40.0,2.0,49.0,1645184357.71875,P15,D00,0,0,0
34,-40.0,3.0,49.0,1645184357.75,P15,D00,0,0,0
35,-40.0,2.0,49.0,1645184357.78125,P15,D00,0,0,0
36,-42.0,3.0,48.0,1645184357.8125,P15,D00,0,0,0
37,-41.0,4.0,48.0,1645184357.84375,P15,D00,0,0,0
38,-42.0,3.0,48.0,1645184357.875,P15,D00,0,0,0
39,-42.0,2.0,48.0,1645184357.90625,P15,D00,0,0,0
40,-42.0,2.0,48.0,1645184357.9375,P15,D00,0,0,0
41,-41.0,3.0,49.0,1645184357.96875,P15,D00,0,0,0
42,-40.0,2.0,49.0,1645184358.0,P15,D00,0,0,0
43,-40.0,2.0,50.0,1645184358.03125,P15,D00,0,0,0
44,-41.0,3.0,49.0,1645184358.0625,P15,D00,0,0,0
45,-40.0,3.0,49.0,1645184358.09375,P15,D00,0,0,0
46,-40.0,1.0,49.0,1645184358.125,P15,D00,0,0,0
47,-41.0,1.0,48.0,1645184358.15625,P15,D00,0,0,0
48,-42.0,2.0,48.0,1645184358.1875,P15,D00,0,0,0
49,-41.0,2.0,49.0,1645184358.21875,P15,D00,0,0,0
50,-40.0,3.0,49.0,1645184358.25,P15,D00,0,0,0
51,-42.0,3.0,48.0,1645184358.28125,P15,D00,0,0,0
52,-41.0,2.0,48.0,1645184358.3125,P15,D00,0,0,0
53,-41.0,2.0,48.0,1645184358.34375,P15,D00,0,0,0
54,-41.0,2.0,48.0,1645184358.375,P15,D00,0,0,0
55,-43.0,2.0,48.0,1645184358.40625,P15,D00,0,0,0
56,-40.0,2.0,49.0,1645184358.4375,P15,D00,0,0,0
57,-41.0,3.0,48.0,1645184358.46875,P15,D00,0,0,0
58,-41.0,2.0,49.0,1645184358.5,P15,D00,0,0,0
59,-39.0,2.0,50.0,1645184358.53125,P15,D00,0,0,0
60,-39.0,2.0,50.0,1645184358.5625,P15,D00,0,0,0
61,-39.0,2.0,50.0,1645184358.59375,P15,D00,0,0,0
62,-40.0,2.0,49.0,1645184358.625,P15,D00,0,0,0
63,-41.0,2.0,49.0,1645184358.65625,P15,D00,0,0,0
64,-40.0,4.0,48.0,1645184358.6875,P15,D00,0,0,0
65,-43.0,3.0,47.0,1645184358.71875,P15,D00,0,0,0
66,-42.0,2.0,48.0,1645184358.75,P15,D00,0,0,0
67,-39.0,2.0,49.0,1645184358.78125,P15,D00,0,0,0
68,-41.0,2.0,49.0,1645184358.8125,P15,D00,0,0,0
69,-43.0,3.0,48.0,1645184358.84375,P15,D00,0,0,0
70,-40.0,2.0,49.0,1645184358.875,P15,D00,0,0,0
71,-39.0,2.0,50.0,1645184358.90625,P15,D00,0,0,0
72,-40.0,3.0,50.0,1645184358.9375,P15,D00,0,0,0
73,-40.0,2.0,49.0,1645184358.96875,P15,D00,0,0,0
74,-41.0,1.0,49.0,1645184359.0,P15,D00,0,0,0
75,-40.0,2.0,50.0,1645184359.03125,P15,D00,0,0,0
76,-38.0,3.0,50.0,1645184359.0625,P15,D00,0,0,0
77,-39.0,3.0,49.0,1645184359.09375,P15,D00,0,0,0
78,-39.0,2.0,50.0,1645184359.125,P15,D00,0,0,0
79,-39.0,3.0,50.0,1645184359.15625,P15,D00,0,0,0
80,-40.0,3.0,50.0,1645184359.1875,P15,D00,0,0,0
81,-40.0,2.0,50.0,1645184359.21875,P15,D00,0,0,0
82,-40.0,3.0,49.0,1645184359.25,P15,D00,0,0,0
83,-41.0,2.0,49.0,1645184359.28125,P15,D00,0,0,0
84,-41.0,3.0,49.0,1645184359.3125,P15,D00,0,0,0
85,-40.0,2.0,49.0,1645184359.34375,P15,D00,0,0,0
86,-39.0,3.0,50.0,1645184359.375,P15,D00,0,0,0
87,-40.0,0.0,50.0,1645184359.40625,P15,D00,0,0,0
88,-38.0,3.0,51.0,1645184359.4375,P15,D00,0,0,0
89,-37.0,2.0,51.0,1645184359.46875,P15,D00,0,0,0
90,-40.0,3.0,50.0,1645184359.5,P15,D00,0,0,0
91,-41.0,3.0,49.0,1645184359.53125,P15,D00,0,0,0
92,-44.0,2.0,47.0,1645184359.5625,P15,D00,0,0,0
93,-43.0,1.0,48.0,1645184359.59375,P15,D00,0,0,0
94,-40.0,2.0,49.0,1645184359.625,P15,D00,0,0,0
95,-41.0,2.0,48.0,1645184359.65625,P15,D00,0,0,0
96,-40.0,3.0,48.0,1645184359.6875,P15,D00,0,0,0
97,-41.0,4.0,49.0,1645184359.71875,P15,D00,0,0,0
98,-42.0,3.0,48.0,1645184359.75,P15,D00,0,0,0
99,-39.0,2.0,50.0,1645184359.78125,P15,D00,0,0,0
100,-41.0,2.0,49.0,1645184359.8125,P15,D00,0,0,0
101,-43.0,2.0,48.0,1645184359.84375,P15,D00,0,0,0
102,-42.0,2.0,47.0,1645184359.875,P15,D00,0,0,0
103,-42.0,2.0,48.0,1645184359.90625,P15,D00,0,0,0
104,-44.0,1.0,47.0,1645184359.9375,P15,D00,0,0,0
105,-40.0,2.0,48.0,1645184359.96875,P15,D00,0,0,0
106,-40.0,3.0,49.0,1645184360.0,P15,D00,0,0,0
107,-42.0,2.0,48.0,1645184360.03125,P15,D00,0,0,0
108,-44.0,2.0,47.0,1645184360.0625,P15,D00,0,0,0
109,-43.0,3.0,48.0,1645184360.09375,P15,D00,0,0,0
110,-42.0,2.0,48.0,1645184360.125,P15,D00,0,0,0
111,-42.0,2.0,47.0,1645184360.15625,P15,D00,0,0,0
112,-42.0,2.0,48.0,1645184360.1875,P15,D00,0,0,0
113,-42.0,1.0,48.0,1645184360.21875,P15,D00,0,0,0
114,-41.0,2.0,48.0,1645184360.25,P15,D00,0,0,0
115,-41.0,2.0,48.0,1645184360.28125,P15,D00,0,0,0
116,-42.0,1.0,48.0,1645184360.3125,P15,D00,0,0,0
117,-42.0,2.0,48.0,1645184360.34375,P15,D00,0,0,0
118,-41.0,2.0,48.0,1645184360.375,P15,D00,0,0,0
119,-41.0,2.0,48.0,1645184360.40625,P15,D00,0,0,0
120,-42.0,3.0,48.0,1645184360.4375,P15,D00,0,0,0
121,-41.0,0.0,49.0,1645184360.46875,P15,D00,0,0,0
122,-39.0,1.0,49.0,1645184360.5,P15,D00,0,0,0
123,-41.0,1.0,48.0,1645184360.53125,P15,D00,0,0,0
124,-41.0,2.0,48.0,1645184360.5625,P15,D00,0,0,0
125,-41.0,3.0,49.0,1645184360.59375,P15,D00,0,0,0
126,-41.0,3.0,48.0,1645184360.625,P15,D00,0,0,0
127,-42.0,2.0,47.0,1645184360.65625,P15,D00,0,0,0
128,-43.0,2.0,47.0,1645184360.6875,P15,D00,0,0,0
129,-42.0,2.0,48.0,1645184360.71875,P15,D00,0,0,0
130,-41.0,1.0,48.0,1645184360.75,P15,D00,0,0,0
131,-42.0,2.0,47.0,1645184360.78125,P15,D00,0,0,0
132,-43.0,2.0,48.0,1645184360.8125,P15,D00,0,0,0
133,-42.0,1.0,47.0,1645184360.84375,P15,D00,0,0,0
134,-43.0,1.0,47.0,1645184360.875,P15,D00,0,0,0
135,-42.0,2.0,47.0,1645184360.90625,P15,D00,0,0,0
136,-42.0,2.0,47.0,1645184360.9375,P15,D00,0,0,0
137,-44.0,2.0,47.0,1645184360.96875,P15,D00,0,0,0
138,-42.0,2.0,47.0,1645184361.0,P15,D00,0,0,0
139,-43.0,2.0,47.0,1645184361.03125,P15,D00,0,0,0
140,-43.0,1.0,47.0,1645184361.0625,P15,D00,0,0,0
141,-43.0,1.0,47.0,1645184361.09375,P15,D00,0,0,0
142,-43.0,2.0,47.0,1645184361.125,P15,D00,0,0,0
143,-43.0,2.0,47.0,1645184361.15625,P15,D00,0,0,0
144,-43.0,1.0,47.0,1645184361.1875,P15,D00,0,0,0
145,-43.0,2.0,47.0,1645184361.21875,P15,D00,0,0,0
146,-43.0,1.0,47.0,1645184361.25,P15,D00,0,0,0
147,-42.0,1.0,47.0,1645184361.28125,P15,D00,0,0,0
148,-43.0,2.0,47.0,1645184361.3125,P15,D00,0,0,0
149,-42.0,2.0,47.0,1645184361.34375,P15,D00,0,0,0
150,-42.0,1.0,47.0,1645184361.375,P15,D00,0,0,0
151,-43.0,1.0,47.0,1645184361.40625,P15,D00,0,0,0
152,-42.0,1.0,48.0,1645184361.4375,P15,D00,0,0,0
153,-43.0,1.0,47.0,1645184361.46875,P15,D00,0,0,0
154,-42.0,1.0,47.0,1645184361.5,P15,D00,0,0,0
155,-42.0,1.0,47.0,1645184361.53125,P15,D00,0,0,0
156,-43.0,2.0,47.0,1645184361.5625,P15,D00,0,0,0
157,-43.0,2.0,47.0,1645184361.59375,P15,D00,0,0,0
158,-43.0,1.0,47.0,1645184361.625,P15,D00,0,0,0
159,-43.0,1.0,47.0,1645184361.65625,P15,D00,0,0,0
160,-43.0,1.0,47.0,1645184361.6875,P15,D00,0,0,0
161,-43.0,1.0,47.0,1645184361.71875,P15,D00,0,0,0
162,-43.0,1.0,47.0,1645184361.75,P15,D00,0,0,0
163,-43.0,1.0,47.0,1645184361.78125,P15,D00,0,0,0
164,-44.0,1.0,47.0,1645184361.8125,P15,D00,0,0,0
165,-43.0,1.0,47.0,1645184361.84375,P15,D00,0,0,0
166,-42.0,1.0,48.0,1645184361.875,P15,D00,0,0,0
167,-43.0,1.0,47.0,1645184361.90625,P15,D00,0,0,0
168,-44.0,1.0,47.0,1645184361.9375,P15,D00,0,0,0
169,-42.0,1.0,47.0,1645184361.96875,P15,D00,0,0,0
170,-42.0,1.0,48.0,1645184362.0,P15,D00,0,0,0
171,-42.0,1.0,47.0,1645184362.03125,P15,D00,0,0,0
172,-42.0,1.0,47.0,1645184362.0625,P15,D00,0,0,0
173,-41.0,1.0,48.0,1645184362.09375,P15,D00,0,0,0
174,-41.0,1.0,48.0,1645184362.125,P15,D00,0,0,0
175,-42.0,1.0,48.0,1645184362.15625,P15,D00,0,0,0
176,-42.0,2.0,48.0,1645184362.1875,P15,D00,0,0,0
177,-43.0,2.0,48.0,1645184362.21875,P15,D00,0,0,0
178,-41.0,2.0,48.0,1645184362.25,P15,D00,0,0,0
179,-43.0,1.0,48.0,1645184362.28125,P15,D00,0,0,0
180,-42.0,2.0,48.0,1645184362.3125,P15,D00,0,0,0
181,-42.0,1.0,48.0,1645184362.34375,P15,D00,0,0,0
182,-42.0,2.0,48.0,1645184362.375,P15,D00,0,0,0
183,-42.0,1.0,48.0,1645184362.40625,P15,D00,0,0,0
184,-41.0,1.0,48.0,1645184362.4375,P15,D00,0,0,0
185,-41.0,1.0,48.0,1645184362.46875,P15,D00,0,0,0
186,-42.0,2.0,48.0,1645184362.5,P15,D00,0,0,0
187,-41.0,2.0,48.0,1645184362.53125,P15,D00,0,0,0
188,-40.0,1.0,48.0,1645184362.5625,P15,D00,0,0,0
189,-42.0,1.0,48.0,1645184362.59375,P15,D00,0,0,0
190,-42.0,1.0,48.0,1645184362.625,P15,D00,0,0,0
191,-42.0,1.0,48.0,1645184362.65625,P15,D00,0,0,0
192,-42.0,2.0,48.0,1645184362.6875,P15,D00,0,0,0
193,-42.0,2.0,48.0,1645184362.71875,P15,D00,0,0,0
194,-41.0,1.0,48.0,1645184362.75,P15,D00,0,0,0
195,-42.0,0.0,48.0,1645184362.78125,P15,D00,0,0,0
196,-41.0,2.0,48.0,1645184362.8125,P15,D00,0,0,0
197,-41.0,1.0,48.0,1645184362.84375,P15,D00,0,0,0
198,-41.0,2.0,48.0,1645184362.875,P15,D00,0,0,0
199,-42.0,2.0,48.0,1645184362.90625,P15,D00,0,0,0
200,-41.0,2.0,48.0,1645184362.9375,P15,D00,0,0,0
201,-41.0,2.0,48.0,1645184362.96875,P15,D00,0,0,0
202,-42.0,2.0,48.0,1645184363.0,P15,D00,0,0,0
203,-41.0,2.0,48.0,1645184363.03125,P15,D00,0,0,0
204,-41.0,2.0,48.0,1645184363.0625,P15,D00,0,0,0
205,-41.0,1.0,48.0,1645184363.09375,P15,D00,0,0,0
206,-42.0,2.0,48.0,1645184363.125,P15,D00,0,0,0
207,-42.0,2.0,48.0,1645184363.15625,P15,D00,0,0,0
208,-41.0,2.0,48.0,1645184363.1875,P15,D00,0,0,0
209,-41.0,1.0,48.0,1645184363.21875,P15,D00,0,0,0
210,-42.0,2.0,48.0,1645184363.25,P15,D00,0,0,0
211,-42.0,2.0,48.0,1645184363.28125,P15,D00,0,0,0
212,-41.0,1.0,48.0,1645184363.3125,P15,D00,0,0,0
213,-41.0,1.0,48.0,1645184363.34375,P15,D00,0,0,0
214,-42.0,2.0,48.0,1645184363.375,P15,D00,0,0,0
215,-41.0,1.0,48.0,1645184363.40625,P15,D00,0,0,0
216,-42.0,2.0,48.0,1645184363.4375,P15,D00,0,0,0
217,-41.0,1.0,48.0,1645184363.46875,P15,D00,0,0,0
218,-41.0,2.0,48.0,1645184363.5,P15,D00,0,0,0
219,-42.0,2.0,48.0,1645184363.53125,P15,D00,0,0,0
220,-42.0,2.0,48.0,1645184363.5625,P15,D00,0,0,0
221,-42.0,2.0,48.0,1645184363.59375,P15,D00,0,0,0
222,-42.0,2.0,48.0,1645184363.625,P15,D00,0,0,0
223,-42.0,2.0,48.0,1645184363.65625,P15,D00,0,0,0
224,-42.0,2.0,48.0,1645184363.6875,P15,D00,0,0,0
225,-42.0,2.0,48.0,1645184363.71875,P15,D00,0,0,0
226,-42.0,1.0,48.0,1645184363.75,P15,D00,0,0,0
227,-42.0,2.0,47.0,1645184363.78125,P15,D00,0,0,0
228,-42.0,2.0,47.0,1645184363.8125,P15,D00,0,0,0
229,-42.0,2.0,47.0,1645184363.84375,P15,D00,0,0,0
230,-42.0,1.0,48.0,1645184363.875,P15,D00,0,0,0
231,-42.0,2.0,47.0,1645184363.90625,P15,D00,0,0,0
232,-42.0,2.0,47.0,1645184363.9375,P15,D00,0,0,0
233,-42.0,2.0,48.0,1645184363.96875,P15,D00,0,0,0
234,-42.0,2.0,47.0,1645184364.0,P15,D00,0,0,0
235,-42.0,1.0,48.0,1645184364.03125,P15,D00,0,0,0
236,-42.0,2.0,48.0,1645184364.0625,P15,D00,0,0,0
237,-43.0,2.0,47.0,1645184364.09375,P15,D00,0,0,0
238,-42.0,2.0,47.0,1645184364.125,P15,D00,0,0,0
239,-42.0,2.0,47.0,1645184364.15625,P15,D00,0,0,0
240,-42.0,2.0,48.0,1645184364.1875,P15,D00,0,0,0
241,-42.0,1.0,48.0,1645184364.21875,P15,D00,0,0,0
242,-43.0,2.0,47.0,1645184364.25,P15,D00,0,0,0
243,-42.0,2.0,48.0,1645184364.28125,P15,D00,0,0,0
244,-41.0,1.0,48.0,1645184364.3125,P15,D00,0,0,0
245,-42.0,2.0,47.0,1645184364.34375,P15,D00,0,0,0
246,-42.0,2.0,47.0,1645184364.375,P15,D00,0,0,0
247,-42.0,2.0,48.0,1645184364.40625,P15,D00,0,0,0
248,-42.0,2.0,48.0,1645184364.4375,P15,D00,0,0,0
249,-42.0,1.0,48.0,1645184364.46875,P15,D00,0,0,0
250,-43.0,1.0,47.0,1645184364.5,P15,D00,0,0,0
251,-42.0,1.0,47.0,1645184364.53125,P15,D00,0,0,0
252,-42.0,2.0,47.0,1645184364.5625,P15,D00,0,0,0
253,-42.0,2.0,47.0,1645184364.59375,P15,D00,0,0,0
254,-42.0,2.0,48.0,1645184364.625,P15,D00,0,0,0
255,-42.0,2.0,47.0,1645184364.65625,P15,D00,0,0,0
256,-42.0,1.0,47.0,1645184364.6875,P15,D00,0,0,0
257,-42.0,2.0,47.0,1645184364.71875,P15,D00,0,0,0
258,-42.0,1.0,48.0,1645184364.75,P15,D00,0,0,0
259,-42.0,1.0,48.0,1645184364.78125,P15,D00,0,0,0
260,-42.0,2.0,48.0,1645184364.8125,P15,D00,0,0,0
261,-42.0,1.0,48.0,1645184364.84375,P15,D00,0,0,0
262,-42.0,2.0,47.0,1645184364.875,P15,D00,0,0,0
263,-42.0,1.0,48.0,1645184364.90625,P15,D00,0,0,0
264,-42.0,1.0,47.0,1645184364.9375,P15,D00,0,0,0
265,-43.0,1.0,47.0,1645184364.96875,P15,D00,0,0,0
266,-42.0,1.0,48.0,1645184365.0,P15,D00,0,0,0
267,-42.0,1.0,48.0,1645184365.03125,P15,D00,0,0,0
268,-43.0,2.0,47.0,1645184365.0625,P15,D00,0,0,0
269,-42.0,2.0,48.0,1645184365.09375,P15,D00,0,0,0
270,-42.0,1.0,47.0,1645184365.125,P15,D00,0,0,0
271,-42.0,1.0,48.0,1645184365.15625,P15,D00,0,0,0
272,-42.0,1.0,48.0,1645184365.1875,P15,D00,0,0,0
273,-43.0,2.0,48.0,1645184365.21875,P15,D00,0,0,0
274,-42.0,2.0,47.0,1645184365.25,P15,D00,0,0,0
275,-42.0,2.0,48.0,1645184365.28125,P15,D00,0,0,0
276,-42.0,1.0,48.0,1645184365.3125,P15,D00,0,0,0
277,-42.0,1.0,48.0,1645184365.34375,P15,D00,0,0,0
278,-43.0,1.0,47.0,1645184365.375,P15,D00,0,0,0
279,-42.0,1.0,48.0,1645184365.40625,P15,D00,0,0,0
280,-42.0,2.0,48.0,1645184365.4375,P15,D00,0,0,0
281,-42.0,1.0,47.0,1645184365.46875,P15,D00,0,0,0
282,-42.0,1.0,47.0,1645184365.5,P15,D00,0,0,0
283,-43.0,2.0,47.0,1645184365.53125,P15,D00,0,0,0
284,-42.0,1.0,48.0,1645184365.5625,P15,D00,0,0,0
285,-42.0,1.0,48.0,1645184365.59375,P15,D00,0,0,0
286,-42.0,1.0,47.0,1645184365.625,P15,D00,0,0,0
287,-42.0,2.0,48.0,1645184365.65625,P15,D00,0,0,0
288,-42.0,1.0,48.0,1645184365.6875,P15,D00,0,0,0
289,-42.0,1.0,48.0,1645184365.71875,P15,D00,0,0,0
290,-42.0,1.0,48.0,1645184365.75,P15,D00,0,0,0
291,-42.0,1.0,48.0,1645184365.78125,P15,D00,0,0,0
292,-42.0,2.0,48.0,1645184365.8125,P15,D00,0,0,0
293,-42.0,1.0,47.0,1645184365.84375,P15,D00,0,0,0
294,-42.0,2.0,48.0,1645184365.875,P15,D00,0,0,0
295,-42.0,2.0,47.0,1645184365.90625,P15,D00,0,0,0
296,-42.0,1.0,48.0,1645184365.9375,P15,D00,0,0,0
297,-42.0,1.0,48.0,1645184365.96875,P15,D00,0,0,0
298,-42.0,2.0,47.0,1645184366.0,P15,D00,0,0,0
299,-42.0,2.0,48.0,1645184366.03125,P15,D00,0,0,0
300,-41.0,2.0,48.0,1645184366.0625,P15,D00,0,0,0
301,-43.0,2.0,47.0,1645184366.09375,P15,D00,0,0,0
302,-42.0,1.0,48.0,1645184366.125,P15,D00,0,0,0
303,-42.0,1.0,48.0,1645184366.15625,P15,D00,0,0,0
304,-42.0,1.0,48.0,1645184366.1875,P15,D00,0,0,0
305,-42.0,2.0,47.0,1645184366.21875,P15,D00,0,0,0
306,-42.0,2.0,48.0,1645184366.25,P15,D00,0,0,0
307,-42.0,1.0,48.0,1645184366.28125,P15,D00,0,0,0
308,-42.0,2.0,48.0,1645184366.3125,P15,D00,0,0,0
309,-42.0,2.0,48.0,1645184366.34375,P15,D00,0,0,0
310,-42.0,1.0,48.0,1645184366.375,P15,D00,0,0,0
311,-42.0,2.0,48.0,1645184366.40625,P15,D00,0,0,0
312,-42.0,2.0,48.0,1645184366.4375,P15,D00,0,0,0
313,-41.0,2.0,48.0,1645184366.46875,P15,D00,0,0,0
314,-42.0,2.0,47.0,1645184366.5,P15,D00,0,0,0
315,-42.0,1.0,48.0,1645184366.53125,P15,D00,0,0,0
316,-42.0,2.0,48.0,1645184366.5625,P15,D00,0,0,0
317,-42.0,2.0,48.0,1645184366.59375,P15,D00,0,0,0
318,-41.0,1.0,48.0,1645184366.625,P15,D00,0,0,0
319,-42.0,2.0,48.0,1645184366.65625,P15,D00,0,0,0
320,-42.0,2.0,48.0,1645184366.6875,P15,D00,0,0,0
321,-41.0,2.0,48.0,1645184366.71875,P15,D00,0,0,0
322,-42.0,2.0,48.0,1645184366.75,P15,D00,0,0,0
323,-42.0,1.0,48.0,1645184366.78125,P15,D00,0,0,0
324,-42.0,2.0,48.0,1645184366.8125,P15,D00,0,0,0
325,-42.0,1.0,48.0,1645184366.84375,P15,D00,0,0,0
326,-42.0,1.0,48.0,1645184366.875,P15,D00,0,0,0
327,-42.0,1.0,48.0,1645184366.90625,P15,D00,0,0,0
328,-42.0,2.0,48.0,1645184366.9375,P15,D00,0,0,0
329,-42.0,1.0,48.0,1645184366.96875,P15,D00,0,0,0
330,-42.0,1.0,48.0,1645184367.0,P15,D00,0,0,0
331,-42.0,1.0,48.0,1645184367.03125,P15,D00,0,0,0
332,-42.0,2.0,48.0,1645184367.0625,P15,D00,0,0,0
333,-42.0,1.0,48.0,1645184367.09375,P15,D00,0,0,0
334,-42.0,2.0,47.0,1645184367.125,P15,D00,0,0,0
335,-42.0,2.0,48.0,1645184367.15625,P15,D00,0,0,0
336,-42.0,2.0,48.0,1645184367.1875,P15,D00,0,0,0
337,-42.0,2.0,48.0,1645184367.21875,P15,D00,0,0,0
338,-42.0,2.0,48.0,1645184367.25,P15,D00,0,0,0
339,-42.0,2.0,48.0,1645184367.28125,P15,D00,0,0,0
340,-42.0,2.0,47.0,1645184367.3125,P15,D00,0,0,0
341,-42.0,1.0,48.0,1645184367.34375,P15,D00,0,0,0
342,-42.0,2.0,48.0,1645184367.375,P15,D00,0,0,0
343,-42.0,1.0,48.0,1645184367.40625,P15,D00,0,0,0
344,-42.0,1.0,48.0,1645184367.4375,P15,D00,0,0,0
345,-43.0,1.0,47.0,1645184367.46875,P15,D00,0,0,0
346,-42.0,2.0,48.0,1645184367.5,P15,D00,0,0,0
347,-42.0,1.0,48.0,1645184367.53125,P15,D00,0,0,0
348,-42.0,1.0,48.0,1645184367.5625,P15,D00,0,0,0
349,-42.0,2.0,47.0,1645184367.59375,P15,D00,0,0,0
350,-42.0,2.0,48.0,1645184367.625,P15,D00,0,0,0
351,-42.0,2.0,47.0,1645184367.65625,P15,D00,0,0,0
352,-42.0,2.0,48.0,1645184367.6875,P15,D00,0,0,0
353,-42.0,1.0,48.0,1645184367.71875,P15,D00,0,0,0
354,-42.0,2.0,47.0,1645184367.75,P15,D00,0,0,0
355,-42.0,2.0,48.0,1645184367.78125,P15,D00,0,0,0
356,-42.0,1.0,48.0,1645184367.8125,P15,D00,0,0,0
357,-42.0,2.0,48.0,1645184367.84375,P15,D00,0,0,0
358,-42.0,1.0,48.0,1645184367.875,P15,D00,0,0,0
359,-42.0,2.0,48.0,1645184367.90625,P15,D00,0,0,0
360,-42.0,2.0,48.0,1645184367.9375,P15,D00,0,0,0
361,-42.0,2.0,48.0,1645184367.96875,P15,D00,0,0,0
362,-42.0,1.0,47.0,1645184368.0,P15,D00,0,0,0
363,-42.0,1.0,48.0,1645184368.03125,P15,D00,0,0,0
364,-42.0,2.0,47.0,1645184368.0625,P15,D00,0,0,0
365,-42.0,1.0,47.0,1645184368.09375,P15,D00,0,0,0
366,-42.0,2.0,48.0,1645184368.125,P15,D00,0,0,0
367,-42.0,2.0,48.0,1645184368.15625,P15,D00,0,0,0
368,-42.0,1.0,48.0,1645184368.1875,P15,D00,0,0,0
369,-42.0,1.0,48.0,1645184368.21875,P15,D00,0,0,0
370,-42.0,1.0,47.0,1645184368.25,P15,D00,0,0,0
371,-42.0,1.0,48.0,1645184368.28125,P15,D00,0,0,0
372,-42.0,1.0,48.0,1645184368.3125,P15,D00,0,0,0
373,-42.0,2.0,47.0,1645184368.34375,P15,D00,0,0,0
374,-42.0,2.0,48.0,1645184368.375,P15,D00,0,0,0
375,-42.0,1.0,48.0,1645184368.40625,P15,D00,0,0,0
376,-42.0,2.0,48.0,1645184368.4375,P15,D00,0,0,0
377,-42.0,2.0,48.0,1645184368.46875,P15,D00,0,0,0
378,-42.0,1.0,48.0,1645184368.5,P15,D00,0,0,0
379,-43.0,1.0,48.0,1645184368.53125,P15,D00,0,0,0
380,-43.0,1.0,47.0,1645184368.5625,P15,D00,0,0,0
381,-42.0,2.0,48.0,1645184368.59375,P15,D00,0,0,0
382,-42.0,2.0,47.0,1645184368.625,P15,D00,0,0,0
383,-42.0,2.0,48.0,1645184368.65625,P15,D00,0,0,0
384,-42.0,1.0,48.0,1645184368.6875,P15,D00,0,0,0
385,-42.0,2.0,48.0,1645184368.71875,P15,D00,0,0,0
386,-42.0,2.0,48.0,1645184368.75,P15,D00,0,0,0
387,-42.0,2.0,47.0,1645184368.78125,P15,D00,0,0,0
388,-41.0,1.0,48.0,1645184368.8125,P15,D00,0,0,0
389,-42.0,1.0,48.0,1645184368.84375,P15,D00,0,0,0
390,-43.0,2.0,47.0,1645184368.875,P15,D00,0,0,0
391,-42.0,2.0,47.0,1645184368.90625,P15,D00,0,0,0
392,-42.0,1.0,48.0,1645184368.9375,P15,D00,0,0,0
393,-42.0,1.0,48.0,1645184368.96875,P15,D00,0,0,0
394,-42.0,1.0,48.0,1645184369.0,P15,D00,0,0,0
395,-43.0,2.0,47.0,1645184369.03125,P15,D00,0,0,0
396,-42.0,1.0,48.0,1645184369.0625,P15,D00,0,0,0
397,-42.0,1.0,48.0,1645184369.09375,P15,D00,0,0,0
398,-42.0,1.0,47.0,1645184369.125,P15,D00,0,0,0
399,-42.0,1.0,47.0,1645184369.15625,P15,D00,0,0,0
400,-42.0,2.0,47.0,1645184369.1875,P15,D00,0,0,0
401,-42.0,1.0,47.0,1645184369.21875,P15,D00,0,0,0
402,-42.0,1.0,47.0,1645184369.25,P15,D00,0,0,0
403,-42.0,2.0,48.0,1645184369.28125,P15,D00,0,0,0
404,-42.0,2.0,48.0,1645184369.3125,P15,D00,0,0,0
405,-42.0,1.0,47.0,1645184369.34375,P15,D00,0,0,0
406,-41.0,1.0,48.0,1645184369.375,P15,D00,0,0,0
407,-42.0,2.0,48.0,1645184369.40625,P15,D00,0,0,0
408,-42.0,1.0,47.0,1645184369.4375,P15,D00,0,0,0
409,-42.0,2.0,48.0,1645184369.46875,P15,D00,0,0,0
410,-42.0,1.0,47.0,1645184369.5,P15,D00,0,0,0
411,-43.0,2.0,47.0,1645184369.53125,P15,D00,0,0,0
412,-42.0,2.0,48.0,1645184369.5625,P15,D00,0,0,0
413,-42.0,2.0,48.0,1645184369.59375,P15,D00,0,0,0
414,-42.0,2.0,48.0,1645184369.625,P15,D00,0,0,0
415,-43.0,1.0,47.0,1645184369.65625,P15,D00,0,0,0
416,-42.0,1.0,48.0,1645184369.6875,P15,D00,0,0,0
417,-42.0,1.0,48.0,1645184369.71875,P15,D00,0,0,0
418,-42.0,2.0,48.0,1645184369.75,P15,D00,0,0,0
419,-42.0,1.0,48.0,1645184369.78125,P15,D00,0,0,0
420,-42.0,2.0,48.0,1645184369.8125,P15,D00,0,0,0
421,-42.0,2.0,48.0,1645184369.84375,P15,D00,0,0,0
422,-41.0,1.0,48.0,1645184369.875,P15,D00,0,0,0
423,-42.0,2.0,47.0,1645184369.90625,P15,D00,0,0,0
424,-42.0,2.0,48.0,1645184369.9375,P15,D00,0,0,0
425,-42.0,2.0,48.0,1645184369.96875,P15,D00,0,0,0
426,-42.0,1.0,48.0,1645184370.0,P15,D00,0,0,0
427,-42.0,2.0,48.0,1645184370.03125,P15,D00,0,0,0
428,-42.0,2.0,48.0,1645184370.0625,P15,D00,0,0,0
429,-42.0,1.0,48.0,1645184370.09375,P15,D00,0,0,0
430,-42.0,1.0,48.0,1645184370.125,P15,D00,0,0,0
431,-42.0,2.0,48.0,1645184370.15625,P15,D00,0,0,0
432,-42.0,2.0,48.0,1645184370.1875,P15,D00,0,0,0
433,-42.0,2.0,48.0,1645184370.21875,P15,D00,0,0,0
434,-42.0,1.0,47.0,1645184370.25,P15,D00,0,0,0
435,-42.0,2.0,48.0,1645184370.28125,P15,D00,0,0,0
436,-42.0,2.0,48.0,1645184370.3125,P15,D00,0,0,0
437,-42.0,2.0,48.0,1645184370.34375,P15,D00,0,0,0
438,-41.0,2.0,48.0,1645184370.375,P15,D00,0,0,0
439,-42.0,2.0,48.0,1645184370.40625,P15,D00,0,0,0
440,-42.0,2.0,48.0,1645184370.4375,P15,D00,0,0,0
441,-42.0,1.0,48.0,1645184370.46875,P15,D00,0,0,0
442,-42.0,2.0,48.0,1645184370.5,P15,D00,0,0,0
443,-42.0,2.0,48.0,1645184370.53125,P15,D00,0,0,0
444,-41.0,1.0,48.0,1645184370.5625,P15,D00,0,0,0
445,-42.0,1.0,48.0,1645184370.59375,P15,D00,0,0,0
446,-42.0,2.0,48.0,1645184370.625,P15,D00,0,0,0
447,-42.0,2.0,48.0,1645184370.65625,P15,D00,0,0,0
448,-42.0,1.0,48.0,1645184370.6875,P15,D00,0,0,0
449,-42.0,1.0,48.0,1645184370.71875,P15,D00,0,0,0
450,-42.0,2.0,48.0,1645184370.75,P15,D00,0,0,0
451,-42.0,2.0,48.0,1645184370.78125,P15,D00,0,0,0
452,-42.0,1.0,48.0,1645184370.8125,P15,D00,0,0,0
453,-42.0,1.0,47.0,1645184370.84375,P15,D00,0,0,0
454,-42.0,2.0,48.0,1645184370.875,P15,D00,0,0,0
455,-41.0,2.0,48.0,1645184370.90625,P15,D00,0,0,0
456,-42.0,2.0,47.0,1645184370.9375,P15,D00,0,0,0
457,-42.0,2.0,48.0,1645184370.96875,P15,D00,0,0,0
458,-42.0,2.0,48.0,1645184371.0,P15,D00,0,0,0
459,-42.0,1.0,48.0,1645184371.03125,P15,D00,0,0,0
460,-42.0,2.0,48.0,1645184371.0625,P15,D00,0,0,0
461,-42.0,2.0,48.0,1645184371.09375,P15,D00,0,0,0
462,-42.0,2.0,48.0,1645184371.125,P15,D00,0,0,0
463,-42.0,2.0,48.0,1645184371.15625,P15,D00,0,0,0
464,-42.0,2.0,48.0,1645184371.1875,P15,D00,0,0,0
465,-41.0,1.0,48.0,1645184371.21875,P15,D00,0,0,0
466,-42.0,2.0,48.0,1645184371.25,P15,D00,0,0,0
467,-42.0,1.0,47.0,1645184371.28125,P15,D00,0,0,0
468,-42.0,1.0,48.0,1645184371.3125,P15,D00,0,0,0
469,-41.0,1.0,48.0,1645184371.34375,P15,D00,0,0,0
470,-42.0,2.0,48.0,1645184371.375,P15,D00,0,0,0
471,-42.0,2.0,48.0,1645184371.40625,P15,D00,0,0,0
472,-41.0,1.0,48.0,1645184371.4375,P15,D00,0,0,0
473,-42.0,2.0,48.0,1645184371.46875,P15,D00,0,0,0
474,-42.0,2.0,48.0,1645184371.5,P15,D00,0,0,0
475,-42.0,2.0,48.0,1645184371.53125,P15,D00,0,0,0
476,-42.0,2.0,48.0,1645184371.5625,P15,D00,0,0,0
477,-42.0,1.0,48.0,1645184371.59375,P15,D00,0,0,0
478,-42.0,2.0,48.0,1645184371.625,P15,D00,0,0,0
479,-42.0,1.0,48.0,1645184371.65625,P15,D00,0,0,0
480,-42.0,1.0,48.0,1645184371.6875,P15,D00,0,0,0
481,-42.0,2.0,47.0,1645184371.71875,P15,D00,0,0,0
482,-42.0,1.0,48.0,1645184371.75,P15,D00,0,0,0
483,-42.0,2.0,48.0,1645184371.78125,P15,D00,0,0,0
484,-42.0,1.0,48.0,1645184371.8125,P15,D00,0,0,0
485,-42.0,1.0,48.0,1645184371.84375,P15,D00,0,0,0
486,-42.0,1.0,48.0,1645184371.875,P15,D00,0,0,0
487,-42.0,1.0,48.0,1645184371.90625,P15,D00,0,0,0
488,-42.0,2.0,48.0,1645184371.9375,P15,D00,0,0,0
489,-42.0,2.0,48.0,1645184371.96875,P15,D00,0,0,0
490,-42.0,2.0,48.0,1645184372.0,P15,D00,0,0,0
491,-42.0,1.0,48.0,1645184372.03125,P15,D00,0,0,0
492,-42.0,2.0,48.0,1645184372.0625,P15,D00,0,0,0
493,-42.0,2.0,48.0,1645184372.09375,P15,D00,0,0,0
494,-42.0,2.0,48.0,1645184372.125,P15,D00,0,0,0
495,-42.0,1.0,48.0,1645184372.15625,P15,D00,0,0,0
496,-42.0,2.0,47.0,1645184372.1875,P15,D00,0,0,0
497,-42.0,2.0,48.0,1645184372.21875,P15,D00,0,0,0
498,-42.0,1.0,48.0,1645184372.25,P15,D00,0,0,0
499,-42.0,1.0,48.0,1645184372.28125,P15,D00,0,0,0
500,-42.0,2.0,48.0,1645184372.3125,P15,D00,0,0,0
501,-42.0,2.0,48.0,1645184372.34375,P15,D00,0,0,0
502,-42.0,1.0,48.0,1645184372.375,P15,D00,0,0,0
503,-42.0,1.0,48.0,1645184372.40625,P15,D00,0,0,0
504,-42.0,2.0,48.0,1645184372.4375,P15,D00,0,0,0
505,-42.0,1.0,47.0,1645184372.46875,P15,D00,0,0,0
506,-42.0,2.0,48.0,1645184372.5,P15,D00,0,0,0
507,-42.0,2.0,48.0,1645184372.53125,P15,D00,0,0,0
508,-42.0,2.0,48.0,1645184372.5625,P15,D00,0,0,0
509,-42.0,2.0,48.0,1645184372.59375,P15,D00,0,0,0
510,-42.0,1.0,48.0,1645184372.625,P15,D00,0,0,0
511,-42.0,2.0,48.0,1645184372.65625,P15,D00,0,0,0
512,-42.0,1.0,48.0,1645184372.6875,P15,D00,0,0,0
513,-42.0,1.0,48.0,1645184372.71875,P15,D00,0,0,0
514,-42.0,1.0,47.0,1645184372.75,P15,D00,0,0,0
515,-42.0,1.0,48.0,1645184372.78125,P15,D00,0,0,0
516,-42.0,2.0,48.0,1645184372.8125,P15,D00,0,0,0
517,-42.0,2.0,48.0,1645184372.84375,P15,D00,0,0,0
518,-42.0,1.0,48.0,1645184372.875,P15,D00,0,0,0
519,-42.0,2.0,47.0,1645184372.90625,P15,D00,0,0,0
520,-42.0,2.0,48.0,1645184372.9375,P15,D00,0,0,0
521,-41.0,1.0,48.0,1645184372.96875,P15,D00,0,0,0
522,-42.0,2.0,48.0,1645184373.0,P15,D00,0,0,0
523,-42.0,2.0,48.0,1645184373.03125,P15,D00,0,0,0
524,-43.0,1.0,47.0,1645184373.0625,P15,D00,0,0,0
525,-42.0,2.0,48.0,1645184373.09375,P15,D00,0,0,0
526,-41.0,2.0,48.0,1645184373.125,P15,D00,0,0,0
527,-42.0,2.0,48.0,1645184373.15625,P15,D00,0,0,0
528,-42.0,2.0,48.0,1645184373.1875,P15,D00,0,0,0
529,-42.0,2.0,48.0,1645184373.21875,P15,D00,0,0,0
530,-42.0,1.0,48.0,1645184373.25,P15,D00,0,0,0
531,-42.0,2.0,48.0,1645184373.28125,P15,D00,0,0,0
532,-42.0,1.0,48.0,1645184373.3125,P15,D00,0,0,0
533,-42.0,1.0,48.0,1645184373.34375,P15,D00,0,0,0
534,-42.0,1.0,48.0,1645184373.375,P15,D00,0,0,0
535,-42.0,1.0,48.0,1645184373.40625,P15,D00,0,0,0
536,-42.0,1.0,48.0,1645184373.4375,P15,D00,0,0,0
537,-42.0,2.0,48.0,1645184373.46875,P15,D00,0,0,0
538,-42.0,2.0,48.0,1645184373.5,P15,D00,0,0,0
539,-42.0,1.0,47.0,1645184373.53125,P15,D00,0,0,0
540,-42.0,1.0,47.0,1645184373.5625,P15,D00,0,0,0
541,-41.0,2.0,48.0,1645184373.59375,P15,D00,0,0,0
542,-42.0,1.0,48.0,1645184373.625,P15,D00,0,0,0
543,-42.0,2.0,47.0,1645184373.65625,P15,D00,0,0,0
544,-42.0,1.0,48.0,1645184373.6875,P15,D00,0,0,0
545,-42.0,2.0,48.0,1645184373.71875,P15,D00,0,0,0
546,-42.0,1.0,48.0,1645184373.75,P15,D00,0,0,0
547,-41.0,2.0,48.0,1645184373.78125,P15,D00,0,0,0
548,-42.0,2.0,48.0,1645184373.8125,P15,D00,0,0,0
549,-42.0,1.0,48.0,1645184373.84375,P15,D00,0,0,0
550,-42.0,2.0,48.0,1645184373.875,P15,D00,0,0,0
551,-42.0,1.0,48.0,1645184373.90625,P15,D00,0,0,0
552,-42.0,1.0,48.0,1645184373.9375,P15,D00,0,0,0
553,-42.0,2.0,48.0,1645184373.96875,P15,D00,0,0,0
554,-42.0,1.0,48.0,1645184374.0,P15,D00,0,0,0
555,-42.0,2.0,47.0,1645184374.03125,P15,D00,0,0,0
556,-42.0,2.0,48.0,1645184374.0625,P15,D00,0,0,0
557,-42.0,1.0,48.0,1645184374.09375,P15,D00,0,0,0
558,-42.0,2.0,48.0,1645184374.125,P15,D00,0,0,0
559,-42.0,2.0,48.0,1645184374.15625,P15,D00,0,0,0
560,-41.0,2.0,48.0,1645184374.1875,P15,D00,0,0,0
561,-42.0,2.0,48.0,1645184374.21875,P15,D00,0,0,0
562,-42.0,2.0,47.0,1645184374.25,P15,D00,0,0,0
563,-41.0,2.0,48.0,1645184374.28125,P15,D00,0,0,0
564,-42.0,2.0,48.0,1645184374.3125,P15,D00,0,0,0
565,-42.0,2.0,48.0,1645184374.34375,P15,D00,0,0,0
566,-42.0,1.0,48.0,1645184374.375,P15,D00,0,0,0
567,-42.0,1.0,48.0,1645184374.40625,P15,D00,0,0,0
568,-42.0,2.0,48.0,1645184374.4375,P15,D00,0,0,0
569,-42.0,2.0,48.0,1645184374.46875,P15,D00,0,0,0
570,-42.0,2.0,48.0,1645184374.5,P15,D00,0,0,0
571,-42.0,2.0,48.0,1645184374.53125,P15,D00,0,0,0
572,-41.0,2.0,48.0,1645184374.5625,P15,D00,0,0,0
573,-42.0,1.0,48.0,1645184374.59375,P15,D00,0,0,0
574,-42.0,2.0,47.0,1645184374.625,P15,D00,0,0,0
575,-41.0,2.0,48.0,1645184374.65625,P15,D00,0,0,0
576,-42.0,2.0,48.0,1645184374.6875,P15,D00,0,0,0
577,-42.0,1.0,48.0,1645184374.71875,P15,D00,0,0,0
578,-42.0,2.0,48.0,1645184374.75,P15,D00,0,0,0
579,-42.0,1.0,48.0,1645184374.78125,P15,D00,0,0,0
580,-42.0,2.0,48.0,1645184374.8125,P15,D00,0,0,0
581,-42.0,2.0,48.0,1645184374.84375,P15,D00,0,0,0
582,-41.0,2.0,48.0,1645184374.875,P15,D00,0,0,0
583,-42.0,2.0,48.0,1645184374.90625,P15,D00,0,0,0
584,-42.0,2.0,48.0,1645184374.9375,P15,D00,0,0,0
585,-41.0,2.0,48.0,1645184374.96875,P15,D00,0,0,0
586,-42.0,2.0,48.0,1645184375.0,P15,D00,0,0,0
587,-41.0,2.0,48.0,1645184375.03125,P15,D00,0,0,0
588,-42.0,2.0,48.0,1645184375.0625,P15,D00,0,0,0
589,-42.0,2.0,48.0,1645184375.09375,P15,D00,0,0,0
590,-41.0,2.0,48.0,1645184375.125,P15,D00,0,0,0
591,-41.0,2.0,48.0,1645184375.15625,P15,D00,0,0,0
592,-42.0,2.0,48.0,1645184375.1875,P15,D00,0,0,0
593,-42.0,2.0,48.0,1645184375.21875,P15,D00,0,0,0
594,-42.0,2.0,48.0,1645184375.25,P15,D00,0,0,0
595,-42.0,2.0,48.0,1645184375.28125,P15,D00,0,0,0
596,-41.0,1.0,48.0,1645184375.3125,P15,D00,0,0,0
597,-42.0,2.0,48.0,1645184375.34375,P15,D00,0,0,0
598,-42.0,2.0,48.0,1645184375.375,P15,D00,0,0,0
599,-42.0,2.0,48.0,1645184375.40625,P15,D00,0,0,0
600,-42.0,2.0,48.0,1645184375.4375,P15,D00,0,0,0
601,-42.0,2.0,48.0,1645184375.46875,P15,D00,0,0,0
602,-42.0,2.0,48.0,1645184375.5,P15,D00,0,0,0
603,-42.0,2.0,48.0,1645184375.53125,P15,D00,0,0,0
604,-42.0,2.0,48.0,1645184375.5625,P15,D00,0,0,0
605,-42.0,2.0,48.0,1645184375.59375,P15,D00,0,0,0
606,-42.0,2.0,48.0,1645184375.625,P15,D00,0,0,0
607,-43.0,2.0,47.0,1645184375.65625,P15,D00,0,0,0
608,-42.0,2.0,48.0,1645184375.6875,P15,D00,0,0,0
609,-41.0,2.0,48.0,1645184375.71875,P15,D00,0,0,0
610,-42.0,2.0,47.0,1645184375.75,P15,D00,0,0,0
611,-42.0,2.0,48.0,1645184375.78125,P15,D00,0,0,0
612,-42.0,2.0,48.0,1645184375.8125,P15,D00,0,0,0
613,-42.0,2.0,48.0,1645184375.84375,P15,D00,0,0,0
614,-42.0,1.0,48.0,1645184375.875,P15,D00,0,0,0
615,-42.0,2.0,48.0,1645184375.90625,P15,D00,0,0,0
616,-42.0,2.0,48.0,1645184375.9375,P15,D00,0,0,0
617,-42.0,1.0,48.0,1645184375.96875,P15,D00,0,0,0
618,-42.0,1.0,47.0,1645184376.0,P15,D00,0,0,0
619,-41.0,2.0,48.0,1645184376.03125,P15,D00,0,0,0
620,-42.0,2.0,47.0,1645184376.0625,P15,D00,0,0,0
621,-42.0,1.0,48.0,1645184376.09375,P15,D00,0,0,0
622,-42.0,2.0,48.0,1645184376.125,P15,D00,0,0,0
623,-42.0,2.0,47.0,1645184376.15625,P15,D00,0,0,0
624,-42.0,2.0,48.0,1645184376.1875,P15,D00,0,0,0
625,-42.0,1.0,48.0,1645184376.21875,P15,D00,0,0,0
626,-42.0,2.0,47.0,1645184376.25,P15,D00,0,0,0
627,-41.0,1.0,48.0,1645184376.28125,P15,D00,0,0,0
628,-42.0,2.0,48.0,1645184376.3125,P15,D00,0,0,0
629,-42.0,2.0,48.0,1645184376.34375,P15,D00,0,0,0
630,-42.0,2.0,48.0,1645184376.375,P15,D00,0,0,0
631,-42.0,2.0,48.0,1645184376.40625,P15,D00,0,0,0
632,-42.0,2.0,48.0,1645184376.4375,P15,D00,0,0,0
633,-41.0,1.0,48.0,1645184376.46875,P15,D00,0,0,0
634,-42.0,1.0,48.0,1645184376.5,P15,D00,0,0,0
635,-42.0,1.0,48.0,1645184376.53125,P15,D00,0,0,0
636,-42.0,2.0,47.0,1645184376.5625,P15,D00,0,0,0
637,-42.0,2.0,47.0,1645184376.59375,P15,D00,0,0,0
638,-42.0,1.0,48.0,1645184376.625,P15,D00,0,0,0
639,-42.0,1.0,48.0,1645184376.65625,P15,D00,0,0,0
640,-42.0,2.0,48.0,1645184376.6875,P15,D00,0,0,0
641,-41.0,1.0,48.0,1645184376.71875,P15,D00,0,0,0
642,-42.0,2.0,48.0,1645184376.75,P15,D00,0,0,0
643,-42.0,1.0,48.0,1645184376.78125,P15,D00,0,0,0
644,-42.0,1.0,47.0,1645184376.8125,P15,D00,0,0,0
645,-42.0,1.0,48.0,1645184376.84375,P15,D00,0,0,0
646,-42.0,1.0,48.0,1645184376.875,P15,D00,0,0,0
647,-42.0,1.0,48.0,1645184376.90625,P15,D00,0,0,0
648,-42.0,2.0,47.0,1645184376.9375,P15,D00,0,0,0
649,-42.0,2.0,48.0,1645184376.96875,P15,D00,0,0,0
650,-42.0,1.0,48.0,1645184377.0,P15,D00,0,0,0
651,-42.0,2.0,48.0,1645184377.03125,P15,D00,0,0,0
652,-42.0,1.0,48.0,1645184377.0625,P15,D00,0,0,0
653,-42.0,2.0,48.0,1645184377.09375,P15,D00,0,0,0
654,-42.0,1.0,47.0,1645184377.125,P15,D00,0,0,0
655,-42.0,1.0,48.0,1645184377.15625,P15,D00,0,0,0
656,-42.0,1.0,48.0,1645184377.1875,P15,D00,0,0,0
657,-42.0,1.0,48.0,1645184377.21875,P15,D00,0,0,0
658,-42.0,1.0,48.0,1645184377.25,P15,D00,0,0,0
659,-42.0,2.0,48.0,1645184377.28125,P15,D00,0,0,0
660,-41.0,1.0,48.0,1645184377.3125,P15,D00,0,0,0
661,-42.0,2.0,47.0,1645184377.34375,P15,D00,0,0,0
662,-41.0,1.0,48.0,1645184377.375,P15,D00,0,0,0
663,-41.0,2.0,48.0,1645184377.40625,P15,D00,0,0,0
664,-42.0,1.0,48.0,1645184377.4375,P15,D00,0,0,0
665,-42.0,2.0,48.0,1645184377.46875,P15,D00,0,0,0
666,-42.0,2.0,48.0,1645184377.5,P15,D00,0,0,0
667,-42.0,2.0,48.0,1645184377.53125,P15,D00,0,0,0
668,-42.0,2.0,48.0,1645184377.5625,P15,D00,0,0,0
669,-42.0,1.0,48.0,1645184377.59375,P15,D00,0,0,0
670,-42.0,1.0,48.0,1645184377.625,P15,D00,0,0,0
671,-41.0,2.0,48.0,1645184377.65625,P15,D00,0,0,0
672,-41.0,2.0,48.0,1645184377.6875,P15,D00,0,0,0
673,-42.0,1.0,48.0,1645184377.71875,P15,D00,0,0,0
674,-42.0,1.0,47.0,1645184377.75,P15,D00,0,0,0
675,-42.0,1.0,48.0,1645184377.78125,P15,D00,0,0,0
676,-42.0,2.0,48.0,1645184377.8125,P15,D00,0,0,0
677,-42.0,2.0,48.0,1645184377.84375,P15,D00,0,0,0
678,-41.0,2.0,48.0,1645184377.875,P15,D00,0,0,0
679,-42.0,2.0,48.0,1645184377.90625,P15,D00,0,0,0
680,-42.0,2.0,48.0,1645184377.9375,P15,D00,0,0,0
681,-42.0,2.0,48.0,1645184377.96875,P15,D00,0,0,0
682,-41.0,2.0,48.0,1645184378.0,P15,D00,0,0,0
683,-42.0,2.0,48.0,1645184378.03125,P15,D00,0,0,0
684,-42.0,2.0,48.0,1645184378.0625,P15,D00,0,0,0
685,-42.0,2.0,48.0,1645184378.09375,P15,D00,0,0,0
686,-42.0,2.0,48.0,1645184378.125,P15,D00,0,0,0
687,-42.0,2.0,48.0,1645184378.15625,P15,D00,0,0,0
688,-42.0,2.0,48.0,1645184378.1875,P15,D00,0,0,0
689,-41.0,2.0,48.0,1645184378.21875,P15,D00,0,0,0
690,-41.0,2.0,48.0,1645184378.25,P15,D00,0,0,0
691,-42.0,2.0,48.0,1645184378.28125,P15,D00,0,0,0
692,-41.0,2.0,48.0,1645184378.3125,P15,D00,0,0,0
693,-41.0,2.0,48.0,1645184378.34375,P15,D00,0,0,0
694,-42.0,2.0,48.0,1645184378.375,P15,D00,0,0,0
695,-42.0,2.0,48.0,1645184378.40625,P15,D00,0,0,0
696,-41.0,2.0,48.0,1645184378.4375,P15,D00,0,0,0
697,-42.0,2.0,48.0,1645184378.46875,P15,D00,0,0,0
698,-42.0,2.0,48.0,1645184378.5,P15,D00,0,0,0
699,-41.0,2.0,48.0,1645184378.53125,P15,D00,0,0,0
700,-41.0,2.0,48.0,1645184378.5625,P15,D00,0,0,0
701,-42.0,2.0,48.0,1645184378.59375,P15,D00,0,0,0
702,-41.0,1.0,48.0,1645184378.625,P15,D00,0,0,0
703,-41.0,2.0,48.0,1645184378.65625,P15,D00,0,0,0
704,-42.0,2.0,48.0,1645184378.6875,P15,D00,0,0,0
705,-42.0,1.0,48.0,1645184378.71875,P15,D00,0,0,0
706,-42.0,2.0,48.0,1645184378.75,P15,D00,0,0,0
707,-41.0,2.0,48.0,1645184378.78125,P15,D00,0,0,0
708,-41.0,2.0,48.0,1645184378.8125,P15,D00,0,0,0
709,-42.0,2.0,48.0,1645184378.84375,P15,D00,0,0,0
710,-42.0,1.0,48.0,1645184378.875,P15,D00,0,0,0
711,-42.0,2.0,48.0,1645184378.90625,P15,D00,0,0,0
712,-42.0,2.0,48.0,1645184378.9375,P15,D00,0,0,0
713,-42.0,2.0,48.0,1645184378.96875,P15,D00,0,0,0
714,-41.0,2.0,48.0,1645184379.0,P15,D00,0,0,0
715,-42.0,2.0,48.0,1645184379.03125,P15,D00,0,0,0
716,-42.0,2.0,48.0,1645184379.0625,P15,D00,0,0,0
717,-41.0,2.0,48.0,1645184379.09375,P15,D00,0,0,0
718,-42.0,1.0,48.0,1645184379.125,P15,D00,0,0,0
719,-41.0,2.0,48.0,1645184379.15625,P15,D00,0,0,0
720,-42.0,2.0,48.0,1645184379.1875,P15,D00,0,0,0
721,-41.0,2.0,48.0,1645184379.21875,P15,D00,0,0,0
722,-42.0,2.0,48.0,1645184379.25,P15,D00,0,0,0
723,-42.0,2.0,48.0,1645184379.28125,P15,D00,0,0,0
724,-42.0,2.0,48.0,1645184379.3125,P15,D00,0,0,0
725,-41.0,1.0,48.0,1645184379.34375,P15,D00,0,0,0
726,-42.0,2.0,48.0,1645184379.375,P15,D00,0,0,0
727,-42.0,2.0,48.0,1645184379.40625,P15,D00,0,0,0
728,-41.0,1.0,48.0,1645184379.4375,P15,D00,0,0,0
729,-42.0,1.0,48.0,1645184379.46875,P15,D00,0,0,0
730,-42.0,1.0,48.0,1645184379.5,P15,D00,0,0,0
731,-42.0,2.0,48.0,1645184379.53125,P15,D00,0,0,0
732,-42.0,2.0,48.0,1645184379.5625,P15,D00,0,0,0
733,-41.0,1.0,48.0,1645184379.59375,P15,D00,0,0,0
734,-42.0,2.0,48.0,1645184379.625,P15,D00,0,0,0
735,-41.0,2.0,48.0,1645184379.65625,P15,D00,0,0,0
736,-42.0,2.0,48.0,1645184379.6875,P15,D00,0,0,0
737,-42.0,2.0,48.0,1645184379.71875,P15,D00,0,0,0
738,-41.0,2.0,48.0,1645184379.75,P15,D00,0,0,0
739,-42.0,2.0,48.0,1645184379.78125,P15,D00,0,0,0
740,-42.0,1.0,48.0,1645184379.8125,P15,D00,0,0,0
741,-42.0,2.0,48.0,1645184379.84375,P15,D00,0,0,0
742,-42.0,2.0,48.0,1645184379.875,P15,D00,0,0,0
743,-42.0,1.0,48.0,1645184379.90625,P15,D00,0,0,0
744,-42.0,2.0,48.0,1645184379.9375,P15,D00,0,0,0
745,-42.0,2.0,48.0,1645184379.96875,P15,D00,0,0,0
746,-42.0,1.0,48.0,1645184380.0,P15,D00,0,0,0
747,-41.0,2.0,48.0,1645184380.03125,P15,D00,0,0,0
748,-42.0,1.0,48.0,1645184380.0625,P15,D00,0,0,0
749,-42.0,2.0,48.0,1645184380.09375,P15,D00,0,0,0
750,-42.0,2.0,48.0,1645184380.125,P15,D00,0,0,0
751,-41.0,1.0,48.0,1645184380.15625,P15,D00,0,0,0
752,-42.0,2.0,48.0,1645184380.1875,P15,D00,0,0,0
753,-42.0,2.0,48.0,1645184380.21875,P15,D00,0,0,0
754,-42.0,2.0,48.0,1645184380.25,P15,D00,0,0,0
755,-41.0,1.0,48.0,1645184380.28125,P15,D00,0,0,0
756,-42.0,1.0,48.0,1645184380.3125,P15,D00,0,0,0
757,-42.0,2.0,48.0,1645184380.34375,P15,D00,0,0,0
758,-42.0,1.0,48.0,1645184380.375,P15,D00,0,0,0
759,-42.0,2.0,48.0,1645184380.40625,P15,D00,0,0,0
760,-41.0,2.0,48.0,1645184380.4375,P15,D00,0,0,0
761,-42.0,2.0,48.0,1645184380.46875,P15,D00,0,0,0
762,-42.0,2.0,48.0,1645184380.5,P15,D00,0,0,0
763,-41.0,2.0,48.0,1645184380.53125,P15,D00,0,0,0
764,-42.0,2.0,48.0,1645184380.5625,P15,D00,0,0,0
765,-41.0,2.0,48.0,1645184380.59375,P15,D00,0,0,0
766,-41.0,2.0,48.0,1645184380.625,P15,D00,0,0,0
767,-43.0,1.0,47.0,1645184380.65625,P15,D00,0,0,0
768,-43.0,2.0,48.0,1645184380.6875,P15,D00,0,0,0
769,-41.0,2.0,48.0,1645184380.71875,P15,D00,0,0,0
770,-42.0,2.0,48.0,1645184380.75,P15,D00,0,0,0
771,-42.0,2.0,48.0,1645184380.78125,P15,D00,0,0,0
772,-41.0,1.0,48.0,1645184380.8125,P15,D00,0,0,0
773,-42.0,2.0,48.0,1645184380.84375,P15,D00,0,0,0
774,-42.0,2.0,48.0,1645184380.875,P15,D00,0,0,0
775,-41.0,2.0,48.0,1645184380.90625,P15,D00,0,0,0
776,-42.0,2.0,48.0,1645184380.9375,P15,D00,0,0,0
777,-42.0,2.0,48.0,1645184380.96875,P15,D00,0,0,0
778,-42.0,2.0,48.0,1645184381.0,P15,D00,0,0,0
779,-42.0,2.0,48.0,1645184381.03125,P15,D00,0,0,0
780,-42.0,2.0,48.0,1645184381.0625,P15,D00,0,0,0
781,-42.0,1.0,48.0,1645184381.09375,P15,D00,0,0,0
782,-41.0,2.0,48.0,1645184381.125,P15,D00,0,0,0
783,-42.0,2.0,48.0,1645184381.15625,P15,D00,0,0,0
784,-42.0,1.0,48.0,1645184381.1875,P15,D00,0,0,0
785,-41.0,1.0,48.0,1645184381.21875,P15,D00,0,0,0
786,-42.0,2.0,48.0,1645184381.25,P15,D00,0,0,0
787,-42.0,2.0,48.0,1645184381.28125,P15,D00,0,0,0
788,-41.0,1.0,48.0,1645184381.3125,P15,D00,0,0,0
789,-42.0,2.0,48.0,1645184381.34375,P15,D00,0,0,0
790,-41.0,2.0,48.0,1645184381.375,P15,D00,0,0,0
791,-42.0,2.0,48.0,1645184381.40625,P15,D00,0,0,0
792,-42.0,2.0,48.0,1645184381.4375,P15,D00,0,0,0
793,-42.0,1.0,48.0,1645184381.46875,P15,D00,0,0,0
794,-42.0,2.0,48.0,1645184381.5,P15,D00,0,0,0
795,-41.0,2.0,48.0,1645184381.53125,P15,D00,0,0,0
796,-42.0,2.0,48.0,1645184381.5625,P15,D00,0,0,0
797,-42.0,2.0,48.0,1645184381.59375,P15,D00,0,0,0
798,-42.0,2.0,48.0,1645184381.625,P15,D00,0,0,0
799,-42.0,2.0,48.0,1645184381.65625,P15,D00,0,0,0
800,-42.0,2.0,48.0,1645184381.6875,P15,D00,0,0,0
801,-41.0,1.0,48.0,1645184381.71875,P15,D00,0,0,0
802,-42.0,2.0,48.0,1645184381.75,P15,D00,0,0,0
803,-43.0,2.0,47.0,1645184381.78125,P15,D00,0,0,0
804,-42.0,1.0,48.0,1645184381.8125,P15,D00,0,0,0
805,-42.0,2.0,48.0,1645184381.84375,P15,D00,0,0,0
806,-42.0,2.0,48.0,1645184381.875,P15,D00,0,0,0
807,-42.0,2.0,48.0,1645184381.90625,P15,D00,0,0,0
808,-42.0,2.0,48.0,1645184381.9375,P15,D00,0,0,0
809,-42.0,2.0,48.0,1645184381.96875,P15,D00,0,0,0
810,-42.0,2.0,48.0,1645184382.0,P15,D00,0,0,0
811,-42.0,1.0,48.0,1645184382.03125,P15,D00,0,0,0
812,-42.0,1.0,48.0,1645184382.0625,P15,D00,0,0,0
813,-42.0,2.0,48.0,1645184382.09375,P15,D00,0,0,0
814,-42.0,2.0,48.0,1645184382.125,P15,D00,0,0,0
815,-42.0,2.0,48.0,1645184382.15625,P15,D00,0,0,0
816,-42.0,1.0,48.0,1645184382.1875,P15,D00,0,0,0
817,-42.0,2.0,48.0,1645184382.21875,P15,D00,0,0,0
818,-42.0,2.0,48.0,1645184382.25,P15,D00,0,0,0
819,-42.0,2.0,48.0,1645184382.28125,P15,D00,0,0,0
820,-42.0,1.0,48.0,1645184382.3125,P15,D00,0,0,0
821,-42.0,2.0,48.0,1645184382.34375,P15,D00,0,0,0
822,-42.0,2.0,48.0,1645184382.375,P15,D00,0,0,0
823,-42.0,2.0,48.0,1645184382.40625,P15,D00,0,0,0
824,-42.0,2.0,48.0,1645184382.4375,P15,D00,0,0,0
825,-42.0,1.0,48.0,1645184382.46875,P15,D00,0,0,0
826,-42.0,2.0,48.0,1645184382.5,P15,D00,0,0,0
827,-41.0,2.0,48.0,1645184382.53125,P15,D00,0,0,0
828,-42.0,1.0,48.0,1645184382.5625,P15,D00,0,0,0
829,-42.0,2.0,48.0,1645184382.59375,P15,D00,0,0,0
830,-42.0,2.0,48.0,1645184382.625,P15,D00,0,0,0
831,-42.0,1.0,48.0,1645184382.65625,P15,D00,0,0,0
832,-42.0,1.0,48.0,1645184382.6875,P15,D00,0,0,0
833,-42.0,2.0,48.0,1645184382.71875,P15,D00,0,0,0
834,-42.0,2.0,48.0,1645184382.75,P15,D00,0,0,0
835,-42.0,2.0,48.0,1645184382.78125,P15,D00,0,0,0
836,-42.0,1.0,48.0,1645184382.8125,P15,D00,0,0,0
837,-42.0,2.0,48.0,1645184382.84375,P15,D00,0,0,0
838,-41.0,2.0,48.0,1645184382.875,P15,D00,0,0,0
839,-42.0,2.0,48.0,1645184382.90625,P15,D00,0,0,0
840,-42.0,1.0,48.0,1645184382.9375,P15,D00,0,0,0
841,-42.0,2.0,48.0,1645184382.96875,P15,D00,0,0,0
842,-42.0,1.0,48.0,1645184383.0,P15,D00,0,0,0
843,-41.0,2.0,48.0,1645184383.03125,P15,D00,0,0,0
844,-42.0,2.0,48.0,1645184383.0625,P15,D00,0,0,0
845,-42.0,2.0,48.0,1645184383.09375,P15,D00,0,0,0
846,-42.0,2.0,48.0,1645184383.125,P15,D00,0,0,0
847,-42.0,1.0,48.0,1645184383.15625,P15,D00,0,0,0
848,-42.0,2.0,48.0,1645184383.1875,P15,D00,0,0,0
849,-42.0,2.0,48.0,1645184383.21875,P15,D00,0,0,0
850,-42.0,2.0,48.0,1645184383.25,P15,D00,0,0,0
851,-42.0,2.0,48.0,1645184383.28125,P15,D00,0,0,0
852,-42.0,2.0,48.0,1645184383.3125,P15,D00,0,0,0
853,-42.0,2.0,48.0,1645184383.34375,P15,D00,0,0,0
854,-42.0,2.0,48.0,1645184383.375,P15,D00,0,0,0
855,-42.0,1.0,48.0,1645184383.40625,P15,D00,0,0,0
856,-43.0,2.0,47.0,1645184383.4375,P15,D00,0,0,0
857,-41.0,2.0,48.0,1645184383.46875,P15,D00,0,0,0
858,-41.0,1.0,48.0,1645184383.5,P15,D00,0,0,0
859,-42.0,1.0,47.0,1645184383.53125,P15,D00,0,0,0
860,-41.0,2.0,48.0,1645184383.5625,P15,D00,0,0,0
861,-42.0,2.0,48.0,1645184383.59375,P15,D00,0,0,0
862,-41.0,2.0,48.0,1645184383.625,P15,D00,0,0,0
863,-41.0,1.0,48.0,1645184383.65625,P15,D00,0,0,0
864,-42.0,1.0,47.0,1645184383.6875,P15,D00,0,0,0
865,-42.0,2.0,48.0,1645184383.71875,P15,D00,0,0,0
866,-41.0,2.0,48.0,1645184383.75,P15,D00,0,0,0
867,-42.0,2.0,48.0,1645184383.78125,P15,D00,0,0,0
868,-41.0,2.0,48.0,1645184383.8125,P15,D00,0,0,0
869,-41.0,1.0,48.0,1645184383.84375,P15,D00,0,0,0
870,-42.0,1.0,47.0,1645184383.875,P15,D00,0,0,0
871,-42.0,2.0,48.0,1645184383.90625,P15,D00,0,0,0
872,-42.0,1.0,48.0,1645184383.9375,P15,D00,0,0,0
873,-42.0,2.0,48.0,1645184383.96875,P15,D00,0,0,0
874,-42.0,2.0,48.0,1645184384.0,P15,D00,0,0,0
875,-42.0,2.0,48.0,1645184384.03125,P15,D00,0,0,0
876,-42.0,1.0,48.0,1645184384.0625,P15,D00,0,0,0
877,-41.0,2.0,48.0,1645184384.09375,P15,D00,0,0,0
878,-42.0,2.0,48.0,1645184384.125,P15,D00,0,0,0
879,-42.0,2.0,47.0,1645184384.15625,P15,D00,0,0,0
880,-42.0,2.0,48.0,1645184384.1875,P15,D00,0,0,0
881,-42.0,1.0,47.0,1645184384.21875,P15,D00,0,0,0
882,-42.0,1.0,48.0,1645184384.25,P15,D00,0,0,0
883,-42.0,1.0,48.0,1645184384.28125,P15,D00,0,0,0
884,-42.0,2.0,48.0,1645184384.3125,P15,D00,0,0,0
885,-41.0,1.0,48.0,1645184384.34375,P15,D00,0,0,0
886,-42.0,2.0,48.0,1645184384.375,P15,D00,0,0,0
887,-42.0,2.0,48.0,1645184384.40625,P15,D00,0,0,0
888,-41.0,1.0,48.0,1645184384.4375,P15,D00,0,0,0
889,-41.0,1.0,48.0,1645184384.46875,P15,D00,0,0,0
890,-42.0,2.0,48.0,1645184384.5,P15,D00,0,0,0
891,-42.0,2.0,48.0,1645184384.53125,P15,D00,0,0,0
892,-42.0,2.0,48.0,1645184384.5625,P15,D00,0,0,0
893,-42.0,2.0,48.0,1645184384.59375,P15,D00,0,0,0
894,-41.0,1.0,48.0,1645184384.625,P15,D00,0,0,0
895,-42.0,2.0,48.0,1645184384.65625,P15,D00,0,0,0
896,-42.0,2.0,48.0,1645184384.6875,P15,D00,0,0,0
897,-42.0,2.0,48.0,1645184384.71875,P15,D00,0,0,0
898,-41.0,2.0,48.0,1645184384.75,P15,D00,0,0,0
899,-42.0,2.0,48.0,1645184384.78125,P15,D00,0,0,0
900,-42.0,2.0,48.0,1645184384.8125,P15,D00,0,0,0
901,-42.0,2.0,48.0,1645184384.84375,P15,D00,0,0,0
902,-42.0,2.0,48.0,1645184384.875,P15,D00,0,0,0
903,-42.0,2.0,48.0,1645184384.90625,P15,D00,0,0,0
904,-41.0,1.0,48.0,1645184384.9375,P15,D00,0,0,0
905,-42.0,2.0,48.0,1645184384.96875,P15,D00,0,0,0
906,-42.0,2.0,48.0,1645184385.0,P15,D00,0,0,0
907,-41.0,1.0,48.0,1645184385.03125,P15,D00,0,0,0
908,-41.0,2.0,48.0,1645184385.0625,P15,D00,0,0,0
909,-42.0,2.0,48.0,1645184385.09375,P15,D00,0,0,0
910,-42.0,2.0,48.0,1645184385.125,P15,D00,0,0,0
911,-42.0,2.0,48.0,1645184385.15625,P15,D00,0,0,0
912,-41.0,2.0,48.0,1645184385.1875,P15,D00,0,0,0
913,-41.0,2.0,48.0,1645184385.21875,P15,D00,0,0,0
914,-42.0,1.0,48.0,1645184385.25,P15,D00,0,0,0
915,-42.0,2.0,48.0,1645184385.28125,P15,D00,0,0,0
916,-41.0,1.0,48.0,1645184385.3125,P15,D00,0,0,0
917,-42.0,2.0,48.0,1645184385.34375,P15,D00,0,0,0
918,-42.0,2.0,48.0,1645184385.375,P15,D00,0,0,0
919,-42.0,2.0,48.0,1645184385.40625,P15,D00,0,0,0
920,-41.0,2.0,48.0,1645184385.4375,P15,D00,0,0,0
921,-42.0,1.0,48.0,1645184385.46875,P15,D00,0,0,0
922,-41.0,2.0,48.0,1645184385.5,P15,D00,0,0,0
923,-41.0,2.0,48.0,1645184385.53125,P15,D00,0,0,0
924,-42.0,2.0,48.0,1645184385.5625,P15,D00,0,0,0
925,-42.0,2.0,48.0,1645184385.59375,P15,D00,0,0,0
926,-42.0,1.0,48.0,1645184385.625,P15,D00,0,0,0
927,-41.0,2.0,48.0,1645184385.65625,P15,D00,0,0,0
928,-41.0,2.0,48.0,1645184385.6875,P15,D00,0,0,0
929,-41.0,2.0,48.0,1645184385.71875,P15,D00,0,0,0
930,-41.0,2.0,48.0,1645184385.75,P15,D00,0,0,0
931,-42.0,2.0,48.0,1645184385.78125,P15,D00,0,0,0
932,-42.0,2.0,48.0,1645184385.8125,P15,D00,0,0,0
933,-42.0,2.0,48.0,1645184385.84375,P15,D00,0,0,0
934,-41.0,2.0,48.0,1645184385.875,P15,D00,0,0,0
935,-41.0,1.0,48.0,1645184385.90625,P15,D00,0,0,0
936,-42.0,2.0,48.0,1645184385.9375,P15,D00,0,0,0
937,-42.0,2.0,48.0,1645184385.96875,P15,D00,0,0,0
938,-42.0,2.0,48.0,1645184386.0,P15,D00,0,0,0
939,-42.0,2.0,48.0,1645184386.03125,P15,D00,0,0,0
940,-42.0,2.0,48.0,1645184386.0625,P15,D00,0,0,0
941,-42.0,1.0,48.0,1645184386.09375,P15,D00,0,0,0
942,-42.0,2.0,48.0,1645184386.125,P15,D00,0,0,0
943,-42.0,2.0,48.0,1645184386.15625,P15,D00,0,0,0
944,-41.0,2.0,48.0,1645184386.1875,P15,D00,0,0,0
945,-42.0,1.0,48.0,1645184386.21875,P15,D00,0,0,0
946,-43.0,2.0,47.0,1645184386.25,P15,D00,0,0,0
947,-41.0,2.0,48.0,1645184386.28125,P15,D00,0,0,0
948,-42.0,2.0,48.0,1645184386.3125,P15,D00,0,0,0
949,-41.0,2.0,48.0,1645184386.34375,P15,D00,0,0,0
950,-41.0,2.0,48.0,1645184386.375,P15,D00,0,0,0
951,-42.0,2.0,48.0,1645184386.40625,P15,D00,0,0,0
952,-42.0,2.0,48.0,1645184386.4375,P15,D00,0,0,0
953,-41.0,1.0,48.0,1645184386.46875,P15,D00,0,0,0
954,-42.0,2.0,48.0,1645184386.5,P15,D00,0,0,0
955,-42.0,2.0,48.0,1645184386.53125,P15,D00,0,0,0
956,-42.0,2.0,48.0,1645184386.5625,P15,D00,0,0,0
957,-42.0,2.0,48.0,1645184386.59375,P15,D00,0,0,0
958,-42.0,2.0,48.0,1645184386.625,P15,D00,0,0,0
959,-42.0,2.0,48.0,1645184386.65625,P15,D00,0,0,0
960,-41.0,1.0,48.0,1645184386.6875,P15,D00,0,0,0
961,-42.0,2.0,48.0,1645184386.71875,P15,D00,0,0,0
962,-42.0,2.0,48.0,1645184386.75,P15,D00,0,0,0
963,-41.0,2.0,48.0,1645184386.78125,P15,D00,0,0,0
964,-42.0,1.0,48.0,1645184386.8125,P15,D00,0,0,0
965,-42.0,2.0,48.0,1645184386.84375,P15,D00,0,0,0
966,-42.0,2.0,48.0,1645184386.875,P15,D00,0,0,0
967,-41.0,1.0,48.0,1645184386.90625,P15,D00,0,0,0
968,-42.0,1.0,48.0,1645184386.9375,P15,D00,0,0,0
969,-42.0,1.0,48.0,1645184386.96875,P15,D00,0,0,0
970,-42.0,2.0,48.0,1645184387.0,P15,D00,0,0,0
971,-42.0,2.0,48.0,1645184387.03125,P15,D00,0,0,0
972,-42.0,2.0,48.0,1645184387.0625,P15,D00,0,0,0
973,-42.0,2.0,48.0,1645184387.09375,P15,D00,0,0,0
974,-41.0,2.0,48.0,1645184387.125,P15,D00,0,0,0
975,-42.0,2.0,48.0,1645184387.15625,P15,D00,0,0,0
976,-42.0,2.0,48.0,1645184387.1875,P15,D00,0,0,0
977,-42.0,2.0,48.0,1645184387.21875,P15,D00,0,0,0
978,-42.0,2.0,48.0,1645184387.25,P15,D00,0,0,0
979,-41.0,2.0,48.0,1645184387.28125,P15,D00,0,0,0
980,-42.0,2.0,48.0,1645184387.3125,P15,D00,0,0,0
981,-42.0,2.0,48.0,1645184387.34375,P15,D00,0,0,0
982,-41.0,1.0,48.0,1645184387.375,P15,D00,0,0,0
983,-42.0,1.0,48.0,1645184387.40625,P15,D00,0,0,0
984,-42.0,2.0,48.0,1645184387.4375,P15,D00,0,0,0
985,-42.0,2.0,48.0,1645184387.46875,P15,D00,0,0,0
986,-42.0,1.0,48.0,1645184387.5,P15,D00,0,0,0
987,-42.0,2.0,48.0,1645184387.53125,P15,D00,0,0,0
988,-41.0,2.0,48.0,1645184387.5625,P15,D00,0,0,0
989,-42.0,2.0,48.0,1645184387.59375,P15,D00,0,0,0
990,-42.0,2.0,48.0,1645184387.625,P15,D00,0,0,0
991,-42.0,2.0,48.0,1645184387.65625,P15,D00,0,0,0
992,-41.0,2.0,48.0,1645184387.6875,P15,D00,0,0,0
993,-42.0,2.0,48.0,1645184387.71875,P15,D00,0,0,0
994,-41.0,1.0,48.0,1645184387.75,P15,D00,0,0,0
995,-42.0,2.0,48.0,1645184387.78125,P15,D00,0,0,0
996,-42.0,2.0,48.0,1645184387.8125,P15,D00,0,0,0
997,-41.0,1.0,48.0,1645184387.84375,P15,D00,0,0,0
998,-41.0,2.0,48.0,1645184387.875,P15,D00,0,0,0
999,-42.0,2.0,48.0,1645184387.90625,P15,D00,0,0,0
1000,-42.0,2.0,48.0,1645184387.9375,P15,D00,0,0,0
1001,-41.0,1.0,48.0,1645184387.96875,P15,D00,0,0,0
1002,-42.0,2.0,48.0,1645184388.0,P15,D00,0,0,0
1003,-42.0,2.0,48.0,1645184388.03125,P15,D00,0,0,0
1004,-42.0,2.0,48.0,1645184388.0625,P15,D00,0,0,0
1005,-42.0,1.0,48.0,1645184388.09375,P15,D00,0,0,0
1006,-42.0,2.0,48.0,1645184388.125,P15,D00,0,0,0
1007,-41.0,2.0,48.0,1645184388.15625,P15,D00,0,0,0
1008,-41.0,2.0,48.0,1645184388.1875,P15,D00,0,0,0
1009,-41.0,2.0,48.0,1645184388.21875,P15,D00,0,0,0
1010,-42.0,1.0,48.0,1645184388.25,P15,D00,0,0,0
1011,-44.0,1.0,47.0,1645184388.28125,P15,D00,0,0,0
1012,-41.0,2.0,48.0,1645184388.3125,P15,D00,0,0,0
1013,-41.0,2.0,48.0,1645184388.34375,P15,D00,0,0,0
1014,-42.0,1.0,48.0,1645184388.375,P15,D00,0,0,0
1015,-42.0,2.0,47.0,1645184388.40625,P15,D00,0,0,0
1016,-41.0,1.0,48.0,1645184388.4375,P15,D00,0,0,0
1017,-42.0,2.0,48.0,1645184388.46875,P15,D00,0,0,0
1018,-42.0,1.0,48.0,1645184388.5,P15,D00,0,0,0
1019,-41.0,2.0,48.0,1645184388.53125,P15,D00,0,0,0
1020,-41.0,2.0,48.0,1645184388.5625,P15,D00,0,0,0
1021,-42.0,2.0,48.0,1645184388.59375,P15,D00,0,0,0
1022,-42.0,2.0,48.0,1645184388.625,P15,D00,0,0,0
1023,-41.0,1.0,48.0,1645184388.65625,P15,D00,0,0,0
1024,-42.0,2.0,48.0,1645184388.6875,P15,D00,0,0,0
1025,-41.0,2.0,48.0,1645184388.71875,P15,D00,0,0,0
1026,-42.0,1.0,48.0,1645184388.75,P15,D00,0,0,0
1027,-42.0,2.0,48.0,1645184388.78125,P15,D00,0,0,0
1028,-41.0,2.0,48.0,1645184388.8125,P15,D00,0,0,0
1029,-41.0,2.0,48.0,1645184388.84375,P15,D00,0,0,0
1030,-42.0,1.0,48.0,1645184388.875,P15,D00,0,0,0
1031,-42.0,2.0,48.0,1645184388.90625,P15,D00,0,0,0
1032,-41.0,2.0,48.0,1645184388.9375,P15,D00,0,0,0
1033,-42.0,2.0,48.0,1645184388.96875,P15,D00,0,0,0
1034,-41.0,2.0,48.0,1645184389.0,P15,D00,0,0,0
1035,-41.0,2.0,48.0,1645184389.03125,P15,D00,0,0,0
1036,-42.0,2.0,48.0,1645184389.0625,P15,D00,0,0,0
1037,-42.0,2.0,48.0,1645184389.09375,P15,D00,0,0,0
1038,-41.0,1.0,48.0,1645184389.125,P15,D00,0,0,0
1039,-41.0,2.0,48.0,1645184389.15625,P15,D00,0,0,0
1040,-42.0,2.0,48.0,1645184389.1875,P15,D00,0,0,0
1041,-41.0,1.0,48.0,1645184389.21875,P15,D00,0,0,0
1042,-41.0,2.0,48.0,1645184389.25,P15,D00,0,0,0
1043,-42.0,1.0,48.0,1645184389.28125,P15,D00,0,0,0
1044,-42.0,2.0,48.0,1645184389.3125,P15,D00,0,0,0
1045,-41.0,2.0,48.0,1645184389.34375,P15,D00,0,0,0
1046,-42.0,2.0,48.0,1645184389.375,P15,D00,0,0,0
1047,-41.0,2.0,48.0,1645184389.40625,P15,D00,0,0,0
1048,-42.0,2.0,48.0,1645184389.4375,P15,D00,0,0,0
1049,-42.0,2.0,48.0,1645184389.46875,P15,D00,0,0,0
1050,-41.0,2.0,48.0,1645184389.5,P15,D00,0,0,0
1051,-42.0,2.0,48.0,1645184389.53125,P15,D00,0,0,0
1052,-42.0,2.0,48.0,1645184389.5625,P15,D00,0,0,0
1053,-41.0,2.0,48.0,1645184389.59375,P15,D00,0,0,0
1054,-41.0,2.0,48.0,1645184389.625,P15,D00,0,0,0
1055,-42.0,2.0,48.0,1645184389.65625,P15,D00,0,0,0
1056,-42.0,2.0,48.0,1645184389.6875,P15,D00,0,0,0
1057,-41.0,2.0,48.0,1645184389.71875,P15,D00,0,0,0
1058,-42.0,2.0,48.0,1645184389.75,P15,D00,0,0,0
1059,-42.0,2.0,48.0,1645184389.78125,P15,D00,0,0,0
1060,-41.0,2.0,48.0,1645184389.8125,P15,D00,0,0,0
1061,-42.0,2.0,48.0,1645184389.84375,P15,D00,0,0,0
1062,-42.0,2.0,48.0,1645184389.875,P15,D00,0,0,0
1063,-42.0,2.0,48.0,1645184389.90625,P15,D00,0,0,0
1064,-41.0,1.0,48.0,1645184389.9375,P15,D00,0,0,0
1065,-41.0,2.0,48.0,1645184389.96875,P15,D00,0,0,0
1066,-42.0,1.0,48.0,1645184390.0,P15,D00,0,0,0
1067,-42.0,2.0,48.0,1645184390.03125,P15,D00,0,0,0
1068,-41.0,2.0,48.0,1645184390.0625,P15,D00,0,0,0
1069,-42.0,2.0,48.0,1645184390.09375,P15,D00,0,0,0
1070,-42.0,1.0,48.0,1645184390.125,P15,D00,0,0,0
1071,-42.0,2.0,48.0,1645184390.15625,P15,D00,0,0,0
1072,-42.0,1.0,48.0,1645184390.1875,P15,D00,0,0,0
1073,-41.0,2.0,48.0,1645184390.21875,P15,D00,0,0,0
1074,-42.0,2.0,48.0,1645184390.25,P15,D00,0,0,0
1075,-42.0,1.0,48.0,1645184390.28125,P15,D00,0,0,0
1076,-42.0,2.0,48.0,1645184390.3125,P15,D00,0,0,0
1077,-42.0,2.0,48.0,1645184390.34375,P15,D00,0,0,0
1078,-41.0,1.0,48.0,1645184390.375,P15,D00,0,0,0
1079,-41.0,2.0,48.0,1645184390.40625,P15,D00,0,0,0
1080,-42.0,2.0,48.0,1645184390.4375,P15,D00,0,0,0
1081,-42.0,1.0,48.0,1645184390.46875,P15,D00,0,0,0
1082,-42.0,2.0,48.0,1645184390.5,P15,D00,0,0,0
1083,-41.0,2.0,48.0,1645184390.53125,P15,D00,0,0,0
1084,-42.0,1.0,48.0,1645184390.5625,P15,D00,0,0,0
1085,-42.0,2.0,48.0,1645184390.59375,P15,D00,0,0,0
1086,-42.0,2.0,48.0,1645184390.625,P15,D00,0,0,0
1087,-42.0,2.0,48.0,1645184390.65625,P15,D00,0,0,0
1088,-42.0,2.0,48.0,1645184390.6875,P15,D00,0,0,0
1089,-42.0,1.0,48.0,1645184390.71875,P15,D00,0,0,0
1090,-42.0,1.0,48.0,1645184390.75,P15,D00,0,0,0
1091,-42.0,2.0,48.0,1645184390.78125,P15,D00,0,0,0
1092,-42.0,2.0,48.0,1645184390.8125,P15,D00,0,0,0
1093,-42.0,1.0,48.0,1645184390.84375,P15,D00,0,0,0
1094,-42.0,2.0,48.0,1645184390.875,P15,D00,0,0,0
1095,-41.0,1.0,48.0,1645184390.90625,P15,D00,0,0,0
1096,-42.0,1.0,48.0,1645184390.9375,P15,D00,0,0,0
1097,-43.0,1.0,47.0,1645184390.96875,P15,D00,0,0,0
1098,-42.0,2.0,48.0,1645184391.0,P15,D00,0,0,0
1099,-42.0,2.0,48.0,1645184391.03125,P15,D00,0,0,0
1100,-42.0,1.0,48.0,1645184391.0625,P15,D00,0,0,0
1101,-41.0,2.0,48.0,1645184391.09375,P15,D00,0,0,0
1102,-42.0,2.0,48.0,1645184391.125,P15,D00,0,0,0
1103,-42.0,1.0,48.0,1645184391.15625,P15,D00,0,0,0
1104,-42.0,1.0,48.0,1645184391.1875,P15,D00,0,0,0
1105,-42.0,2.0,48.0,1645184391.21875,P15,D00,0,0,0
1106,-42.0,2.0,48.0,1645184391.25,P15,D00,0,0,0
1107,-42.0,1.0,48.0,1645184391.28125,P15,D00,0,0,0
1108,-42.0,1.0,48.0,1645184391.3125,P15,D00,0,0,0
1109,-42.0,2.0,48.0,1645184391.34375,P15,D00,0,0,0
1110,-42.0,2.0,48.0,1645184391.375,P15,D00,0,0,0
1111,-42.0,2.0,48.0,1645184391.40625,P15,D00,0,0,0
1112,-42.0,2.0,48.0,1645184391.4375,P15,D00,0,0,0
1113,-42.0,2.0,48.0,1645184391.46875,P15,D00,0,0,0
1114,-41.0,2.0,48.0,1645184391.5,P15,D00,0,0,0
1115,-42.0,2.0,48.0,1645184391.53125,P15,D00,0,0,0
1116,-42.0,2.0,48.0,1645184391.5625,P15,D00,0,0,0
1117,-42.0,2.0,48.0,1645184391.59375,P15,D00,0,0,0
1118,-41.0,2.0,48.0,1645184391.625,P15,D00,0,0,0
1119,-42.0,2.0,48.0,1645184391.65625,P15,D00,0,0,0
1120,-42.0,2.0,48.0,1645184391.6875,P15,D00,0,0,0
1121,-41.0,2.0,48.0,1645184391.71875,P15,D00,0,0,0
1122,-42.0,2.0,48.0,1645184391.75,P15,D00,0,0,0
1123,-42.0,2.0,48.0,1645184391.78125,P15,D00,0,0,0
1124,-41.0,1.0,48.0,1645184391.8125,P15,D00,0,0,0
1125,-41.0,2.0,48.0,1645184391.84375,P15,D00,0,0,0
1126,-42.0,2.0,48.0,1645184391.875,P15,D00,0,0,0
1127,-42.0,2.0,48.0,1645184391.90625,P15,D00,0,0,0
1128,-42.0,2.0,48.0,1645184391.9375,P15,D00,0,0,0
1129,-42.0,2.0,48.0,1645184391.96875,P15,D00,0,0,0
1130,-42.0,2.0,48.0,1645184392.0,P15,D00,0,0,0
1131,-41.0,2.0,48.0,1645184392.03125,P15,D00,0,0,0
1132,-41.0,1.0,48.0,1645184392.0625,P15,D00,0,0,0
1133,-42.0,2.0,48.0,1645184392.09375,P15,D00,0,0,0
1134,-42.0,2.0,48.0,1645184392.125,P15,D00,0,0,0
1135,-42.0,2.0,48.0,1645184392.15625,P15,D00,0,0,0
1136,-41.0,1.0,48.0,1645184392.1875,P15,D00,0,0,0
1137,-41.0,2.0,48.0,1645184392.21875,P15,D00,0,0,0
1138,-42.0,2.0,48.0,1645184392.25,P15,D00,0,0,0
1139,-42.0,2.0,48.0,1645184392.28125,P15,D00,0,0,0
1140,-41.0,2.0,48.0,1645184392.3125,P15,D00,0,0,0
1141,-41.0,2.0,49.0,1645184392.34375,P15,D00,0,0,0
1142,-42.0,2.0,48.0,1645184392.375,P15,D00,0,0,0
1143,-42.0,2.0,48.0,1645184392.40625,P15,D00,0,0,0
1144,-41.0,2.0,48.0,1645184392.4375,P15,D00,0,0,0
1145,-42.0,2.0,48.0,1645184392.46875,P15,D00,0,0,0
1146,-41.0,2.0,48.0,1645184392.5,P15,D00,0,0,0
1147,-41.0,1.0,48.0,1645184392.53125,P15,D00,0,0,0
1148,-42.0,2.0,48.0,1645184392.5625,P15,D00,0,0,0
1149,-42.0,2.0,47.0,1645184392.59375,P15,D00,0,0,0
1150,-41.0,2.0,48.0,1645184392.625,P15,D00,0,0,0
1151,-41.0,2.0,48.0,1645184392.65625,P15,D00,0,0,0
1152,-42.0,2.0,48.0,1645184392.6875,P15,D00,0,0,0
1153,-42.0,2.0,48.0,1645184392.71875,P15,D00,0,0,0
1154,-41.0,2.0,48.0,1645184392.75,P15,D00,0,0,0
1155,-42.0,2.0,48.0,1645184392.78125,P15,D00,0,0,0
1156,-42.0,2.0,48.0,1645184392.8125,P15,D00,0,0,0
1157,-41.0,2.0,48.0,1645184392.84375,P15,D00,0,0,0
1158,-41.0,1.0,48.0,1645184392.875,P15,D00,0,0,0
1159,-42.0,2.0,48.0,1645184392.90625,P15,D00,0,0,0
1160,-41.0,2.0,48.0,1645184392.9375,P15,D00,0,0,0
1161,-41.0,2.0,48.0,1645184392.96875,P15,D00,0,0,0
1162,-42.0,2.0,48.0,1645184393.0,P15,D00,0,0,0
1163,-42.0,1.0,48.0,1645184393.03125,P15,D00,0,0,0
1164,-41.0,2.0,48.0,1645184393.0625,P15,D00,0,0,0
1165,-41.0,2.0,49.0,1645184393.09375,P15,D00,0,0,0
1166,-42.0,1.0,48.0,1645184393.125,P15,D00,0,0,0
1167,-42.0,2.0,48.0,1645184393.15625,P15,D00,0,0,0
1168,-41.0,2.0,48.0,1645184393.1875,P15,D00,0,0,0
1169,-41.0,2.0,49.0,1645184393.21875,P15,D00,0,0,0
1170,-42.0,2.0,48.0,1645184393.25,P15,D00,0,0,0
1171,-41.0,2.0,48.0,1645184393.28125,P15,D00,0,0,0
1172,-41.0,2.0,48.0,1645184393.3125,P15,D00,0,0,0
1173,-42.0,2.0,48.0,1645184393.34375,P15,D00,0,0,0
1174,-41.0,2.0,48.0,1645184393.375,P15,D00,0,0,0
1175,-41.0,2.0,48.0,1645184393.40625,P15,D00,0,0,0
1176,-42.0,2.0,48.0,1645184393.4375,P15,D00,0,0,0
1177,-41.0,2.0,48.0,1645184393.46875,P15,D00,0,0,0
1178,-41.0,2.0,48.0,1645184393.5,P15,D00,0,0,0
1179,-42.0,2.0,48.0,1645184393.53125,P15,D00,0,0,0
1180,-42.0,2.0,48.0,1645184393.5625,P15,D00,0,0,0
1181,-42.0,1.0,48.0,1645184393.59375,P15,D00,0,0,0
1182,-42.0,1.0,48.0,1645184393.625,P15,D00,0,0,0
1183,-41.0,1.0,48.0,1645184393.65625,P15,D00,0,0,0
1184,-42.0,2.0,48.0,1645184393.6875,P15,D00,0,0,0
1185,-42.0,2.0,48.0,1645184393.71875,P15,D00,0,0,0
1186,-42.0,2.0,48.0,1645184393.75,P15,D00,0,0,0
1187,-41.0,1.0,48.0,1645184393.78125,P15,D00,0,0,0
1188,-42.0,2.0,48.0,1645184393.8125,P15,D00,0,0,0
1189,-42.0,2.0,48.0,1645184393.84375,P15,D00,0,0,0
1190,-41.0,2.0,48.0,1645184393.875,P15,D00,0,0,0
1191,-42.0,2.0,48.0,1645184393.90625,P15,D00,0,0,0
1192,-41.0,2.0,48.0,1645184393.9375,P15,D00,0,0,0
1193,-41.0,2.0,48.0,1645184393.96875,P15,D00,0,0,0
1194,-41.0,2.0,48.0,1645184394.0,P15,D00,0,0,0
1195,-42.0,2.0,48.0,1645184394.03125,P15,D00,0,0,0
1196,-41.0,2.0,48.0,1645184394.0625,P15,D00,0,0,0
1197,-41.0,2.0,48.0,1645184394.09375,P15,D00,0,0,0
1198,-42.0,2.0,48.0,1645184394.125,P15,D00,0,0,0
1199,-42.0,1.0,48.0,1645184394.15625,P15,D00,0,0,0
1200,-42.0,1.0,47.0,1645184394.1875,P15,D00,0,0,0
1201,-41.0,1.0,48.0,1645184394.21875,P15,D00,0,0,0
1202,-41.0,2.0,48.0,1645184394.25,P15,D00,0,0,0
1203,-41.0,1.0,48.0,1645184394.28125,P15,D00,0,0,0
1204,-42.0,2.0,48.0,1645184394.3125,P15,D00,0,0,0
1205,-41.0,2.0,48.0,1645184394.34375,P15,D00,0,0,0
1206,-42.0,1.0,48.0,1645184394.375,P15,D00,0,0,0
1207,-42.0,2.0,48.0,1645184394.40625,P15,D00,0,0,0
1208,-41.0,2.0,48.0,1645184394.4375,P15,D00,0,0,0
1209,-41.0,2.0,48.0,1645184394.46875,P15,D00,0,0,0
1210,-42.0,2.0,48.0,1645184394.5,P15,D00,0,0,0
1211,-41.0,2.0,48.0,1645184394.53125,P15,D00,0,0,0
1212,-41.0,2.0,48.0,1645184394.5625,P15,D00,0,0,0
1213,-41.0,1.0,48.0,1645184394.59375,P15,D00,0,0,0
1214,-41.0,1.0,48.0,1645184394.625,P15,D00,0,0,0
1215,-42.0,2.0,48.0,1645184394.65625,P15,D00,0,0,0
1216,-42.0,1.0,48.0,1645184394.6875,P15,D00,0,0,0
1217,-42.0,1.0,48.0,1645184394.71875,P15,D00,0,0,0
1218,-41.0,2.0,48.0,1645184394.75,P15,D00,0,0,0
1219,-42.0,2.0,48.0,1645184394.78125,P15,D00,0,0,0
1220,-42.0,1.0,48.0,1645184394.8125,P15,D00,0,0,0
1221,-41.0,2.0,48.0,1645184394.84375,P15,D00,0,0,0
1222,-42.0,2.0,48.0,1645184394.875,P15,D00,0,0,0
1223,-42.0,1.0,48.0,1645184394.90625,P15,D00,0,0,0
1224,-41.0,2.0,48.0,1645184394.9375,P15,D00,0,0,0
1225,-41.0,1.0,48.0,1645184394.96875,P15,D00,0,0,0
1226,-42.0,1.0,48.0,1645184395.0,P15,D00,0,0,0
1227,-42.0,1.0,48.0,1645184395.03125,P15,D00,0,0,0
1228,-42.0,1.0,48.0,1645184395.0625,P15,D00,0,0,0
1229,-42.0,1.0,48.0,1645184395.09375,P15,D00,0,0,0
1230,-41.0,2.0,48.0,1645184395.125,P15,D00,0,0,0
1231,-41.0,2.0,48.0,1645184395.15625,P15,D00,0,0,0
1232,-42.0,2.0,48.0,1645184395.1875,P15,D00,0,0,0
1233,-42.0,1.0,48.0,1645184395.21875,P15,D00,0,0,0
1234,-42.0,2.0,48.0,1645184395.25,P15,D00,0,0,0
1235,-42.0,1.0,48.0,1645184395.28125,P15,D00,0,0,0
1236,-42.0,2.0,48.0,1645184395.3125,P15,D00,0,0,0
1237,-42.0,2.0,48.0,1645184395.34375,P15,D00,0,0,0
1238,-42.0,2.0,48.0,1645184395.375,P15,D00,0,0,0
1239,-41.0,1.0,48.0,1645184395.40625,P15,D00,0,0,0
1240,-41.0,2.0,48.0,1645184395.4375,P15,D00,0,0,0
1241,-41.0,1.0,48.0,1645184395.46875,P15,D00,0,0,0
1242,-41.0,1.0,48.0,1645184395.5,P15,D00,0,0,0
1243,-42.0,2.0,48.0,1645184395.53125,P15,D00,0,0,0
1244,-42.0,1.0,48.0,1645184395.5625,P15,D00,0,0,0
1245,-41.0,1.0,48.0,1645184395.59375,P15,D00,0,0,0
1246,-42.0,1.0,48.0,1645184395.625,P15,D00,0,0,0
1247,-41.0,2.0,48.0,1645184395.65625,P15,D00,0,0,0
1248,-41.0,2.0,48.0,1645184395.6875,P15,D00,0,0,0
1249,-42.0,1.0,48.0,1645184395.71875,P15,D00,0,0,0
1250,-42.0,2.0,48.0,1645184395.75,P15,D00,0,0,0
1251,-41.0,2.0,48.0,1645184395.78125,P15,D00,0,0,0
1252,-42.0,2.0,48.0,1645184395.8125,P15,D00,0,0,0
1253,-41.0,2.0,48.0,1645184395.84375,P15,D00,0,0,0
1254,-42.0,2.0,48.0,1645184395.875,P15,D00,0,0,0
1255,-42.0,2.0,48.0,1645184395.90625,P15,D00,0,0,0
1256,-41.0,2.0,48.0,1645184395.9375,P15,D00,0,0,0
1257,-41.0,2.0,48.0,1645184395.96875,P15,D00,0,0,0
1258,-42.0,1.0,48.0,1645184396.0,P15,D00,0,0,0
1259,-42.0,1.0,48.0,1645184396.03125,P15,D00,0,0,0
1260,-41.0,2.0,48.0,1645184396.0625,P15,D00,0,0,0
1261,-41.0,2.0,48.0,1645184396.09375,P15,D00,0,0,0
1262,-41.0,2.0,49.0,1645184396.125,P15,D00,0,0,0
1263,-42.0,1.0,48.0,1645184396.15625,P15,D00,0,0,0
1264,-41.0,2.0,48.0,1645184396.1875,P15,D00,0,0,0
1265,-42.0,2.0,48.0,1645184396.21875,P15,D00,0,0,0
1266,-42.0,2.0,48.0,1645184396.25,P15,D00,0,0,0
1267,-41.0,2.0,48.0,1645184396.28125,P15,D00,0,0,0
1268,-41.0,2.0,49.0,1645184396.3125,P15,D00,0,0,0
1269,-42.0,1.0,48.0,1645184396.34375,P15,D00,0,0,0
1270,-42.0,1.0,48.0,1645184396.375,P15,D00,0,0,0
1271,-41.0,2.0,49.0,1645184396.40625,P15,D00,0,0,0
1272,-42.0,2.0,48.0,1645184396.4375,P15,D00,0,0,0
1273,-41.0,2.0,48.0,1645184396.46875,P15,D00,0,0,0
1274,-42.0,2.0,48.0,1645184396.5,P15,D00,0,0,0
1275,-41.0,2.0,48.0,1645184396.53125,P15,D00,0,0,0
1276,-42.0,2.0,48.0,1645184396.5625,P15,D00,0,0,0
1277,-42.0,2.0,48.0,1645184396.59375,P15,D00,0,0,0
1278,-41.0,2.0,48.0,1645184396.625,P15,D00,0,0,0
1279,-42.0,2.0,48.0,1645184396.65625,P15,D00,0,0,0
1280,-41.0,1.0,48.0,1645184396.6875,P15,D00,0,0,0
1281,-42.0,2.0,48.0,1645184396.71875,P15,D00,0,0,0
1282,-41.0,2.0,48.0,1645184396.75,P15,D00,0,0,0
1283,-41.0,1.0,48.0,1645184396.78125,P15,D00,0,0,0
1284,-42.0,2.0,48.0,1645184396.8125,P15,D00,0,0,0
1285,-41.0,2.0,48.0,1645184396.84375,P15,D00,0,0,0
1286,-41.0,2.0,48.0,1645184396.875,P15,D00,0,0,0
1287,-41.0,2.0,48.0,1645184396.90625,P15,D00,0,0,0
1288,-41.0,2.0,49.0,1645184396.9375,P15,D00,0,0,0
1289,-41.0,2.0,48.0,1645184396.96875,P15,D00,0,0,0
1290,-42.0,2.0,48.0,1645184397.0,P15,D00,0,0,0
1291,-41.0,2.0,48.0,1645184397.03125,P15,D00,0,0,0
1292,-41.0,2.0,48.0,1645184397.0625,P15,D00,0,0,0
1293,-41.0,2.0,48.0,1645184397.09375,P15,D00,0,0,0
1294,-42.0,2.0,48.0,1645184397.125,P15,D00,0,0,0
1295,-42.0,2.0,48.0,1645184397.15625,P15,D00,0,0,0
1296,-41.0,2.0,48.0,1645184397.1875,P15,D00,0,0,0
1297,-41.0,1.0,48.0,1645184397.21875,P15,D00,0,0,0
1298,-42.0,2.0,48.0,1645184397.25,P15,D00,0,0,0
1299,-42.0,1.0,48.0,1645184397.28125,P15,D00,0,0,0
1300,-41.0,1.0,48.0,1645184397.3125,P15,D00,0,0,0
1301,-41.0,2.0,48.0,1645184397.34375,P15,D00,0,0,0
1302,-42.0,2.0,48.0,1645184397.375,P15,D00,0,0,0
1303,-42.0,1.0,48.0,1645184397.40625,P15,D00,0,0,0
1304,-41.0,2.0,48.0,1645184397.4375,P15,D00,0,0,0
1305,-41.0,2.0,48.0,1645184397.46875,P15,D00,0,0,0
1306,-41.0,2.0,48.0,1645184397.5,P15,D00,0,0,0
1307,-41.0,1.0,48.0,1645184397.53125,P15,D00,0,0,0
1308,-42.0,1.0,48.0,1645184397.5625,P15,D00,0,0,0
1309,-41.0,2.0,48.0,1645184397.59375,P15,D00,0,0,0
1310,-41.0,2.0,48.0,1645184397.625,P15,D00,0,0,0
1311,-42.0,1.0,48.0,1645184397.65625,P15,D00,0,0,0
1312,-42.0,2.0,48.0,1645184397.6875,P15,D00,0,0,0
1313,-42.0,2.0,48.0,1645184397.71875,P15,D00,0,0,0
1314,-42.0,2.0,48.0,1645184397.75,P15,D00,0,0,0
1315,-42.0,1.0,48.0,1645184397.78125,P15,D00,0,0,0
1316,-41.0,1.0,48.0,1645184397.8125,P15,D00,0,0,0
1317,-42.0,1.0,48.0,1645184397.84375,P15,D00,0,0,0
1318,-42.0,2.0,48.0,1645184397.875,P15,D00,0,0,0
1319,-42.0,1.0,48.0,1645184397.90625,P15,D00,0,0,0
1320,-42.0,2.0,48.0,1645184397.9375,P15,D00,0,0,0
1321,-42.0,2.0,48.0,1645184397.96875,P15,D00,0,0,0
1322,-41.0,2.0,48.0,1645184398.0,P15,D00,0,0,0
1323,-41.0,1.0,48.0,1645184398.03125,P15,D00,0,0,0
1324,-42.0,2.0,47.0,1645184398.0625,P15,D00,0,0,0
1325,-42.0,2.0,48.0,1645184398.09375,P15,D00,0,0,0
1326,-41.0,2.0,48.0,1645184398.125,P15,D00,0,0,0
1327,-41.0,1.0,48.0,1645184398.15625,P15,D00,0,0,0
1328,-42.0,2.0,48.0,1645184398.1875,P15,D00,0,0,0
1329,-42.0,1.0,48.0,1645184398.21875,P15,D00,0,0,0
1330,-41.0,2.0,48.0,1645184398.25,P15,D00,0,0,0
1331,-42.0,2.0,48.0,1645184398.28125,P15,D00,0,0,0
1332,-41.0,2.0,48.0,1645184398.3125,P15,D00,0,0,0
1333,-42.0,1.0,48.0,1645184398.34375,P15,D00,0,0,0
1334,-42.0,1.0,48.0,1645184398.375,P15,D00,0,0,0
1335,-41.0,2.0,48.0,1645184398.40625,P15,D00,0,0,0
1336,-41.0,2.0,48.0,1645184398.4375,P15,D00,0,0,0
1337,-42.0,1.0,48.0,1645184398.46875,P15,D00,0,0,0
1338,-42.0,1.0,48.0,1645184398.5,P15,D00,0,0,0
1339,-41.0,2.0,48.0,1645184398.53125,P15,D00,0,0,0
1340,-41.0,1.0,48.0,1645184398.5625,P15,D00,0,0,0
1341,-42.0,2.0,48.0,1645184398.59375,P15,D00,0,0,0
1342,-41.0,1.0,48.0,1645184398.625,P15,D00,0,0,0
1343,-42.0,1.0,48.0,1645184398.65625,P15,D00,0,0,0
1344,-42.0,1.0,48.0,1645184398.6875,P15,D00,0,0,0
1345,-41.0,2.0,48.0,1645184398.71875,P15,D00,0,0,0
1346,-41.0,1.0,48.0,1645184398.75,P15,D00,0,0,0
1347,-42.0,1.0,48.0,1645184398.78125,P15,D00,0,0,0
1348,-42.0,2.0,48.0,1645184398.8125,P15,D00,0,0,0
1349,-42.0,2.0,48.0,1645184398.84375,P15,D00,0,0,0
1350,-42.0,2.0,48.0,1645184398.875,P15,D00,0,0,0
1351,-42.0,2.0,48.0,1645184398.90625,P15,D00,0,0,0
1352,-42.0,1.0,48.0,1645184398.9375,P15,D00,0,0,0
1353,-42.0,2.0,48.0,1645184398.96875,P15,D00,0,0,0
1354,-41.0,2.0,48.0,1645184399.0,P15,D00,0,0,0
1355,-42.0,1.0,48.0,1645184399.03125,P15,D00,0,0,0
1356,-42.0,1.0,48.0,1645184399.0625,P15,D00,0,0,0
1357,-41.0,1.0,48.0,1645184399.09375,P15,D00,0,0,0
1358,-42.0,1.0,48.0,1645184399.125,P15,D00,0,0,0
1359,-41.0,2.0,48.0,1645184399.15625,P15,D00,0,0,0
1360,-41.0,2.0,48.0,1645184399.1875,P15,D00,0,0,0
1361,-42.0,2.0,48.0,1645184399.21875,P15,D00,0,0,0
1362,-41.0,2.0,48.0,1645184399.25,P15,D00,0,0,0
1363,-42.0,2.0,48.0,1645184399.28125,P15,D00,0,0,0
1364,-41.0,2.0,48.0,1645184399.3125,P15,D00,0,0,0
1365,-42.0,1.0,48.0,1645184399.34375,P15,D00,0,0,0
1366,-41.0,2.0,48.0,1645184399.375,P15,D00,0,0,0
1367,-42.0,2.0,48.0,1645184399.40625,P15,D00,0,0,0
1368,-42.0,2.0,48.0,1645184399.4375,P15,D00,0,0,0
1369,-42.0,2.0,48.0,1645184399.46875,P15,D00,0,0,0
1370,-42.0,2.0,48.0,1645184399.5,P15,D00,0,0,0
1371,-42.0,2.0,48.0,1645184399.53125,P15,D00,0,0,0
1372,-41.0,2.0,48.0,1645184399.5625,P15,D00,0,0,0
1373,-41.0,1.0,48.0,1645184399.59375,P15,D00,0,0,0
1374,-42.0,2.0,48.0,1645184399.625,P15,D00,0,0,0
1375,-42.0,2.0,48.0,1645184399.65625,P15,D00,0,0,0
1376,-42.0,2.0,48.0,1645184399.6875,P15,D00,0,0,0
1377,-41.0,2.0,48.0,1645184399.71875,P15,D00,0,0,0
1378,-42.0,2.0,48.0,1645184399.75,P15,D00,0,0,0
1379,-42.0,1.0,48.0,1645184399.78125,P15,D00,0,0,0
1380,-42.0,2.0,48.0,1645184399.8125,P15,D00,0,0,0
1381,-42.0,2.0,48.0,1645184399.84375,P15,D00,0,0,0
1382,-41.0,2.0,48.0,1645184399.875,P15,D00,0,0,0
1383,-41.0,2.0,48.0,1645184399.90625,P15,D00,0,0,0
1384,-42.0,2.0,48.0,1645184399.9375,P15,D00,0,0,0
1385,-42.0,2.0,48.0,1645184399.96875,P15,D00,0,0,0
1386,-41.0,1.0,48.0,1645184400.0,P15,D00,0,0,0
1387,-41.0,2.0,48.0,1645184400.03125,P15,D00,0,0,0
1388,-41.0,2.0,48.0,1645184400.0625,P15,D00,0,0,0
1389,-42.0,1.0,48.0,1645184400.09375,P15,D00,0,0,0
1390,-42.0,1.0,48.0,1645184400.125,P15,D00,0,0,0
1391,-41.0,2.0,48.0,1645184400.15625,P15,D00,0,0,0
1392,-42.0,2.0,48.0,1645184400.1875,P15,D00,0,0,0
1393,-42.0,1.0,48.0,1645184400.21875,P15,D00,0,0,0
1394,-41.0,2.0,48.0,1645184400.25,P15,D00,0,0,0
1395,-42.0,2.0,48.0,1645184400.28125,P15,D00,0,0,0
1396,-42.0,2.0,48.0,1645184400.3125,P15,D00,0,0,0
1397,-41.0,2.0,48.0,1645184400.34375,P15,D00,0,0,0
1398,-41.0,1.0,48.0,1645184400.375,P15,D00,0,0,0
1399,-42.0,2.0,48.0,1645184400.40625,P15,D00,0,0,0
1400,-42.0,2.0,48.0,1645184400.4375,P15,D00,0,0,0
1401,-41.0,1.0,48.0,1645184400.46875,P15,D00,0,0,0
1402,-41.0,2.0,48.0,1645184400.5,P15,D00,0,0,0
1403,-41.0,2.0,48.0,1645184400.53125,P15,D00,0,0,0
1404,-41.0,2.0,48.0,1645184400.5625,P15,D00,0,0,0
1405,-42.0,2.0,48.0,1645184400.59375,P15,D00,0,0,0
1406,-42.0,2.0,48.0,1645184400.625,P15,D00,0,0,0
1407,-41.0,2.0,48.0,1645184400.65625,P15,D00,0,0,0
1408,-42.0,1.0,48.0,1645184400.6875,P15,D00,0,0,0
1409,-42.0,2.0,48.0,1645184400.71875,P15,D00,0,0,0
1410,-42.0,2.0,48.0,1645184400.75,P15,D00,0,0,0
1411,-43.0,2.0,48.0,1645184400.78125,P15,D00,0,0,0
1412,-42.0,1.0,47.0,1645184400.8125,P15,D00,0,0,0
1413,-42.0,1.0,48.0,1645184400.84375,P15,D00,0,0,0
1414,-43.0,1.0,47.0,1645184400.875,P15,D00,0,0,0
1415,-42.0,2.0,48.0,1645184400.90625,P15,D00,0,0,0
1416,-41.0,2.0,48.0,1645184400.9375,P15,D00,0,0,0
1417,-40.0,2.0,49.0,1645184400.96875,P15,D00,0,0,0
1418,-45.0,1.0,48.0,1645184401.0,P15,D00,0,0,0
1419,-40.0,1.0,48.0,1645184401.03125,P15,D00,0,0,0
1420,-43.0,1.0,48.0,1645184401.0625,P15,D00,0,0,0
1421,-42.0,3.0,48.0,1645184401.09375,P15,D00,0,0,0
1422,-40.0,1.0,49.0,1645184401.125,P15,D00,0,0,0
1423,-40.0,2.0,49.0,1645184401.15625,P15,D00,0,0,0
1424,-41.0,1.0,49.0,1645184401.1875,P15,D00,0,0,0
1425,-40.0,2.0,49.0,1645184401.21875,P15,D00,0,0,0
1426,-40.0,2.0,49.0,1645184401.25,P15,D00,0,0,0
1427,-41.0,2.0,49.0,1645184401.28125,P15,D00,0,0,0
1428,-40.0,2.0,49.0,1645184401.3125,P15,D00,0,0,0
1429,-41.0,2.0,48.0,1645184401.34375,P15,D00,0,0,0
1430,-41.0,2.0,48.0,1645184401.375,P15,D00,0,0,0
1431,-41.0,2.0,48.0,1645184401.40625,P15,D00,0,0,0
1432,-41.0,2.0,48.0,1645184401.4375,P15,D00,0,0,0
1433,-41.0,2.0,49.0,1645184401.46875,P15,D00,0,0,0
1434,-41.0,2.0,48.0,1645184401.5,P15,D00,0,0,0
1435,-41.0,2.0,48.0,1645184401.53125,P15,D00,0,0,0
1436,-41.0,1.0,49.0,1645184401.5625,P15,D00,0,0,0
1437,-40.0,2.0,49.0,1645184401.59375,P15,D00,0,0,0
1438,-41.0,1.0,49.0,1645184401.625,P15,D00,0,0,0
1439,-41.0,2.0,49.0,1645184401.65625,P15,D00,0,0,0
1440,-41.0,2.0,48.0,1645184401.6875,P15,D00,0,0,0
1441,-40.0,2.0,49.0,1645184401.71875,P15,D00,0,0,0
1442,-41.0,1.0,48.0,1645184401.75,P15,D00,0,0,0
1443,-41.0,2.0,48.0,1645184401.78125,P15,D00,0,0,0
1444,-41.0,2.0,48.0,1645184401.8125,P15,D00,0,0,0
1445,-41.0,2.0,48.0,1645184401.84375,P15,D00,0,0,0
1446,-41.0,1.0,48.0,1645184401.875,P15,D00,0,0,0
1447,-41.0,2.0,48.0,1645184401.90625,P15,D00,0,0,0
1448,-41.0,2.0,48.0,1645184401.9375,P15,D00,0,0,0
1449,-41.0,1.0,48.0,1645184401.96875,P15,D00,0,0,0
1450,-42.0,1.0,48.0,1645184402.0,P15,D00,0,0,0
1451,-41.0,2.0,48.0,1645184402.03125,P15,D00,0,0,0
1452,-41.0,2.0,48.0,1645184402.0625,P15,D00,0,0,0
1453,-42.0,2.0,48.0,1645184402.09375,P15,D00,0,0,0
1454,-42.0,2.0,48.0,1645184402.125,P15,D00,0,0,0
1455,-43.0,4.0,48.0,1645184402.15625,P15,D00,0,0,0
1456,-40.0,2.0,50.0,1645184402.1875,P15,D00,0,0,0
1457,-42.0,2.0,48.0,1645184402.21875,P15,D00,0,0,0
1458,-40.0,2.0,49.0,1645184402.25,P15,D00,0,0,0
1459,-41.0,2.0,49.0,1645184402.28125,P15,D00,0,0,0
1460,-41.0,2.0,48.0,1645184402.3125,P15,D00,0,0,0
1461,-41.0,2.0,49.0,1645184402.34375,P15,D00,0,0,0
1462,-42.0,2.0,48.0,1645184402.375,P15,D00,0,0,0
1463,-42.0,2.0,48.0,1645184402.40625,P15,D00,0,0,0
1464,-40.0,1.0,49.0,1645184402.4375,P15,D00,0,0,0
1465,-41.0,2.0,49.0,1645184402.46875,P15,D00,0,0,0
1466,-41.0,2.0,48.0,1645184402.5,P15,D00,0,0,0
1467,-41.0,2.0,48.0,1645184402.53125,P15,D00,0,0,0
1468,-41.0,2.0,49.0,1645184402.5625,P15,D00,0,0,0
1469,-41.0,2.0,49.0,1645184402.59375,P15,D00,0,0,0
1470,-41.0,2.0,49.0,1645184402.625,P15,D00,0,0,0
1471,-41.0,1.0,48.0,1645184402.65625,P15,D00,0,0,0
1472,-41.0,2.0,49.0,1645184402.6875,P15,D00,0,0,0
1473,-42.0,2.0,48.0,1645184402.71875,P15,D00,0,0,0
1474,-42.0,2.0,48.0,1645184402.75,P15,D00,0,0,0
1475,-42.0,2.0,48.0,1645184402.78125,P15,D00,0,0,0
1476,-42.0,2.0,48.0,1645184402.8125,P15,D00,0,0,0
1477,-42.0,2.0,48.0,1645184402.84375,P15,D00,0,0,0
1478,-42.0,2.0,48.0,1645184402.875,P15,D00,0,0,0
1479,-42.0,2.0,48.0,1645184402.90625,P15,D00,0,0,0
1480,-42.0,2.0,48.0,1645184402.9375,P15,D00,0,0,0
1481,-42.0,1.0,48.0,1645184402.96875,P15,D00,0,0,0
1482,-42.0,2.0,48.0,1645184403.0,P15,D00,0,0,0
1483,-41.0,2.0,48.0,1645184403.03125,P15,D00,0,0,0
1484,-42.0,2.0,48.0,1645184403.0625,P15,D00,0,0,0
1485,-42.0,2.0,48.0,1645184403.09375,P15,D00,0,0,0
1486,-41.0,2.0,48.0,1645184403.125,P15,D00,0,0,0
1487,-41.0,2.0,48.0,1645184403.15625,P15,D00,0,0,0
1488,-42.0,2.0,48.0,1645184403.1875,P15,D00,0,0,0
1489,-42.0,2.0,48.0,1645184403.21875,P15,D00,0,0,0
1490,-41.0,2.0,48.0,1645184403.25,P15,D00,0,0,0
1491,-42.0,2.0,48.0,1645184403.28125,P15,D00,0,0,0
1492,-42.0,2.0,48.0,1645184403.3125,P15,D00,0,0,0
1493,-41.0,2.0,48.0,1645184403.34375,P15,D00,0,0,0
1494,-41.0,1.0,48.0,1645184403.375,P15,D00,0,0,0
1495,-42.0,2.0,48.0,1645184403.40625,P15,D00,0,0,0
1496,-41.0,2.0,48.0,1645184403.4375,P15,D00,0,0,0
1497,-42.0,2.0,48.0,1645184403.46875,P15,D00,0,0,0
1498,-42.0,2.0,48.0,1645184403.5,P15,D00,0,0,0
1499,-41.0,2.0,48.0,1645184403.53125,P15,D00,0,0,0
1500,-41.0,2.0,48.0,1645184403.5625,P15,D00,0,0,0
1501,-42.0,2.0,48.0,1645184403.59375,P15,D00,0,0,0
1502,-41.0,2.0,48.0,1645184403.625,P15,D00,0,0,0
1503,-42.0,2.0,48.0,1645184403.65625,P15,D00,0,0,0
1504,-41.0,2.0,48.0,1645184403.6875,P15,D00,0,0,0
1505,-42.0,2.0,48.0,1645184403.71875,P15,D00,0,0,0
1506,-41.0,2.0,48.0,1645184403.75,P15,D00,0,0,0
1507,-42.0,2.0,48.0,1645184403.78125,P15,D00,0,0,0
1508,-41.0,2.0,48.0,1645184403.8125,P15,D00,0,0,0
1509,-41.0,2.0,48.0,1645184403.84375,P15,D00,0,0,0
1510,-42.0,2.0,48.0,1645184403.875,P15,D00,0,0,0
1511,-42.0,2.0,48.0,1645184403.90625,P15,D00,0,0,0
1512,-41.0,2.0,48.0,1645184403.9375,P15,D00,0,0,0
1513,-42.0,2.0,48.0,1645184403.96875,P15,D00,0,0,0
1514,-43.0,2.0,48.0,1645184404.0,P15,D00,0,0,0
1515,-42.0,2.0,48.0,1645184404.03125,P15,D00,0,0,0
1516,-42.0,2.0,48.0,1645184404.0625,P15,D00,0,0,0
1517,-42.0,2.0,48.0,1645184404.09375,P15,D00,0,0,0
1518,-43.0,2.0,47.0,1645184404.125,P15,D00,0,0,0
1519,-42.0,2.0,48.0,1645184404.15625,P15,D00,0,0,0
1520,-42.0,2.0,48.0,1645184404.1875,P15,D00,0,0,0
1521,-42.0,2.0,48.0,1645184404.21875,P15,D00,0,0,0
1522,-42.0,2.0,47.0,1645184404.25,P15,D00,0,0,0
1523,-42.0,2.0,47.0,1645184404.28125,P15,D00,0,0,0
1524,-42.0,2.0,48.0,1645184404.3125,P15,D00,0,0,0
1525,-42.0,2.0,48.0,1645184404.34375,P15,D00,0,0,0
1526,-42.0,2.0,48.0,1645184404.375,P15,D00,0,0,0
1527,-42.0,2.0,48.0,1645184404.40625,P15,D00,0,0,0
1528,-42.0,2.0,47.0,1645184404.4375,P15,D00,0,0,0
1529,-41.0,2.0,48.0,1645184404.46875,P15,D00,0,0,0
1530,-42.0,2.0,48.0,1645184404.5,P15,D00,0,0,0
1531,-42.0,2.0,48.0,1645184404.53125,P15,D00,0,0,0
1532,-42.0,2.0,48.0,1645184404.5625,P15,D00,0,0,0
1533,-42.0,2.0,48.0,1645184404.59375,P15,D00,0,0,0
1534,-42.0,2.0,48.0,1645184404.625,P15,D00,0,0,0
1535,-42.0,2.0,48.0,1645184404.65625,P15,D00,0,0,0
1536,-42.0,2.0,48.0,1645184404.6875,P15,D00,0,0,0
1537,-42.0,2.0,48.0,1645184404.71875,P15,D00,0,0,0
1538,-42.0,1.0,47.0,1645184404.75,P15,D00,0,0,0
1539,-42.0,2.0,48.0,1645184404.78125,P15,D00,0,0,0
1540,-41.0,2.0,48.0,1645184404.8125,P15,D00,0,0,0
1541,-42.0,2.0,48.0,1645184404.84375,P15,D00,0,0,0
1542,-42.0,2.0,48.0,1645184404.875,P15,D00,0,0,0
1543,-42.0,1.0,48.0,1645184404.90625,P15,D00,0,0,0
1544,-42.0,2.0,47.0,1645184404.9375,P15,D00,0,0,0
1545,-42.0,2.0,48.0,1645184404.96875,P15,D00,0,0,0
1546,-42.0,2.0,48.0,1645184405.0,P15,D00,0,0,0
1547,-42.0,2.0,48.0,1645184405.03125,P15,D00,0,0,0
1548,-42.0,2.0,48.0,1645184405.0625,P15,D00,0,0,0
1549,-41.0,2.0,48.0,1645184405.09375,P15,D00,0,0,0
1550,-42.0,2.0,48.0,1645184405.125,P15,D00,0,0,0
1551,-42.0,1.0,48.0,1645184405.15625,P15,D00,0,0,0
1552,-42.0,2.0,48.0,1645184405.1875,P15,D00,0,0,0
1553,-42.0,2.0,47.0,1645184405.21875,P15,D00,0,0,0
1554,-42.0,2.0,48.0,1645184405.25,P15,D00,0,0,0
1555,-42.0,2.0,48.0,1645184405.28125,P15,D00,0,0,0
1556,-42.0,1.0,48.0,1645184405.3125,P15,D00,0,0,0
1557,-42.0,2.0,48.0,1645184405.34375,P15,D00,0,0,0
1558,-42.0,1.0,48.0,1645184405.375,P15,D00,0,0,0
1559,-42.0,2.0,48.0,1645184405.40625,P15,D00,0,0,0
1560,-41.0,2.0,48.0,1645184405.4375,P15,D00,0,0,0
1561,-42.0,2.0,48.0,1645184405.46875,P15,D00,0,0,0
1562,-42.0,2.0,47.0,1645184405.5,P15,D00,0,0,0
1563,-42.0,2.0,48.0,1645184405.53125,P15,D00,0,0,0
1564,-41.0,2.0,48.0,1645184405.5625,P15,D00,0,0,0
1565,-42.0,2.0,48.0,1645184405.59375,P15,D00,0,0,0
1566,-42.0,2.0,48.0,1645184405.625,P15,D00,0,0,0
1567,-42.0,2.0,48.0,1645184405.65625,P15,D00,0,0,0
1568,-42.0,2.0,48.0,1645184405.6875,P15,D00,0,0,0
1569,-42.0,2.0,48.0,1645184405.71875,P15,D00,0,0,0
1570,-41.0,2.0,48.0,1645184405.75,P15,D00,0,0,0
1571,-42.0,2.0,48.0,1645184405.78125,P15,D00,0,0,0
1572,-43.0,2.0,47.0,1645184405.8125,P15,D00,0,0,0
1573,-42.0,2.0,48.0,1645184405.84375,P15,D00,0,0,0
1574,-42.0,2.0,48.0,1645184405.875,P15,D00,0,0,0
1575,-42.0,2.0,48.0,1645184405.90625,P15,D00,0,0,0
1576,-41.0,2.0,48.0,1645184405.9375,P15,D00,0,0,0
1577,-42.0,2.0,48.0,1645184405.96875,P15,D00,0,0,0
1578,-42.0,2.0,48.0,1645184406.0,P15,D00,0,0,0
1579,-41.0,2.0,48.0,1645184406.03125,P15,D00,0,0,0
1580,-42.0,2.0,48.0,1645184406.0625,P15,D00,0,0,0
1581,-42.0,2.0,48.0,1645184406.09375,P15,D00,0,0,0
1582,-42.0,2.0,48.0,1645184406.125,P15,D00,0,0,0
1583,-41.0,2.0,48.0,1645184406.15625,P15,D00,0,0,0
1584,-42.0,2.0,48.0,1645184406.1875,P15,D00,0,0,0
1585,-41.0,2.0,48.0,1645184406.21875,P15,D00,0,0,0
1586,-41.0,2.0,48.0,1645184406.25,P15,D00,0,0,0
1587,-42.0,2.0,48.0,1645184406.28125,P15,D00,0,0,0
1588,-42.0,2.0,48.0,1645184406.3125,P15,D00,0,0,0
1589,-42.0,2.0,48.0,1645184406.34375,P15,D00,0,0,0
1590,-42.0,2.0,48.0,1645184406.375,P15,D00,0,0,0
1591,-42.0,2.0,48.0,1645184406.40625,P15,D00,0,0,0
1592,-42.0,1.0,48.0,1645184406.4375,P15,D00,0,0,0
1593,-43.0,2.0,47.0,1645184406.46875,P15,D00,0,0,0
1594,-41.0,2.0,48.0,1645184406.5,P15,D00,0,0,0
1595,-41.0,2.0,48.0,1645184406.53125,P15,D00,0,0,0
1596,-41.0,2.0,48.0,1645184406.5625,P15,D00,0,0,0
1597,-42.0,1.0,48.0,1645184406.59375,P15,D00,0,0,0
1598,-42.0,2.0,47.0,1645184406.625,P15,D00,0,0,0
1599,-41.0,2.0,48.0,1645184406.65625,P15,D00,0,0,0
1600,-41.0,2.0,48.0,1645184406.6875,P15,D00,0,0,0
1601,-42.0,1.0,48.0,1645184406.71875,P15,D00,0,0,0
1602,-42.0,2.0,48.0,1645184406.75,P15,D00,0,0,0
1603,-42.0,2.0,48.0,1645184406.78125,P15,D00,0,0,0
1604,-42.0,2.0,48.0,1645184406.8125,P15,D00,0,0,0
1605,-40.0,2.0,48.0,1645184406.84375,P15,D00,0,0,0
1606,-41.0,2.0,48.0,1645184406.875,P15,D00,0,0,0
1607,-43.0,1.0,48.0,1645184406.90625,P15,D00,0,0,0
1608,-43.0,2.0,47.0,1645184406.9375,P15,D00,0,0,0
1609,-41.0,2.0,48.0,1645184406.96875,P15,D00,0,0,0
1610,-41.0,2.0,48.0,1645184407.0,P15,D00,0,0,0
1611,-42.0,2.0,48.0,1645184407.03125,P15,D00,0,0,0
1612,-42.0,2.0,48.0,1645184407.0625,P15,D00,0,0,0
1613,-42.0,2.0,48.0,1645184407.09375,P15,D00,0,0,0
1614,-41.0,2.0,48.0,1645184407.125,P15,D00,0,0,0
1615,-41.0,2.0,48.0,1645184407.15625,P15,D00,0,0,0
1616,-42.0,2.0,48.0,1645184407.1875,P15,D00,0,0,0
1617,-42.0,2.0,48.0,1645184407.21875,P15,D00,0,0,0
1618,-42.0,2.0,48.0,1645184407.25,P15,D00,0,0,0
1619,-41.0,2.0,48.0,1645184407.28125,P15,D00,0,0,0
1620,-42.0,2.0,48.0,1645184407.3125,P15,D00,0,0,0
1621,-42.0,2.0,48.0,1645184407.34375,P15,D00,0,0,0
1622,-42.0,2.0,48.0,1645184407.375,P15,D00,0,0,0
1623,-42.0,2.0,48.0,1645184407.40625,P15,D00,0,0,0
1624,-41.0,2.0,48.0,1645184407.4375,P15,D00,0,0,0
1625,-41.0,2.0,48.0,1645184407.46875,P15,D00,0,0,0
1626,-41.0,2.0,48.0,1645184407.5,P15,D00,0,0,0
1627,-42.0,2.0,48.0,1645184407.53125,P15,D00,0,0,0
1628,-42.0,2.0,48.0,1645184407.5625,P15,D00,0,0,0
1629,-43.0,2.0,47.0,1645184407.59375,P15,D00,0,0,0
1630,-41.0,1.0,48.0,1645184407.625,P15,D00,0,0,0
1631,-42.0,2.0,48.0,1645184407.65625,P15,D00,0,0,0
1632,-43.0,2.0,47.0,1645184407.6875,P15,D00,0,0,0
1633,-41.0,1.0,48.0,1645184407.71875,P15,D00,0,0,0
1634,-42.0,2.0,48.0,1645184407.75,P15,D00,0,0,0
1635,-41.0,1.0,48.0,1645184407.78125,P15,D00,0,0,0
1636,-43.0,2.0,47.0,1645184407.8125,P15,D00,0,0,0
1637,-41.0,2.0,48.0,1645184407.84375,P15,D00,0,0,0
1638,-42.0,2.0,48.0,1645184407.875,P15,D00,0,0,0
1639,-42.0,1.0,47.0,1645184407.90625,P15,D00,0,0,0
1640,-41.0,2.0,48.0,1645184407.9375,P15,D00,0,0,0
1641,-42.0,2.0,48.0,1645184407.96875,P15,D00,0,0,0
1642,-42.0,2.0,48.0,1645184408.0,P15,D00,0,0,0
1643,-42.0,2.0,48.0,1645184408.03125,P15,D00,0,0,0
1644,-42.0,2.0,48.0,1645184408.0625,P15,D00,0,0,0
1645,-42.0,2.0,48.0,1645184408.09375,P15,D00,0,0,0
1646,-42.0,2.0,48.0,1645184408.125,P15,D00,0,0,0
1647,-42.0,2.0,48.0,1645184408.15625,P15,D00,0,0,0
1648,-42.0,2.0,48.0,1645184408.1875,P15,D00,0,0,0
1649,-42.0,2.0,48.0,1645184408.21875,P15,D00,0,0,0
1650,-42.0,1.0,47.0,1645184408.25,P15,D00,0,0,0
1651,-42.0,2.0,48.0,1645184408.28125,P15,D00,0,0,0
1652,-42.0,1.0,48.0,1645184408.3125,P15,D00,0,0,0
1653,-42.0,2.0,48.0,1645184408.34375,P15,D00,0,0,0
1654,-42.0,1.0,48.0,1645184408.375,P15,D00,0,0,0
1655,-42.0,1.0,48.0,1645184408.40625,P15,D00,0,0,0
1656,-42.0,2.0,48.0,1645184408.4375,P15,D00,0,0,0
1657,-42.0,2.0,48.0,1645184408.46875,P15,D00,0,0,0
1658,-42.0,2.0,48.0,1645184408.5,P15,D00,0,0,0
1659,-42.0,2.0,48.0,1645184408.53125,P15,D00,0,0,0
1660,-42.0,1.0,48.0,1645184408.5625,P15,D00,0,0,0
1661,-42.0,2.0,47.0,1645184408.59375,P15,D00,0,0,0
1662,-41.0,2.0,48.0,1645184408.625,P15,D00,0,0,0
1663,-42.0,2.0,48.0,1645184408.65625,P15,D00,0,0,0
1664,-42.0,1.0,48.0,1645184408.6875,P15,D00,0,0,0
1665,-42.0,1.0,48.0,1645184408.71875,P15,D00,0,0,0
1666,-42.0,2.0,48.0,1645184408.75,P15,D00,0,0,0
1667,-41.0,2.0,48.0,1645184408.78125,P15,D00,0,0,0
1668,-42.0,1.0,48.0,1645184408.8125,P15,D00,0,0,0
1669,-42.0,2.0,48.0,1645184408.84375,P15,D00,0,0,0
1670,-42.0,2.0,48.0,1645184408.875,P15,D00,0,0,0
1671,-42.0,2.0,48.0,1645184408.90625,P15,D00,0,0,0
1672,-42.0,2.0,48.0,1645184408.9375,P15,D00,0,0,0
1673,-42.0,2.0,48.0,1645184408.96875,P15,D00,0,0,0
1674,-42.0,2.0,48.0,1645184409.0,P15,D00,0,0,0
1675,-42.0,2.0,48.0,1645184409.03125,P15,D00,0,0,0
1676,-42.0,2.0,48.0,1645184409.0625,P15,D00,0,0,0
1677,-42.0,2.0,48.0,1645184409.09375,P15,D00,0,0,0
1678,-42.0,1.0,48.0,1645184409.125,P15,D00,0,0,0
1679,-42.0,2.0,47.0,1645184409.15625,P15,D00,0,0,0
1680,-42.0,2.0,48.0,1645184409.1875,P15,D00,0,0,0
1681,-42.0,2.0,48.0,1645184409.21875,P15,D00,0,0,0
1682,-42.0,1.0,48.0,1645184409.25,P15,D00,0,0,0
1683,-42.0,2.0,48.0,1645184409.28125,P15,D00,0,0,0
1684,-42.0,2.0,48.0,1645184409.3125,P15,D00,0,0,0
1685,-42.0,2.0,48.0,1645184409.34375,P15,D00,0,0,0
1686,-41.0,2.0,48.0,1645184409.375,P15,D00,0,0,0
1687,-41.0,2.0,48.0,1645184409.40625,P15,D00,0,0,0
1688,-42.0,2.0,48.0,1645184409.4375,P15,D00,0,0,0
1689,-42.0,2.0,48.0,1645184409.46875,P15,D00,0,0,0
1690,-41.0,2.0,49.0,1645184409.5,P15,D00,0,0,0
1691,-42.0,1.0,48.0,1645184409.53125,P15,D00,0,0,0
1692,-41.0,2.0,48.0,1645184409.5625,P15,D00,0,0,0
1693,-41.0,1.0,48.0,1645184409.59375,P15,D00,0,0,0
1694,-42.0,2.0,47.0,1645184409.625,P15,D00,0,0,0
1695,-42.0,2.0,48.0,1645184409.65625,P15,D00,0,0,0
1696,-42.0,2.0,48.0,1645184409.6875,P15,D00,0,0,0
1697,-42.0,2.0,48.0,1645184409.71875,P15,D00,0,0,0
1698,-42.0,2.0,48.0,1645184409.75,P15,D00,0,0,0
1699,-42.0,2.0,47.0,1645184409.78125,P15,D00,0,0,0
1700,-42.0,2.0,48.0,1645184409.8125,P15,D00,0,0,0
1701,-43.0,2.0,47.0,1645184409.84375,P15,D00,0,0,0
1702,-43.0,1.0,47.0,1645184409.875,P15,D00,0,0,0
1703,-42.0,2.0,48.0,1645184409.90625,P15,D00,0,0,0
1704,-42.0,1.0,48.0,1645184409.9375,P15,D00,0,0,0
1705,-43.0,1.0,47.0,1645184409.96875,P15,D00,0,0,0
1706,-42.0,2.0,48.0,1645184410.0,P15,D00,0,0,0
1707,-41.0,2.0,48.0,1645184410.03125,P15,D00,0,0,0
1708,-43.0,2.0,47.0,1645184410.0625,P15,D00,0,0,0
1709,-43.0,2.0,47.0,1645184410.09375,P15,D00,0,0,0
1710,-42.0,2.0,48.0,1645184410.125,P15,D00,0,0,0
1711,-42.0,2.0,48.0,1645184410.15625,P15,D00,0,0,0
1712,-42.0,1.0,48.0,1645184410.1875,P15,D00,0,0,0
1713,-42.0,2.0,48.0,1645184410.21875,P15,D00,0,0,0
1714,-41.0,2.0,48.0,1645184410.25,P15,D00,0,0,0
1715,-42.0,2.0,48.0,1645184410.28125,P15,D00,0,0,0
1716,-43.0,1.0,47.0,1645184410.3125,P15,D00,0,0,0
1717,-41.0,2.0,48.0,1645184410.34375,P15,D00,0,0,0
1718,-42.0,2.0,48.0,1645184410.375,P15,D00,0,0,0
1719,-42.0,2.0,47.0,1645184410.40625,P15,D00,0,0,0
1720,-42.0,2.0,48.0,1645184410.4375,P15,D00,0,0,0
1721,-42.0,2.0,47.0,1645184410.46875,P15,D00,0,0,0
1722,-44.0,1.0,48.0,1645184410.5,P15,D00,0,0,0
1723,-43.0,2.0,47.0,1645184410.53125,P15,D00,0,0,0
1724,-41.0,2.0,48.0,1645184410.5625,P15,D00,0,0,0
1725,-43.0,2.0,47.0,1645184410.59375,P15,D00,0,0,0
1726,-43.0,1.0,47.0,1645184410.625,P15,D00,0,0,0
1727,-42.0,2.0,48.0,1645184410.65625,P15,D00,0,0,0
1728,-42.0,1.0,47.0,1645184410.6875,P15,D00,0,0,0
1729,-42.0,2.0,48.0,1645184410.71875,P15,D00,0,0,0
1730,-42.0,2.0,48.0,1645184410.75,P15,D00,0,0,0
1731,-42.0,2.0,48.0,1645184410.78125,P15,D00,0,0,0
1732,-43.0,2.0,47.0,1645184410.8125,P15,D00,0,0,0
1733,-42.0,2.0,48.0,1645184410.84375,P15,D00,0,0,0
1734,-42.0,2.0,48.0,1645184410.875,P15,D00,0,0,0
1735,-42.0,2.0,47.0,1645184410.90625,P15,D00,0,0,0
1736,-42.0,2.0,47.0,1645184410.9375,P15,D00,0,0,0
1737,-42.0,2.0,48.0,1645184410.96875,P15,D00,0,0,0
1738,-42.0,2.0,47.0,1645184411.0,P15,D00,0,0,0
1739,-42.0,1.0,48.0,1645184411.03125,P15,D00,0,0,0
1740,-42.0,2.0,48.0,1645184411.0625,P15,D00,0,0,0
1741,-42.0,2.0,48.0,1645184411.09375,P15,D00,0,0,0
1742,-42.0,2.0,47.0,1645184411.125,P15,D00,0,0,0
1743,-42.0,2.0,47.0,1645184411.15625,P15,D00,0,0,0
1744,-42.0,2.0,47.0,1645184411.1875,P15,D00,0,0,0
1745,-42.0,2.0,47.0,1645184411.21875,P15,D00,0,0,0
1746,-43.0,2.0,47.0,1645184411.25,P15,D00,0,0,0
1747,-41.0,2.0,48.0,1645184411.28125,P15,D00,0,0,0
1748,-42.0,2.0,48.0,1645184411.3125,P15,D00,0,0,0
1749,-43.0,2.0,48.0,1645184411.34375,P15,D00,0,0,0
1750,-42.0,2.0,47.0,1645184411.375,P15,D00,0,0,0
1751,-42.0,2.0,48.0,1645184411.40625,P15,D00,0,0,0
1752,-42.0,2.0,47.0,1645184411.4375,P15,D00,0,0,0
1753,-42.0,2.0,47.0,1645184411.46875,P15,D00,0,0,0
1754,-42.0,2.0,48.0,1645184411.5,P15,D00,0,0,0
1755,-42.0,2.0,48.0,1645184411.53125,P15,D00,0,0,0
1756,-43.0,2.0,47.0,1645184411.5625,P15,D00,0,0,0
1757,-43.0,2.0,47.0,1645184411.59375,P15,D00,0,0,0
1758,-41.0,2.0,48.0,1645184411.625,P15,D00,0,0,0
1759,-42.0,2.0,48.0,1645184411.65625,P15,D00,0,0,0
1760,-43.0,2.0,47.0,1645184411.6875,P15,D00,0,0,0
1761,-42.0,2.0,48.0,1645184411.71875,P15,D00,0,0,0
1762,-42.0,2.0,48.0,1645184411.75,P15,D00,0,0,0
1763,-42.0,2.0,47.0,1645184411.78125,P15,D00,0,0,0
1764,-42.0,2.0,48.0,1645184411.8125,P15,D00,0,0,0
1765,-42.0,2.0,48.0,1645184411.84375,P15,D00,0,0,0
1766,-42.0,2.0,48.0,1645184411.875,P15,D00,0,0,0
1767,-42.0,2.0,47.0,1645184411.90625,P15,D00,0,0,0
1768,-42.0,2.0,47.0,1645184411.9375,P15,D00,0,0,0
1769,-42.0,1.0,47.0,1645184411.96875,P15,D00,0,0,0
1770,-42.0,2.0,47.0,1645184412.0,P15,D00,0,0,0
1771,-42.0,2.0,48.0,1645184412.03125,P15,D00,0,0,0
1772,-42.0,2.0,48.0,1645184412.0625,P15,D00,0,0,0
1773,-42.0,2.0,47.0,1645184412.09375,P15,D00,0,0,0
1774,-42.0,2.0,47.0,1645184412.125,P15,D00,0,0,0
1775,-42.0,2.0,47.0,1645184412.15625,P15,D00,0,0,0
1776,-42.0,2.0,48.0,1645184412.1875,P15,D00,0,0,0
1777,-42.0,2.0,47.0,1645184412.21875,P15,D00,0,0,0
1778,-42.0,2.0,47.0,1645184412.25,P15,D00,0,0,0
1779,-42.0,2.0,48.0,1645184412.28125,P15,D00,0,0,0
1780,-42.0,2.0,47.0,1645184412.3125,P15,D00,0,0,0
1781,-42.0,2.0,47.0,1645184412.34375,P15,D00,0,0,0
1782,-42.0,2.0,47.0,1645184412.375,P15,D00,0,0,0
1783,-42.0,2.0,47.0,1645184412.40625,P15,D00,0,0,0
1784,-42.0,1.0,48.0,1645184412.4375,P15,D00,0,0,0
1785,-42.0,2.0,47.0,1645184412.46875,P15,D00,0,0,0
1786,-42.0,2.0,47.0,1645184412.5,P15,D00,0,0,0
1787,-42.0,1.0,48.0,1645184412.53125,P15,D00,0,0,0
1788,-43.0,2.0,47.0,1645184412.5625,P15,D00,0,0,0
1789,-42.0,2.0,47.0,1645184412.59375,P15,D00,0,0,0
1790,-42.0,2.0,48.0,1645184412.625,P15,D00,0,0,0
1791,-44.0,2.0,47.0,1645184412.65625,P15,D00,0,0,0
1792,-43.0,2.0,47.0,1645184412.6875,P15,D00,0,0,0
1793,-42.0,2.0,48.0,1645184412.71875,P15,D00,0,0,0
1794,-42.0,2.0,48.0,1645184412.75,P15,D00,0,0,0
1795,-42.0,2.0,47.0,1645184412.78125,P15,D00,0,0,0
1796,-43.0,2.0,47.0,1645184412.8125,P15,D00,0,0,0
1797,-42.0,2.0,48.0,1645184412.84375,P15,D00,0,0,0
1798,-43.0,2.0,47.0,1645184412.875,P15,D00,0,0,0
1799,-43.0,2.0,47.0,1645184412.90625,P15,D00,0,0,0
1800,-42.0,2.0,47.0,1645184412.9375,P15,D00,0,0,0
1801,-42.0,2.0,47.0,1645184412.96875,P15,D00,0,0,0
1802,-42.0,2.0,48.0,1645184413.0,P15,D00,0,0,0
1803,-42.0,2.0,48.0,1645184413.03125,P15,D00,0,0,0
1804,-42.0,2.0,47.0,1645184413.0625,P15,D00,0,0,0
1805,-42.0,2.0,48.0,1645184413.09375,P15,D00,0,0,0
1806,-42.0,2.0,47.0,1645184413.125,P15,D00,0,0,0
1807,-42.0,2.0,48.0,1645184413.15625,P15,D00,0,0,0
1808,-42.0,2.0,48.0,1645184413.1875,P15,D00,0,0,0
1809,-42.0,2.0,47.0,1645184413.21875,P15,D00,0,0,0
1810,-42.0,2.0,47.0,1645184413.25,P15,D00,0,0,0
1811,-43.0,2.0,48.0,1645184413.28125,P15,D00,0,0,0
1812,-43.0,2.0,47.0,1645184413.3125,P15,D00,0,0,0
1813,-42.0,2.0,48.0,1645184413.34375,P15,D00,0,0,0
1814,-42.0,2.0,48.0,1645184413.375,P15,D00,0,0,0
1815,-42.0,2.0,47.0,1645184413.40625,P15,D00,0,0,0
1816,-42.0,2.0,47.0,1645184413.4375,P15,D00,0,0,0
1817,-42.0,2.0,47.0,1645184413.46875,P15,D00,0,0,0
1818,-42.0,2.0,47.0,1645184413.5,P15,D00,0,0,0
1819,-42.0,2.0,47.0,1645184413.53125,P15,D00,0,0,0
1820,-42.0,1.0,48.0,1645184413.5625,P15,D00,0,0,0
1821,-42.0,2.0,47.0,1645184413.59375,P15,D00,0,0,0
1822,-42.0,2.0,48.0,1645184413.625,P15,D00,0,0,0
1823,-42.0,2.0,47.0,1645184413.65625,P15,D00,0,0,0
1824,-43.0,2.0,47.0,1645184413.6875,P15,D00,0,0,0
1825,-42.0,2.0,48.0,1645184413.71875,P15,D00,0,0,0
1826,-42.0,2.0,47.0,1645184413.75,P15,D00,0,0,0
1827,-42.0,1.0,47.0,1645184413.78125,P15,D00,0,0,0
1828,-42.0,2.0,48.0,1645184413.8125,P15,D00,0,0,0
1829,-42.0,2.0,47.0,1645184413.84375,P15,D00,0,0,0
1830,-42.0,2.0,47.0,1645184413.875,P15,D00,0,0,0
1831,-42.0,2.0,47.0,1645184413.90625,P15,D00,0,0,0
1832,-42.0,1.0,47.0,1645184413.9375,P15,D00,0,0,0
1833,-42.0,2.0,48.0,1645184413.96875,P15,D00,0,0,0
1834,-42.0,1.0,48.0,1645184414.0,P15,D00,0,0,0
1835,-42.0,1.0,48.0,1645184414.03125,P15,D00,0,0,0
1836,-43.0,2.0,47.0,1645184414.0625,P15,D00,0,0,0
1837,-42.0,2.0,48.0,1645184414.09375,P15,D00,0,0,0
1838,-42.0,2.0,48.0,1645184414.125,P15,D00,0,0,0
1839,-42.0,1.0,48.0,1645184414.15625,P15,D00,0,0,0
1840,-42.0,2.0,47.0,1645184414.1875,P15,D00,0,0,0
1841,-42.0,2.0,48.0,1645184414.21875,P15,D00,0,0,0
1842,-42.0,2.0,48.0,1645184414.25,P15,D00,0,0,0
1843,-42.0,2.0,48.0,1645184414.28125,P15,D00,0,0,0
1844,-42.0,2.0,48.0,1645184414.3125,P15,D00,0,0,0
1845,-42.0,2.0,48.0,1645184414.34375,P15,D00,0,0,0
1846,-42.0,2.0,48.0,1645184414.375,P15,D00,0,0,0
1847,-42.0,2.0,48.0,1645184414.40625,P15,D00,0,0,0
1848,-43.0,2.0,47.0,1645184414.4375,P15,D00,0,0,0
1849,-42.0,2.0,47.0,1645184414.46875,P15,D00,0,0,0
1850,-42.0,2.0,48.0,1645184414.5,P15,D00,0,0,0
1851,-43.0,2.0,48.0,1645184414.53125,P15,D00,0,0,0
1852,-42.0,2.0,48.0,1645184414.5625,P15,D00,0,0,0
1853,-43.0,2.0,47.0,1645184414.59375,P15,D00,0,0,0
1854,-42.0,1.0,47.0,1645184414.625,P15,D00,0,0,0
1855,-42.0,2.0,48.0,1645184414.65625,P15,D00,0,0,0
1856,-42.0,2.0,47.0,1645184414.6875,P15,D00,0,0,0
1857,-42.0,2.0,48.0,1645184414.71875,P15,D00,0,0,0
1858,-42.0,2.0,48.0,1645184414.75,P15,D00,0,0,0
1859,-42.0,2.0,47.0,1645184414.78125,P15,D00,0,0,0
1860,-42.0,2.0,48.0,1645184414.8125,P15,D00,0,0,0
1861,-42.0,2.0,48.0,1645184414.84375,P15,D00,0,0,0
1862,-42.0,2.0,48.0,1645184414.875,P15,D00,0,0,0
1863,-42.0,2.0,48.0,1645184414.90625,P15,D00,0,0,0
1864,-42.0,2.0,47.0,1645184414.9375,P15,D00,0,0,0
1865,-42.0,2.0,48.0,1645184414.96875,P15,D00,0,0,0
1866,-42.0,2.0,47.0,1645184415.0,P15,D00,0,0,0
1867,-42.0,2.0,48.0,1645184415.03125,P15,D00,0,0,0
1868,-42.0,2.0,48.0,1645184415.0625,P15,D00,0,0,0
1869,-42.0,2.0,48.0,1645184415.09375,P15,D00,0,0,0
1870,-42.0,2.0,47.0,1645184415.125,P15,D00,0,0,0
1871,-42.0,2.0,48.0,1645184415.15625,P15,D00,0,0,0
1872,-42.0,2.0,48.0,1645184415.1875,P15,D00,0,0,0
1873,-42.0,1.0,48.0,1645184415.21875,P15,D00,0,0,0
1874,-42.0,2.0,48.0,1645184415.25,P15,D00,0,0,0
1875,-42.0,2.0,48.0,1645184415.28125,P15,D00,0,0,0
1876,-42.0,2.0,47.0,1645184415.3125,P15,D00,0,0,0
1877,-42.0,2.0,48.0,1645184415.34375,P15,D00,0,0,0
1878,-42.0,2.0,48.0,1645184415.375,P15,D00,0,0,0
1879,-43.0,2.0,47.0,1645184415.40625,P15,D00,0,0,0
1880,-42.0,2.0,48.0,1645184415.4375,P15,D00,0,0,0
1881,-42.0,2.0,48.0,1645184415.46875,P15,D00,0,0,0
1882,-43.0,2.0,47.0,1645184415.5,P15,D00,0,0,0
1883,-42.0,2.0,48.0,1645184415.53125,P15,D00,0,0,0
1884,-42.0,2.0,48.0,1645184415.5625,P15,D00,0,0,0
1885,-42.0,2.0,47.0,1645184415.59375,P15,D00,0,0,0
1886,-42.0,2.0,48.0,1645184415.625,P15,D00,0,0,0
1887,-43.0,2.0,47.0,1645184415.65625,P15,D00,0,0,0
1888,-42.0,2.0,48.0,1645184415.6875,P15,D00,0,0,0
1889,-42.0,2.0,47.0,1645184415.71875,P15,D00,0,0,0
1890,-42.0,2.0,48.0,1645184415.75,P15,D00,0,0,0
1891,-42.0,2.0,48.0,1645184415.78125,P15,D00,0,0,0
1892,-43.0,2.0,47.0,1645184415.8125,P15,D00,0,0,0
1893,-42.0,2.0,47.0,1645184415.84375,P15,D00,0,0,0
1894,-42.0,2.0,48.0,1645184415.875,P15,D00,0,0,0
1895,-43.0,2.0,47.0,1645184415.90625,P15,D00,0,0,0
1896,-42.0,2.0,48.0,1645184415.9375,P15,D00,0,0,0
1897,-42.0,2.0,47.0,1645184415.96875,P15,D00,0,0,0
1898,-42.0,2.0,47.0,1645184416.0,P15,D00,0,0,0
1899,-42.0,2.0,47.0,1645184416.03125,P15,D00,0,0,0
1900,-42.0,2.0,48.0,1645184416.0625,P15,D00,0,0,0
1901,-42.0,2.0,48.0,1645184416.09375,P15,D00,0,0,0
1902,-42.0,2.0,47.0,1645184416.125,P15,D00,0,0,0
1903,-42.0,2.0,48.0,1645184416.15625,P15,D00,0,0,0
1904,-42.0,2.0,47.0,1645184416.1875,P15,D00,0,0,0
1905,-42.0,2.0,47.0,1645184416.21875,P15,D00,0,0,0
1906,-42.0,2.0,48.0,1645184416.25,P15,D00,0,0,0
1907,-42.0,2.0,47.0,1645184416.28125,P15,D00,0,0,0
1908,-43.0,2.0,48.0,1645184416.3125,P15,D00,0,0,0
1909,-42.0,2.0,47.0,1645184416.34375,P15,D00,0,0,0
1910,-42.0,2.0,47.0,1645184416.375,P15,D00,0,0,0
1911,-42.0,2.0,47.0,1645184416.40625,P15,D00,0,0,0
1912,-42.0,2.0,47.0,1645184416.4375,P15,D00,0,0,0
1913,-43.0,2.0,47.0,1645184416.46875,P15,D00,0,0,0
1914,-42.0,2.0,48.0,1645184416.5,P15,D00,0,0,0
1915,-42.0,2.0,47.0,1645184416.53125,P15,D00,0,0,0
1916,-42.0,2.0,47.0,1645184416.5625,P15,D00,0,0,0
1917,-42.0,2.0,48.0,1645184416.59375,P15,D00,0,0,0
1918,-42.0,2.0,47.0,1645184416.625,P15,D00,0,0,0
1919,-42.0,2.0,47.0,1645184416.65625,P15,D00,0,0,0
1920,-44.0,2.0,47.0,1645184416.6875,P15,D00,0,0,0
1921,-42.0,2.0,48.0,1645184416.71875,P15,D00,0,0,0
1922,-41.0,2.0,48.0,1645184416.75,P15,D00,0,0,0
1923,-43.0,2.0,47.0,1645184416.78125,P15,D00,0,0,0
1924,-43.0,2.0,47.0,1645184416.8125,P15,D00,0,0,0
1925,-42.0,2.0,48.0,1645184416.84375,P15,D00,0,0,0
1926,-42.0,1.0,48.0,1645184416.875,P15,D00,0,0,0
1927,-42.0,2.0,47.0,1645184416.90625,P15,D00,0,0,0
1928,-42.0,2.0,48.0,1645184416.9375,P15,D00,0,0,0
1929,-42.0,2.0,47.0,1645184416.96875,P15,D00,0,0,0
1930,-42.0,1.0,47.0,1645184417.0,P15,D00,0,0,0
1931,-42.0,2.0,47.0,1645184417.03125,P15,D00,0,0,0
1932,-42.0,2.0,47.0,1645184417.0625,P15,D00,0,0,0
1933,-43.0,2.0,47.0,1645184417.09375,P15,D00,0,0,0
1934,-42.0,2.0,48.0,1645184417.125,P15,D00,0,0,0
1935,-42.0,2.0,47.0,1645184417.15625,P15,D00,0,0,0
1936,-43.0,2.0,47.0,1645184417.1875,P15,D00,0,0,0
1937,-42.0,2.0,48.0,1645184417.21875,P15,D00,0,0,0
1938,-42.0,2.0,48.0,1645184417.25,P15,D00,0,0,0
1939,-42.0,2.0,47.0,1645184417.28125,P15,D00,0,0,0
1940,-42.0,2.0,47.0,1645184417.3125,P15,D00,0,0,0
1941,-42.0,2.0,47.0,1645184417.34375,P15,D00,0,0,0
1942,-42.0,2.0,48.0,1645184417.375,P15,D00,0,0,0
1943,-42.0,2.0,47.0,1645184417.40625,P15,D00,0,0,0
1944,-42.0,1.0,47.0,1645184417.4375,P15,D00,0,0,0
1945,-42.0,2.0,48.0,1645184417.46875,P15,D00,0,0,0
1946,-43.0,2.0,47.0,1645184417.5,P15,D00,0,0,0
1947,-42.0,2.0,48.0,1645184417.53125,P15,D00,0,0,0
1948,-43.0,2.0,48.0,1645184417.5625,P15,D00,0,0,0
1949,-43.0,2.0,47.0,1645184417.59375,P15,D00,0,0,0
1950,-42.0,2.0,48.0,1645184417.625,P15,D00,0,0,0
1951,-42.0,1.0,48.0,1645184417.65625,P15,D00,0,0,0
1952,-43.0,2.0,47.0,1645184417.6875,P15,D00,0,0,0
1953,-42.0,2.0,48.0,1645184417.71875,P15,D00,0,0,0
1954,-42.0,2.0,48.0,1645184417.75,P15,D00,0,0,0
1955,-43.0,2.0,47.0,1645184417.78125,P15,D00,0,0,0
1956,-42.0,2.0,48.0,1645184417.8125,P15,D00,0,0,0
1957,-42.0,2.0,48.0,1645184417.84375,P15,D00,0,0,0
1958,-43.0,2.0,47.0,1645184417.875,P15,D00,0,0,0
1959,-42.0,2.0,47.0,1645184417.90625,P15,D00,0,0,0
1960,-42.0,2.0,48.0,1645184417.9375,P15,D00,0,0,0
1961,-42.0,2.0,48.0,1645184417.96875,P15,D00,0,0,0
1962,-42.0,2.0,47.0,1645184418.0,P15,D00,0,0,0
1963,-42.0,2.0,48.0,1645184418.03125,P15,D00,0,0,0
1964,-42.0,2.0,48.0,1645184418.0625,P15,D00,0,0,0
1965,-42.0,2.0,48.0,1645184418.09375,P15,D00,0,0,0
1966,-42.0,2.0,48.0,1645184418.125,P15,D00,0,0,0
1967,-42.0,2.0,48.0,1645184418.15625,P15,D00,0,0,0
1968,-42.0,2.0,48.0,1645184418.1875,P15,D00,0,0,0
1969,-42.0,2.0,47.0,1645184418.21875,P15,D00,0,0,0
1970,-42.0,2.0,48.0,1645184418.25,P15,D00,0,0,0
1971,-42.0,2.0,47.0,1645184418.28125,P15,D00,0,0,0
1972,-42.0,2.0,48.0,1645184418.3125,P15,D00,0,0,0
1973,-42.0,2.0,48.0,1645184418.34375,P15,D00,0,0,0
1974,-42.0,2.0,48.0,1645184418.375,P15,D00,0,0,0
1975,-42.0,2.0,48.0,1645184418.40625,P15,D00,0,0,0
1976,-42.0,2.0,48.0,1645184418.4375,P15,D00,0,0,0
1977,-42.0,2.0,48.0,1645184418.46875,P15,D00,0,0,0
1978,-42.0,2.0,47.0,1645184418.5,P15,D00,0,0,0
1979,-42.0,2.0,47.0,1645184418.53125,P15,D00,0,0,0
1980,-42.0,2.0,48.0,1645184418.5625,P15,D00,0,0,0
1981,-42.0,2.0,48.0,1645184418.59375,P15,D00,0,0,0
1982,-43.0,2.0,47.0,1645184418.625,P15,D00,0,0,0
1983,-42.0,2.0,48.0,1645184418.65625,P15,D00,0,0,0
1984,-42.0,2.0,48.0,1645184418.6875,P15,D00,0,0,0
1985,-42.0,2.0,48.0,1645184418.71875,P15,D00,0,0,0
1986,-42.0,2.0,48.0,1645184418.75,P15,D00,0,0,0
1987,-42.0,2.0,48.0,1645184418.78125,P15,D00,0,0,0
1988,-42.0,2.0,48.0,1645184418.8125,P15,D00,0,0,0
1989,-42.0,2.0,48.0,1645184418.84375,P15,D00,0,0,0
1990,-42.0,2.0,47.0,1645184418.875,P15,D00,0,0,0
1991,-42.0,2.0,47.0,1645184418.90625,P15,D00,0,0,0
1992,-41.0,2.0,48.0,1645184418.9375,P15,D00,0,0,0
1993,-42.0,2.0,47.0,1645184418.96875,P15,D00,0,0,0
1994,-42.0,2.0,48.0,1645184419.0,P15,D00,0,0,0
1995,-41.0,2.0,48.0,1645184419.03125,P15,D00,0,0,0
1996,-42.0,2.0,48.0,1645184419.0625,P15,D00,0,0,0
1997,-43.0,2.0,47.0,1645184419.09375,P15,D00,0,0,0
1998,-43.0,2.0,47.0,1645184419.125,P15,D00,0,0,0
1999,-42.0,2.0,48.0,1645184419.15625,P15,D00,0,0,0
2000,-42.0,2.0,48.0,1645184419.1875,P15,D00,0,0,0
2001,-42.0,2.0,48.0,1645184419.21875,P15,D00,0,0,0
2002,-42.0,2.0,48.0,1645184419.25,P15,D00,0,0,0
2003,-42.0,2.0,48.0,1645184419.28125,P15,D00,0,0,0
2004,-42.0,2.0,48.0,1645184419.3125,P15,D00,0,0,0
2005,-42.0,2.0,48.0,1645184419.34375,P15,D00,0,0,0
2006,-42.0,2.0,48.0,1645184419.375,P15,D00,0,0,0
2007,-42.0,2.0,47.0,1645184419.40625,P15,D00,0,0,0
2008,-42.0,2.0,47.0,1645184419.4375,P15,D00,0,0,0
2009,-42.0,2.0,47.0,1645184419.46875,P15,D00,0,0,0
2010,-42.0,2.0,48.0,1645184419.5,P15,D00,0,0,0
2011,-43.0,2.0,48.0,1645184419.53125,P15,D00,0,0,0
2012,-43.0,2.0,47.0,1645184419.5625,P15,D00,0,0,0
2013,-42.0,2.0,48.0,1645184419.59375,P15,D00,0,0,0
2014,-42.0,2.0,48.0,1645184419.625,P15,D00,0,0,0
2015,-42.0,2.0,47.0,1645184419.65625,P15,D00,0,0,0
2016,-42.0,2.0,47.0,1645184419.6875,P15,D00,0,0,0
2017,-42.0,2.0,48.0,1645184419.71875,P15,D00,0,0,0
2018,-42.0,2.0,47.0,1645184419.75,P15,D00,0,0,0
2019,-42.0,2.0,48.0,1645184419.78125,P15,D00,0,0,0
2020,-42.0,2.0,47.0,1645184419.8125,P15,D00,0,0,0
2021,-42.0,2.0,47.0,1645184419.84375,P15,D00,0,0,0
2022,-42.0,2.0,48.0,1645184419.875,P15,D00,0,0,0
2023,-42.0,2.0,48.0,1645184419.90625,P15,D00,0,0,0
2024,-42.0,2.0,47.0,1645184419.9375,P15,D00,0,0,0
2025,-42.0,2.0,47.0,1645184419.96875,P15,D00,0,0,0
2026,-42.0,2.0,48.0,1645184420.0,P15,D00,0,0,0
2027,-42.0,2.0,48.0,1645184420.03125,P15,D00,0,0,0
2028,-42.0,1.0,48.0,1645184420.0625,P15,D00,0,0,0
2029,-42.0,2.0,48.0,1645184420.09375,P15,D00,0,0,0
2030,-42.0,2.0,48.0,1645184420.125,P15,D00,0,0,0
2031,-42.0,2.0,47.0,1645184420.15625,P15,D00,0,0,0
2032,-42.0,2.0,48.0,1645184420.1875,P15,D00,0,0,0
2033,-42.0,2.0,48.0,1645184420.21875,P15,D00,0,0,0
2034,-43.0,2.0,47.0,1645184420.25,P15,D00,0,0,0
2035,-42.0,2.0,47.0,1645184420.28125,P15,D00,0,0,0
2036,-42.0,2.0,48.0,1645184420.3125,P15,D00,0,0,0
2037,-42.0,2.0,47.0,1645184420.34375,P15,D00,0,0,0
2038,-42.0,2.0,48.0,1645184420.375,P15,D00,0,0,0
2039,-42.0,2.0,48.0,1645184420.40625,P15,D00,0,0,0
2040,-42.0,2.0,48.0,1645184420.4375,P15,D00,0,0,0
2041,-42.0,2.0,48.0,1645184420.46875,P15,D00,0,0,0
2042,-42.0,2.0,48.0,1645184420.5,P15,D00,0,0,0
2043,-43.0,2.0,47.0,1645184420.53125,P15,D00,0,0,0
2044,-42.0,2.0,47.0,1645184420.5625,P15,D00,0,0,0
2045,-42.0,2.0,47.0,1645184420.59375,P15,D00,0,0,0
2046,-42.0,2.0,47.0,1645184420.625,P15,D00,0,0,0
2047,-42.0,2.0,48.0,1645184420.65625,P15,D00,0,0,0
2048,-42.0,2.0,47.0,1645184420.6875,P15,D00,0,0,0
2049,-42.0,2.0,47.0,1645184420.71875,P15,D00,0,0,0
2050,-42.0,2.0,48.0,1645184420.75,P15,D00,0,0,0
2051,-42.0,2.0,48.0,1645184420.78125,P15,D00,0,0,0
2052,-43.0,2.0,47.0,1645184420.8125,P15,D00,0,0,0
2053,-43.0,2.0,47.0,1645184420.84375,P15,D00,0,0,0
2054,-42.0,2.0,48.0,1645184420.875,P15,D00,0,0,0
2055,-42.0,2.0,47.0,1645184420.90625,P15,D00,0,0,0
2056,-42.0,2.0,47.0,1645184420.9375,P15,D00,0,0,0
2057,-42.0,2.0,48.0,1645184420.96875,P15,D00,0,0,0
2058,-42.0,2.0,47.0,1645184421.0,P15,D00,0,0,0
2059,-42.0,2.0,47.0,1645184421.03125,P15,D00,0,0,0
2060,-42.0,2.0,47.0,1645184421.0625,P15,D00,0,0,0
2061,-42.0,2.0,48.0,1645184421.09375,P15,D00,0,0,0
2062,-42.0,2.0,47.0,1645184421.125,P15,D00,0,0,0
2063,-42.0,2.0,47.0,1645184421.15625,P15,D00,0,0,0
2064,-42.0,2.0,47.0,1645184421.1875,P15,D00,0,0,0
2065,-42.0,2.0,48.0,1645184421.21875,P15,D00,0,0,0
2066,-42.0,1.0,48.0,1645184421.25,P15,D00,0,0,0
2067,-42.0,2.0,47.0,1645184421.28125,P15,D00,0,0,0
2068,-42.0,2.0,47.0,1645184421.3125,P15,D00,0,0,0
2069,-42.0,2.0,48.0,1645184421.34375,P15,D00,0,0,0
2070,-42.0,2.0,47.0,1645184421.375,P15,D00,0,0,0
2071,-43.0,2.0,47.0,1645184421.40625,P15,D00,0,0,0
2072,-42.0,2.0,47.0,1645184421.4375,P15,D00,0,0,0
2073,-42.0,2.0,47.0,1645184421.46875,P15,D00,0,0,0
2074,-42.0,2.0,47.0,1645184421.5,P15,D00,0,0,0
2075,-42.0,2.0,48.0,1645184421.53125,P15,D00,0,0,0
2076,-43.0,2.0,47.0,1645184421.5625,P15,D00,0,0,0
2077,-42.0,2.0,48.0,1645184421.59375,P15,D00,0,0,0
2078,-42.0,2.0,48.0,1645184421.625,P15,D00,0,0,0
2079,-42.0,2.0,48.0,1645184421.65625,P15,D00,0,0,0
2080,-42.0,2.0,47.0,1645184421.6875,P15,D00,0,0,0
2081,-42.0,2.0,48.0,1645184421.71875,P15,D00,0,0,0
2082,-42.0,2.0,48.0,1645184421.75,P15,D00,0,0,0
2083,-42.0,2.0,48.0,1645184421.78125,P15,D00,0,0,0
2084,-43.0,1.0,47.0,1645184421.8125,P15,D00,0,0,0
2085,-41.0,2.0,48.0,1645184421.84375,P15,D00,0,0,0
2086,-42.0,1.0,48.0,1645184421.875,P15,D00,0,0,0
2087,-43.0,2.0,47.0,1645184421.90625,P15,D00,0,0,0
2088,-42.0,2.0,48.0,1645184421.9375,P15,D00,0,0,0
2089,-42.0,2.0,48.0,1645184421.96875,P15,D00,0,0,0
2090,-42.0,2.0,47.0,1645184422.0,P15,D00,0,0,0
2091,-42.0,2.0,47.0,1645184422.03125,P15,D00,0,0,0
2092,-42.0,2.0,48.0,1645184422.0625,P15,D00,0,0,0
2093,-42.0,2.0,48.0,1645184422.09375,P15,D00,0,0,0
2094,-42.0,2.0,48.0,1645184422.125,P15,D00,0,0,0
2095,-42.0,2.0,47.0,1645184422.15625,P15,D00,0,0,0
2096,-42.0,2.0,48.0,1645184422.1875,P15,D00,0,0,0
2097,-42.0,2.0,48.0,1645184422.21875,P15,D00,0,0,0
2098,-42.0,2.0,48.0,1645184422.25,P15,D00,0,0,0
2099,-42.0,2.0,48.0,1645184422.28125,P15,D00,0,0,0
2100,-42.0,2.0,48.0,1645184422.3125,P15,D00,0,0,0
2101,-42.0,2.0,48.0,1645184422.34375,P15,D00,0,0,0
2102,-42.0,2.0,48.0,1645184422.375,P15,D00,0,0,0
2103,-42.0,2.0,48.0,1645184422.40625,P15,D00,0,0,0
2104,-42.0,2.0,48.0,1645184422.4375,P15,D00,0,0,0
2105,-42.0,2.0,48.0,1645184422.46875,P15,D00,0,0,0
2106,-42.0,2.0,48.0,1645184422.5,P15,D00,0,0,0
2107,-42.0,2.0,48.0,1645184422.53125,P15,D00,0,0,0
2108,-42.0,2.0,48.0,1645184422.5625,P15,D00,0,0,0
2109,-43.0,2.0,47.0,1645184422.59375,P15,D00,0,0,0
2110,-42.0,2.0,48.0,1645184422.625,P15,D00,0,0,0
2111,-42.0,2.0,48.0,1645184422.65625,P15,D00,0,0,0
2112,-42.0,2.0,48.0,1645184422.6875,P15,D00,0,0,0
2113,-42.0,1.0,48.0,1645184422.71875,P15,D00,0,0,0
2114,-42.0,2.0,47.0,1645184422.75,P15,D00,0,0,0
2115,-42.0,2.0,48.0,1645184422.78125,P15,D00,0,0,0
2116,-42.0,2.0,48.0,1645184422.8125,P15,D00,0,0,0
2117,-43.0,2.0,47.0,1645184422.84375,P15,D00,0,0,0
2118,-42.0,2.0,48.0,1645184422.875,P15,D00,0,0,0
2119,-42.0,2.0,48.0,1645184422.90625,P15,D00,0,0,0
2120,-42.0,2.0,47.0,1645184422.9375,P15,D00,0,0,0
2121,-42.0,2.0,48.0,1645184422.96875,P15,D00,0,0,0
2122,-42.0,2.0,48.0,1645184423.0,P15,D00,0,0,0
2123,-42.0,2.0,47.0,1645184423.03125,P15,D00,0,0,0
2124,-42.0,2.0,47.0,1645184423.0625,P15,D00,0,0,0
2125,-42.0,2.0,48.0,1645184423.09375,P15,D00,0,0,0
2126,-42.0,2.0,48.0,1645184423.125,P15,D00,0,0,0
2127,-42.0,2.0,48.0,1645184423.15625,P15,D00,0,0,0
2128,-42.0,2.0,48.0,1645184423.1875,P15,D00,0,0,0
2129,-42.0,2.0,48.0,1645184423.21875,P15,D00,0,0,0
2130,-42.0,1.0,47.0,1645184423.25,P15,D00,0,0,0
2131,-42.0,1.0,48.0,1645184423.28125,P15,D00,0,0,0
2132,-42.0,1.0,47.0,1645184423.3125,P15,D00,0,0,0
2133,-42.0,2.0,48.0,1645184423.34375,P15,D00,0,0,0
2134,-42.0,2.0,48.0,1645184423.375,P15,D00,0,0,0
2135,-42.0,1.0,48.0,1645184423.40625,P15,D00,0,0,0
2136,-43.0,2.0,47.0,1645184423.4375,P15,D00,0,0,0
2137,-42.0,2.0,48.0,1645184423.46875,P15,D00,0,0,0
2138,-42.0,2.0,48.0,1645184423.5,P15,D00,0,0,0
2139,-42.0,1.0,47.0,1645184423.53125,P15,D00,0,0,0
2140,-42.0,2.0,48.0,1645184423.5625,P15,D00,0,0,0
2141,-42.0,2.0,48.0,1645184423.59375,P15,D00,0,0,0
2142,-43.0,2.0,47.0,1645184423.625,P15,D00,0,0,0
2143,-42.0,2.0,47.0,1645184423.65625,P15,D00,0,0,0
2144,-42.0,2.0,48.0,1645184423.6875,P15,D00,0,0,0
2145,-42.0,1.0,47.0,1645184423.71875,P15,D00,0,0,0
2146,-42.0,2.0,47.0,1645184423.75,P15,D00,0,0,0
2147,-42.0,2.0,48.0,1645184423.78125,P15,D00,0,0,0
2148,-42.0,2.0,48.0,1645184423.8125,P15,D00,0,0,0
2149,-42.0,2.0,48.0,1645184423.84375,P15,D00,0,0,0
2150,-42.0,2.0,48.0,1645184423.875,P15,D00,0,0,0
2151,-42.0,2.0,48.0,1645184423.90625,P15,D00,0,0,0
2152,-42.0,2.0,47.0,1645184423.9375,P15,D00,0,0,0
2153,-42.0,2.0,47.0,1645184423.96875,P15,D00,0,0,0
2154,-42.0,2.0,47.0,1645184424.0,P15,D00,0,0,0
2155,-42.0,2.0,48.0,1645184424.03125,P15,D00,0,0,0
2156,-42.0,2.0,48.0,1645184424.0625,P15,D00,0,0,0
2157,-42.0,1.0,48.0,1645184424.09375,P15,D00,0,0,0
2158,-42.0,1.0,48.0,1645184424.125,P15,D00,0,0,0
2159,-42.0,2.0,48.0,1645184424.15625,P15,D00,0,0,0
2160,-42.0,2.0,48.0,1645184424.1875,P15,D00,0,0,0
2161,-42.0,2.0,48.0,1645184424.21875,P15,D00,0,0,0
2162,-42.0,2.0,47.0,1645184424.25,P15,D00,0,0,0
2163,-43.0,2.0,47.0,1645184424.28125,P15,D00,0,0,0
2164,-42.0,2.0,47.0,1645184424.3125,P15,D00,0,0,0
2165,-42.0,2.0,48.0,1645184424.34375,P15,D00,0,0,0
2166,-42.0,2.0,48.0,1645184424.375,P15,D00,0,0,0
2167,-42.0,1.0,48.0,1645184424.40625,P15,D00,0,0,0
2168,-42.0,1.0,48.0,1645184424.4375,P15,D00,0,0,0
2169,-42.0,2.0,47.0,1645184424.46875,P15,D00,0,0,0
2170,-42.0,2.0,48.0,1645184424.5,P15,D00,0,0,0
2171,-42.0,2.0,48.0,1645184424.53125,P15,D00,0,0,0
2172,-42.0,2.0,48.0,1645184424.5625,P15,D00,0,0,0
2173,-42.0,2.0,47.0,1645184424.59375,P15,D00,0,0,0
2174,-42.0,2.0,47.0,1645184424.625,P15,D00,0,0,0
2175,-42.0,1.0,48.0,1645184424.65625,P15,D00,0,0,0
2176,-42.0,1.0,47.0,1645184424.6875,P15,D00,0,0,0
2177,-42.0,1.0,48.0,1645184424.71875,P15,D00,0,0,0
2178,-42.0,2.0,48.0,1645184424.75,P15,D00,0,0,0
2179,-42.0,2.0,48.0,1645184424.78125,P15,D00,0,0,0
2180,-42.0,1.0,47.0,1645184424.8125,P15,D00,0,0,0
2181,-42.0,2.0,47.0,1645184424.84375,P15,D00,0,0,0
2182,-43.0,2.0,47.0,1645184424.875,P15,D00,0,0,0
2183,-43.0,2.0,47.0,1645184424.90625,P15,D00,0,0,0
2184,-42.0,1.0,48.0,1645184424.9375,P15,D00,0,0,0
2185,-42.0,1.0,48.0,1645184424.96875,P15,D00,0,0,0
2186,-42.0,2.0,47.0,1645184425.0,P15,D00,0,0,0
2187,-42.0,2.0,48.0,1645184425.03125,P15,D00,0,0,0
2188,-42.0,1.0,47.0,1645184425.0625,P15,D00,0,0,0
2189,-42.0,2.0,47.0,1645184425.09375,P15,D00,0,0,0
2190,-42.0,2.0,48.0,1645184425.125,P15,D00,0,0,0
2191,-42.0,2.0,48.0,1645184425.15625,P15,D00,0,0,0
2192,-42.0,2.0,48.0,1645184425.1875,P15,D00,0,0,0
2193,-42.0,2.0,47.0,1645184425.21875,P15,D00,0,0,0
2194,-42.0,2.0,48.0,1645184425.25,P15,D00,0,0,0
2195,-42.0,1.0,48.0,1645184425.28125,P15,D00,0,0,0
2196,-42.0,1.0,48.0,1645184425.3125,P15,D00,0,0,0
2197,-42.0,2.0,47.0,1645184425.34375,P15,D00,0,0,0
2198,-42.0,2.0,47.0,1645184425.375,P15,D00,0,0,0
2199,-42.0,1.0,48.0,1645184425.40625,P15,D00,0,0,0
2200,-42.0,2.0,48.0,1645184425.4375,P15,D00,0,0,0
2201,-42.0,1.0,47.0,1645184425.46875,P15,D00,0,0,0
2202,-42.0,2.0,47.0,1645184425.5,P15,D00,0,0,0
2203,-42.0,2.0,48.0,1645184425.53125,P15,D00,0,0,0
2204,-42.0,1.0,48.0,1645184425.5625,P15,D00,0,0,0
2205,-42.0,1.0,48.0,1645184425.59375,P15,D00,0,0,0
2206,-42.0,2.0,47.0,1645184425.625,P15,D00,0,0,0
2207,-42.0,2.0,48.0,1645184425.65625,P15,D00,0,0,0
2208,-42.0,2.0,48.0,1645184425.6875,P15,D00,0,0,0
2209,-42.0,2.0,47.0,1645184425.71875,P15,D00,0,0,0
2210,-42.0,1.0,48.0,1645184425.75,P15,D00,0,0,0
2211,-42.0,2.0,48.0,1645184425.78125,P15,D00,0,0,0
2212,-42.0,2.0,48.0,1645184425.8125,P15,D00,0,0,0
2213,-42.0,1.0,48.0,1645184425.84375,P15,D00,0,0,0
2214,-43.0,2.0,48.0,1645184425.875,P15,D00,0,0,0
2215,-42.0,2.0,48.0,1645184425.90625,P15,D00,0,0,0
2216,-42.0,2.0,48.0,1645184425.9375,P15,D00,0,0,0
2217,-42.0,1.0,47.0,1645184425.96875,P15,D00,0,0,0
2218,-42.0,2.0,48.0,1645184426.0,P15,D00,0,0,0
2219,-42.0,2.0,48.0,1645184426.03125,P15,D00,0,0,0
2220,-42.0,2.0,48.0,1645184426.0625,P15,D00,0,0,0
2221,-42.0,2.0,47.0,1645184426.09375,P15,D00,0,0,0
2222,-42.0,2.0,48.0,1645184426.125,P15,D00,0,0,0
2223,-42.0,2.0,48.0,1645184426.15625,P15,D00,0,0,0
2224,-42.0,1.0,48.0,1645184426.1875,P15,D00,0,0,0
2225,-42.0,2.0,48.0,1645184426.21875,P15,D00,0,0,0
2226,-42.0,2.0,47.0,1645184426.25,P15,D00,0,0,0
2227,-42.0,2.0,47.0,1645184426.28125,P15,D00,0,0,0
2228,-42.0,2.0,47.0,1645184426.3125,P15,D00,0,0,0
2229,-42.0,2.0,48.0,1645184426.34375,P15,D00,0,0,0
2230,-42.0,2.0,48.0,1645184426.375,P15,D00,0,0,0
2231,-42.0,2.0,48.0,1645184426.40625,P15,D00,0,0,0
2232,-42.0,1.0,47.0,1645184426.4375,P15,D00,0,0,0
2233,-42.0,2.0,48.0,1645184426.46875,P15,D00,0,0,0
2234,-41.0,2.0,48.0,1645184426.5,P15,D00,0,0,0
2235,-42.0,2.0,48.0,1645184426.53125,P15,D00,0,0,0
2236,-43.0,2.0,47.0,1645184426.5625,P15,D00,0,0,0
2237,-42.0,2.0,48.0,1645184426.59375,P15,D00,0,0,0
2238,-42.0,2.0,48.0,1645184426.625,P15,D00,0,0,0
2239,-42.0,2.0,47.0,1645184426.65625,P15,D00,0,0,0
2240,-42.0,2.0,48.0,1645184426.6875,P15,D00,0,0,0
2241,-42.0,2.0,47.0,1645184426.71875,P15,D00,0,0,0
2242,-42.0,1.0,48.0,1645184426.75,P15,D00,0,0,0
2243,-42.0,2.0,47.0,1645184426.78125,P15,D00,0,0,0
2244,-43.0,2.0,47.0,1645184426.8125,P15,D00,0,0,0
2245,-42.0,2.0,48.0,1645184426.84375,P15,D00,0,0,0
2246,-42.0,2.0,48.0,1645184426.875,P15,D00,0,0,0
2247,-42.0,2.0,48.0,1645184426.90625,P15,D00,0,0,0
2248,-42.0,1.0,47.0,1645184426.9375,P15,D00,0,0,0
2249,-42.0,2.0,47.0,1645184426.96875,P15,D00,0,0,0
2250,-42.0,2.0,47.0,1645184427.0,P15,D00,0,0,0
2251,-42.0,1.0,48.0,1645184427.03125,P15,D00,0,0,0
2252,-42.0,2.0,47.0,1645184427.0625,P15,D00,0,0,0
2253,-42.0,2.0,47.0,1645184427.09375,P15,D00,0,0,0
2254,-42.0,2.0,47.0,1645184427.125,P15,D00,0,0,0
2255,-42.0,2.0,47.0,1645184427.15625,P15,D00,0,0,0
2256,-42.0,2.0,47.0,1645184427.1875,P15,D00,0,0,0
2257,-42.0,2.0,47.0,1645184427.21875,P15,D00,0,0,0
2258,-42.0,2.0,48.0,1645184427.25,P15,D00,0,0,0
2259,-42.0,2.0,48.0,1645184427.28125,P15,D00,0,0,0
2260,-42.0,2.0,48.0,1645184427.3125,P15,D00,0,0,0
2261,-42.0,1.0,48.0,1645184427.34375,P15,D00,0,0,0
2262,-42.0,2.0,47.0,1645184427.375,P15,D00,0,0,0
2263,-42.0,2.0,48.0,1645184427.40625,P15,D00,0,0,0
2264,-42.0,1.0,48.0,1645184427.4375,P15,D00,0,0,0
2265,-42.0,2.0,48.0,1645184427.46875,P15,D00,0,0,0
2266,-42.0,2.0,48.0,1645184427.5,P15,D00,0,0,0
2267,-42.0,2.0,48.0,1645184427.53125,P15,D00,0,0,0
2268,-42.0,1.0,48.0,1645184427.5625,P15,D00,0,0,0
2269,-42.0,2.0,47.0,1645184427.59375,P15,D00,0,0,0
2270,-42.0,2.0,48.0,1645184427.625,P15,D00,0,0,0
2271,-42.0,2.0,48.0,1645184427.65625,P15,D00,0,0,0
2272,-42.0,2.0,48.0,1645184427.6875,P15,D00,0,0,0
2273,-42.0,2.0,48.0,1645184427.71875,P15,D00,0,0,0
2274,-43.0,2.0,47.0,1645184427.75,P15,D00,0,0,0
2275,-42.0,2.0,48.0,1645184427.78125,P15,D00,0,0,0
2276,-42.0,2.0,48.0,1645184427.8125,P15,D00,0,0,0
2277,-42.0,2.0,48.0,1645184427.84375,P15,D00,0,0,0
2278,-42.0,2.0,47.0,1645184427.875,P15,D00,0,0,0
2279,-42.0,2.0,48.0,1645184427.90625,P15,D00,0,0,0
2280,-42.0,2.0,48.0,1645184427.9375,P15,D00,0,0,0
2281,-42.0,1.0,48.0,1645184427.96875,P15,D00,0,0,0
2282,-41.0,2.0,48.0,1645184428.0,P15,D00,0,0,0
2283,-42.0,2.0,48.0,1645184428.03125,P15,D00,0,0,0
2284,-41.0,2.0,48.0,1645184428.0625,P15,D00,0,0,0
2285,-42.0,2.0,48.0,1645184428.09375,P15,D00,0,0,0
2286,-42.0,2.0,48.0,1645184428.125,P15,D00,0,0,0
2287,-42.0,2.0,48.0,1645184428.15625,P15,D00,0,0,0
2288,-42.0,1.0,48.0,1645184428.1875,P15,D00,0,0,0
2289,-42.0,2.0,48.0,1645184428.21875,P15,D00,0,0,0
2290,-42.0,2.0,48.0,1645184428.25,P15,D00,0,0,0
2291,-41.0,2.0,48.0,1645184428.28125,P15,D00,0,0,0
2292,-42.0,2.0,48.0,1645184428.3125,P15,D00,0,0,0
2293,-42.0,2.0,48.0,1645184428.34375,P15,D00,0,0,0
2294,-42.0,2.0,48.0,1645184428.375,P15,D00,0,0,0
2295,-42.0,2.0,48.0,1645184428.40625,P15,D00,0,0,0
2296,-42.0,2.0,48.0,1645184428.4375,P15,D00,0,0,0
2297,-42.0,2.0,48.0,1645184428.46875,P15,D00,0,0,0
2298,-41.0,1.0,48.0,1645184428.5,P15,D00,0,0,0
2299,-41.0,2.0,48.0,1645184428.53125,P15,D00,0,0,0
2300,-42.0,2.0,48.0,1645184428.5625,P15,D00,0,0,0
2301,-42.0,2.0,48.0,1645184428.59375,P15,D00,0,0,0
2302,-42.0,2.0,48.0,1645184428.625,P15,D00,0,0,0
2303,-42.0,2.0,48.0,1645184428.65625,P15,D00,0,0,0
2304,-42.0,2.0,48.0,1645184428.6875,P15,D00,0,0,0
2305,-42.0,2.0,48.0,1645184428.71875,P15,D00,0,0,0
2306,-42.0,2.0,48.0,1645184428.75,P15,D00,0,0,0
2307,-42.0,2.0,48.0,1645184428.78125,P15,D00,0,0,0
2308,-42.0,1.0,48.0,1645184428.8125,P15,D00,0,0,0
2309,-42.0,2.0,48.0,1645184428.84375,P15,D00,0,0,0
2310,-42.0,2.0,48.0,1645184428.875,P15,D00,0,0,0
2311,-42.0,2.0,48.0,1645184428.90625,P15,D00,0,0,0
2312,-42.0,2.0,48.0,1645184428.9375,P15,D00,0,0,0
2313,-42.0,2.0,48.0,1645184428.96875,P15,D00,0,0,0
2314,-42.0,1.0,48.0,1645184429.0,P15,D00,0,0,0
2315,-42.0,2.0,48.0,1645184429.03125,P15,D00,0,0,0
2316,-42.0,2.0,48.0,1645184429.0625,P15,D00,0,0,0
2317,-42.0,2.0,48.0,1645184429.09375,P15,D00,0,0,0
2318,-42.0,2.0,48.0,1645184429.125,P15,D00,0,0,0
2319,-42.0,2.0,48.0,1645184429.15625,P15,D00,0,0,0
2320,-42.0,2.0,48.0,1645184429.1875,P15,D00,0,0,0
2321,-42.0,2.0,48.0,1645184429.21875,P15,D00,0,0,0
2322,-42.0,2.0,48.0,1645184429.25,P15,D00,0,0,0
2323,-42.0,2.0,48.0,1645184429.28125,P15,D00,0,0,0
2324,-42.0,1.0,48.0,1645184429.3125,P15,D00,0,0,0
2325,-41.0,2.0,48.0,1645184429.34375,P15,D00,0,0,0
2326,-43.0,2.0,47.0,1645184429.375,P15,D00,0,0,0
2327,-42.0,1.0,47.0,1645184429.40625,P15,D00,0,0,0
2328,-42.0,2.0,48.0,1645184429.4375,P15,D00,0,0,0
2329,-42.0,2.0,47.0,1645184429.46875,P15,D00,0,0,0
2330,-42.0,2.0,48.0,1645184429.5,P15,D00,0,0,0
2331,-42.0,2.0,48.0,1645184429.53125,P15,D00,0,0,0
2332,-42.0,2.0,48.0,1645184429.5625,P15,D00,0,0,0
2333,-42.0,2.0,48.0,1645184429.59375,P15,D00,0,0,0
2334,-42.0,2.0,47.0,1645184429.625,P15,D00,0,0,0
2335,-42.0,2.0,48.0,1645184429.65625,P15,D00,0,0,0
2336,-42.0,2.0,48.0,1645184429.6875,P15,D00,0,0,0
2337,-42.0,2.0,48.0,1645184429.71875,P15,D00,0,0,0
2338,-42.0,2.0,48.0,1645184429.75,P15,D00,0,0,0
2339,-42.0,1.0,47.0,1645184429.78125,P15,D00,0,0,0
2340,-42.0,2.0,48.0,1645184429.8125,P15,D00,0,0,0
2341,-42.0,2.0,47.0,1645184429.84375,P15,D00,0,0,0
2342,-42.0,2.0,48.0,1645184429.875,P15,D00,0,0,0
2343,-42.0,1.0,48.0,1645184429.90625,P15,D00,0,0,0
2344,-42.0,2.0,48.0,1645184429.9375,P15,D00,0,0,0
2345,-42.0,2.0,47.0,1645184429.96875,P15,D00,0,0,0
2346,-42.0,2.0,48.0,1645184430.0,P15,D00,0,0,0
2347,-42.0,2.0,48.0,1645184430.03125,P15,D00,0,0,0
2348,-42.0,1.0,48.0,1645184430.0625,P15,D00,0,0,0
2349,-42.0,1.0,48.0,1645184430.09375,P15,D00,0,0,0
2350,-42.0,2.0,48.0,1645184430.125,P15,D00,0,0,0
2351,-42.0,2.0,48.0,1645184430.15625,P15,D00,0,0,0
2352,-42.0,1.0,48.0,1645184430.1875,P15,D00,0,0,0
2353,-42.0,1.0,48.0,1645184430.21875,P15,D00,0,0,0
2354,-42.0,2.0,47.0,1645184430.25,P15,D00,0,0,0
2355,-41.0,1.0,48.0,1645184430.28125,P15,D00,0,0,0
2356,-42.0,2.0,47.0,1645184430.3125,P15,D00,0,0,0
2357,-42.0,2.0,47.0,1645184430.34375,P15,D00,0,0,0
2358,-42.0,2.0,48.0,1645184430.375,P15,D00,0,0,0
2359,-42.0,2.0,47.0,1645184430.40625,P15,D00,0,0,0
2360,-43.0,2.0,47.0,1645184430.4375,P15,D00,0,0,0
2361,-42.0,2.0,47.0,1645184430.46875,P15,D00,0,0,0
2362,-42.0,1.0,48.0,1645184430.5,P15,D00,0,0,0
2363,-42.0,2.0,47.0,1645184430.53125,P15,D00,0,0,0
2364,-42.0,2.0,48.0,1645184430.5625,P15,D00,0,0,0
2365,-42.0,1.0,48.0,1645184430.59375,P15,D00,0,0,0
2366,-42.0,2.0,48.0,1645184430.625,P15,D00,0,0,0
2367,-42.0,2.0,48.0,1645184430.65625,P15,D00,0,0,0
2368,-42.0,1.0,48.0,1645184430.6875,P15,D00,0,0,0
2369,-43.0,2.0,48.0,1645184430.71875,P15,D00,0,0,0
2370,-42.0,2.0,48.0,1645184430.75,P15,D00,0,0,0
2371,-42.0,2.0,48.0,1645184430.78125,P15,D00,0,0,0
2372,-42.0,2.0,48.0,1645184430.8125,P15,D00,0,0,0
2373,-42.0,1.0,48.0,1645184430.84375,P15,D00,0,0,0
2374,-42.0,2.0,48.0,1645184430.875,P15,D00,0,0,0
2375,-42.0,2.0,48.0,1645184430.90625,P15,D00,0,0,0
2376,-42.0,2.0,48.0,1645184430.9375,P15,D00,0,0,0
2377,-42.0,2.0,47.0,1645184430.96875,P15,D00,0,0,0
2378,-42.0,2.0,48.0,1645184431.0,P15,D00,0,0,0
2379,-42.0,2.0,48.0,1645184431.03125,P15,D00,0,0,0
2380,-42.0,2.0,48.0,1645184431.0625,P15,D00,0,0,0
2381,-41.0,1.0,48.0,1645184431.09375,P15,D00,0,0,0
2382,-42.0,2.0,48.0,1645184431.125,P15,D00,0,0,0
2383,-42.0,2.0,48.0,1645184431.15625,P15,D00,0,0,0
2384,-41.0,2.0,48.0,1645184431.1875,P15,D00,0,0,0
2385,-42.0,1.0,48.0,1645184431.21875,P15,D00,0,0,0
2386,-42.0,2.0,48.0,1645184431.25,P15,D00,0,0,0
2387,-42.0,2.0,48.0,1645184431.28125,P15,D00,0,0,0
2388,-41.0,2.0,48.0,1645184431.3125,P15,D00,0,0,0
2389,-42.0,2.0,48.0,1645184431.34375,P15,D00,0,0,0
2390,-42.0,2.0,48.0,1645184431.375,P15,D00,0,0,0
2391,-42.0,2.0,47.0,1645184431.40625,P15,D00,0,0,0
2392,-41.0,2.0,48.0,1645184431.4375,P15,D00,0,0,0
2393,-42.0,2.0,48.0,1645184431.46875,P15,D00,0,0,0
2394,-42.0,2.0,48.0,1645184431.5,P15,D00,0,0,0
2395,-42.0,2.0,48.0,1645184431.53125,P15,D00,0,0,0
2396,-42.0,2.0,47.0,1645184431.5625,P15,D00,0,0,0
2397,-42.0,2.0,48.0,1645184431.59375,P15,D00,0,0,0
2398,-42.0,2.0,48.0,1645184431.625,P15,D00,0,0,0
2399,-42.0,2.0,48.0,1645184431.65625,P15,D00,0,0,0
2400,-42.0,2.0,48.0,1645184431.6875,P15,D00,0,0,0
2401,-42.0,2.0,48.0,1645184431.71875,P15,D00,0,0,0
2402,-42.0,2.0,48.0,1645184431.75,P15,D00,0,0,0
2403,-41.0,2.0,48.0,1645184431.78125,P15,D00,0,0,0
2404,-42.0,2.0,48.0,1645184431.8125,P15,D00,0,0,0
2405,-42.0,2.0,48.0,1645184431.84375,P15,D00,0,0,0
2406,-42.0,2.0,48.0,1645184431.875,P15,D00,0,0,0
2407,-42.0,2.0,48.0,1645184431.90625,P15,D00,0,0,0
2408,-42.0,2.0,48.0,1645184431.9375,P15,D00,0,0,0
2409,-41.0,2.0,48.0,1645184431.96875,P15,D00,0,0,0
2410,-42.0,2.0,48.0,1645184432.0,P15,D00,0,0,0
2411,-42.0,2.0,48.0,1645184432.03125,P15,D00,0,0,0
2412,-42.0,2.0,48.0,1645184432.0625,P15,D00,0,0,0
2413,-42.0,2.0,48.0,1645184432.09375,P15,D00,0,0,0
2414,-42.0,2.0,48.0,1645184432.125,P15,D00,0,0,0
2415,-42.0,2.0,48.0,1645184432.15625,P15,D00,0,0,0
2416,-42.0,2.0,48.0,1645184432.1875,P15,D00,0,0,0
