,acc_x,acc_y,acc_z,timestamp,participant,document,val,arou,eng
0,-28.0,-1.0,56.0,1645186701.9375,P15,D09,0,1,1
1,-27.0,-1.0,57.0,1645186701.96875,P15,D09,0,1,1
2,-28.0,-2.0,56.0,1645186702.0,P15,D09,0,1,1
3,-28.0,-2.0,56.0,1645186702.03125,P15,D09,0,1,1
4,-28.0,-2.0,57.0,1645186702.0625,P15,D09,0,1,1
5,-28.0,-1.0,57.0,1645186702.09375,P15,D09,0,1,1
6,-28.0,-1.0,57.0,1645186702.125,P15,D09,0,1,1
7,-28.0,-1.0,57.0,1645186702.15625,P15,D09,0,1,1
8,-28.0,-1.0,57.0,1645186702.1875,P15,D09,0,1,1
9,-27.0,-1.0,57.0,1645186702.21875,P15,D09,0,1,1
10,-27.0,-1.0,57.0,1645186702.25,P15,D09,0,1,1
11,-26.0,-1.0,57.0,1645186702.28125,P15,D09,0,1,1
12,-26.0,-1.0,57.0,1645186702.3125,P15,D09,0,1,1
13,-27.0,-2.0,57.0,1645186702.34375,P15,D09,0,1,1
14,-27.0,-1.0,57.0,1645186702.375,P15,D09,0,1,1
15,-27.0,-1.0,57.0,1645186702.40625,P15,D09,0,1,1
16,-27.0,-1.0,57.0,1645186702.4375,P15,D09,0,1,1
17,-27.0,-1.0,57.0,1645186702.46875,P15,D09,0,1,1
18,-26.0,-1.0,57.0,1645186702.5,P15,D09,0,1,1
19,-25.0,-1.0,58.0,1645186702.53125,P15,D09,0,1,1
20,-26.0,-1.0,58.0,1645186702.5625,P15,D09,0,1,1
21,-26.0,-2.0,57.0,1645186702.59375,P15,D09,0,1,1
22,-26.0,-1.0,58.0,1645186702.625,P15,D09,0,1,1
23,-25.0,-1.0,58.0,1645186702.65625,P15,D09,0,1,1
24,-26.0,-1.0,58.0,1645186702.6875,P15,D09,0,1,1
25,-25.0,-1.0,58.0,1645186702.71875,P15,D09,0,1,1
26,-26.0,-1.0,57.0,1645186702.75,P15,D09,0,1,1
27,-25.0,-1.0,57.0,1645186702.78125,P15,D09,0,1,1
28,-26.0,-1.0,57.0,1645186702.8125,P15,D09,0,1,1
29,-26.0,-1.0,57.0,1645186702.84375,P15,D09,0,1,1
30,-25.0,-2.0,57.0,1645186702.875,P15,D09,0,1,1
31,-25.0,-1.0,58.0,1645186702.90625,P15,D09,0,1,1
32,-25.0,-1.0,58.0,1645186702.9375,P15,D09,0,1,1
33,-25.0,-2.0,58.0,1645186702.96875,P15,D09,0,1,1
34,-26.0,-1.0,58.0,1645186703.0,P15,D09,0,1,1
35,-26.0,-1.0,58.0,1645186703.03125,P15,D09,0,1,1
36,-25.0,-1.0,58.0,1645186703.0625,P15,D09,0,1,1
37,-25.0,-1.0,58.0,1645186703.09375,P15,D09,0,1,1
38,-25.0,-1.0,58.0,1645186703.125,P15,D09,0,1,1
39,-24.0,-1.0,58.0,1645186703.15625,P15,D09,0,1,1
40,-25.0,-1.0,58.0,1645186703.1875,P15,D09,0,1,1
41,-25.0,-1.0,58.0,1645186703.21875,P15,D09,0,1,1
42,-25.0,-1.0,58.0,1645186703.25,P15,D09,0,1,1
43,-25.0,-1.0,58.0,1645186703.28125,P15,D09,0,1,1
44,-25.0,-1.0,58.0,1645186703.3125,P15,D09,0,1,1
45,-24.0,-1.0,58.0,1645186703.34375,P15,D09,0,1,1
46,-25.0,-1.0,58.0,1645186703.375,P15,D09,0,1,1
47,-25.0,-1.0,58.0,1645186703.40625,P15,D09,0,1,1
48,-24.0,-1.0,58.0,1645186703.4375,P15,D09,0,1,1
49,-24.0,-1.0,57.0,1645186703.46875,P15,D09,0,1,1
50,-25.0,-1.0,57.0,1645186703.5,P15,D09,0,1,1
51,-27.0,0.0,57.0,1645186703.53125,P15,D09,0,1,1
52,-23.0,-1.0,61.0,1645186703.5625,P15,D09,0,1,1
53,-28.0,1.0,62.0,1645186703.59375,P15,D09,0,1,1
54,-20.0,-4.0,58.0,1645186703.625,P15,D09,0,1,1
55,-21.0,-5.0,55.0,1645186703.65625,P15,D09,0,1,1
56,-21.0,-5.0,59.0,1645186703.6875,P15,D09,0,1,1
57,-17.0,-4.0,61.0,1645186703.71875,P15,D09,0,1,1
58,-16.0,-3.0,60.0,1645186703.75,P15,D09,0,1,1
59,-25.0,-7.0,59.0,1645186703.78125,P15,D09,0,1,1
60,-20.0,-8.0,52.0,1645186703.8125,P15,D09,0,1,1
61,-11.0,4.0,63.0,1645186703.84375,P15,D09,0,1,1
62,-36.0,-5.0,60.0,1645186703.875,P15,D09,0,1,1
63,-22.0,0.0,60.0,1645186703.90625,P15,D09,0,1,1
64,-27.0,-5.0,56.0,1645186703.9375,P15,D09,0,1,1
65,-25.0,-4.0,55.0,1645186703.96875,P15,D09,0,1,1
66,-19.0,-6.0,57.0,1645186704.0,P15,D09,0,1,1
67,-22.0,-5.0,59.0,1645186704.03125,P15,D09,0,1,1
68,-22.0,-2.0,62.0,1645186704.0625,P15,D09,0,1,1
69,-21.0,-3.0,60.0,1645186704.09375,P15,D09,0,1,1
70,-21.0,-4.0,58.0,1645186704.125,P15,D09,0,1,1
71,-22.0,-5.0,58.0,1645186704.15625,P15,D09,0,1,1
72,-22.0,-5.0,59.0,1645186704.1875,P15,D09,0,1,1
73,-22.0,-5.0,59.0,1645186704.21875,P15,D09,0,1,1
74,-22.0,-4.0,58.0,1645186704.25,P15,D09,0,1,1
75,-23.0,-4.0,59.0,1645186704.28125,P15,D09,0,1,1
76,-22.0,-4.0,59.0,1645186704.3125,P15,D09,0,1,1
77,-23.0,-4.0,59.0,1645186704.34375,P15,D09,0,1,1
78,-23.0,-4.0,59.0,1645186704.375,P15,D09,0,1,1
79,-24.0,-4.0,59.0,1645186704.40625,P15,D09,0,1,1
80,-22.0,-4.0,58.0,1645186704.4375,P15,D09,0,1,1
81,-23.0,-5.0,58.0,1645186704.46875,P15,D09,0,1,1
82,-22.0,-4.0,58.0,1645186704.5,P15,D09,0,1,1
83,-21.0,-4.0,59.0,1645186704.53125,P15,D09,0,1,1
84,-24.0,-4.0,58.0,1645186704.5625,P15,D09,0,1,1
85,-24.0,-4.0,59.0,1645186704.59375,P15,D09,0,1,1
86,-22.0,-4.0,58.0,1645186704.625,P15,D09,0,1,1
87,-23.0,-3.0,58.0,1645186704.65625,P15,D09,0,1,1
88,-25.0,-3.0,61.0,1645186704.6875,P15,D09,0,1,1
89,-24.0,-3.0,59.0,1645186704.71875,P15,D09,0,1,1
90,-22.0,-5.0,57.0,1645186704.75,P15,D09,0,1,1
91,-23.0,-5.0,58.0,1645186704.78125,P15,D09,0,1,1
92,-22.0,-4.0,59.0,1645186704.8125,P15,D09,0,1,1
93,-22.0,-4.0,59.0,1645186704.84375,P15,D09,0,1,1
94,-23.0,-4.0,59.0,1645186704.875,P15,D09,0,1,1
95,-23.0,-4.0,58.0,1645186704.90625,P15,D09,0,1,1
96,-23.0,-4.0,58.0,1645186704.9375,P15,D09,0,1,1
97,-25.0,-4.0,58.0,1645186704.96875,P15,D09,0,1,1
98,-22.0,-4.0,58.0,1645186705.0,P15,D09,0,1,1
99,-24.0,-2.0,58.0,1645186705.03125,P15,D09,0,1,1
100,-33.0,1.0,61.0,1645186705.0625,P15,D09,0,1,1
101,-24.0,-5.0,55.0,1645186705.09375,P15,D09,0,1,1
102,-22.0,-5.0,56.0,1645186705.125,P15,D09,0,1,1
103,-25.0,-2.0,59.0,1645186705.15625,P15,D09,0,1,1
104,-23.0,-3.0,59.0,1645186705.1875,P15,D09,0,1,1
105,-22.0,-3.0,58.0,1645186705.21875,P15,D09,0,1,1
106,-24.0,-3.0,58.0,1645186705.25,P15,D09,0,1,1
107,-25.0,-3.0,58.0,1645186705.28125,P15,D09,0,1,1
108,-25.0,-3.0,58.0,1645186705.3125,P15,D09,0,1,1
109,-24.0,-3.0,58.0,1645186705.34375,P15,D09,0,1,1
110,-24.0,-3.0,58.0,1645186705.375,P15,D09,0,1,1
111,-24.0,-3.0,58.0,1645186705.40625,P15,D09,0,1,1
112,-25.0,-2.0,58.0,1645186705.4375,P15,D09,0,1,1
113,-24.0,-3.0,58.0,1645186705.46875,P15,D09,0,1,1
114,-27.0,-3.0,58.0,1645186705.5,P15,D09,0,1,1
115,-27.0,-2.0,58.0,1645186705.53125,P15,D09,0,1,1
116,-25.0,-2.0,57.0,1645186705.5625,P15,D09,0,1,1
117,-26.0,-2.0,58.0,1645186705.59375,P15,D09,0,1,1
118,-25.0,-3.0,58.0,1645186705.625,P15,D09,0,1,1
119,-25.0,-2.0,58.0,1645186705.65625,P15,D09,0,1,1
120,-26.0,-2.0,57.0,1645186705.6875,P15,D09,0,1,1
121,-24.0,-2.0,58.0,1645186705.71875,P15,D09,0,1,1
122,-24.0,-2.0,58.0,1645186705.75,P15,D09,0,1,1
123,-25.0,-2.0,58.0,1645186705.78125,P15,D09,0,1,1
124,-26.0,-2.0,58.0,1645186705.8125,P15,D09,0,1,1
125,-25.0,-3.0,57.0,1645186705.84375,P15,D09,0,1,1
126,-25.0,-3.0,57.0,1645186705.875,P15,D09,0,1,1
127,-26.0,-2.0,57.0,1645186705.90625,P15,D09,0,1,1
128,-26.0,-3.0,56.0,1645186705.9375,P15,D09,0,1,1
129,-29.0,-1.0,60.0,1645186705.96875,P15,D09,0,1,1
130,-23.0,-3.0,58.0,1645186706.0,P15,D09,0,1,1
131,-25.0,-2.0,58.0,1645186706.03125,P15,D09,0,1,1
132,-25.0,-2.0,58.0,1645186706.0625,P15,D09,0,1,1
133,-25.0,-2.0,59.0,1645186706.09375,P15,D09,0,1,1
134,-25.0,-2.0,58.0,1645186706.125,P15,D09,0,1,1
135,-21.0,-2.0,59.0,1645186706.15625,P15,D09,0,1,1
136,-28.0,-3.0,57.0,1645186706.1875,P15,D09,0,1,1
137,-28.0,-4.0,57.0,1645186706.21875,P15,D09,0,1,1
138,-23.0,-4.0,57.0,1645186706.25,P15,D09,0,1,1
139,-32.0,-3.0,54.0,1645186706.28125,P15,D09,0,1,1
140,-30.0,-3.0,55.0,1645186706.3125,P15,D09,0,1,1
141,-28.0,-4.0,56.0,1645186706.34375,P15,D09,0,1,1
142,-27.0,-2.0,59.0,1645186706.375,P15,D09,0,1,1
143,-26.0,-2.0,58.0,1645186706.40625,P15,D09,0,1,1
144,-25.0,-3.0,57.0,1645186706.4375,P15,D09,0,1,1
145,-28.0,-2.0,57.0,1645186706.46875,P15,D09,0,1,1
146,-29.0,-2.0,57.0,1645186706.5,P15,D09,0,1,1
147,-27.0,-2.0,56.0,1645186706.53125,P15,D09,0,1,1
148,-27.0,-2.0,57.0,1645186706.5625,P15,D09,0,1,1
149,-29.0,-2.0,57.0,1645186706.59375,P15,D09,0,1,1
150,-28.0,-2.0,57.0,1645186706.625,P15,D09,0,1,1
151,-28.0,-2.0,56.0,1645186706.65625,P15,D09,0,1,1
152,-29.0,-2.0,56.0,1645186706.6875,P15,D09,0,1,1
153,-28.0,-2.0,56.0,1645186706.71875,P15,D09,0,1,1
154,-27.0,-2.0,56.0,1645186706.75,P15,D09,0,1,1
155,-28.0,-2.0,56.0,1645186706.78125,P15,D09,0,1,1
156,-29.0,-1.0,57.0,1645186706.8125,P15,D09,0,1,1
157,-31.0,-1.0,55.0,1645186706.84375,P15,D09,0,1,1
158,-25.0,-4.0,57.0,1645186706.875,P15,D09,0,1,1
159,-25.0,-4.0,59.0,1645186706.90625,P15,D09,0,1,1
160,-25.0,-2.0,57.0,1645186706.9375,P15,D09,0,1,1
161,-20.0,-1.0,57.0,1645186706.96875,P15,D09,0,1,1
162,-29.0,2.0,58.0,1645186707.0,P15,D09,0,1,1
163,-32.0,1.0,54.0,1645186707.03125,P15,D09,0,1,1
164,-35.0,1.0,53.0,1645186707.0625,P15,D09,0,1,1
165,-41.0,0.0,52.0,1645186707.09375,P15,D09,0,1,1
166,-37.0,0.0,52.0,1645186707.125,P15,D09,0,1,1
167,-38.0,1.0,52.0,1645186707.15625,P15,D09,0,1,1
168,-38.0,3.0,53.0,1645186707.1875,P15,D09,0,1,1
169,-42.0,1.0,50.0,1645186707.21875,P15,D09,0,1,1
170,-38.0,0.0,51.0,1645186707.25,P15,D09,0,1,1
171,-33.0,0.0,52.0,1645186707.28125,P15,D09,0,1,1
172,-37.0,0.0,52.0,1645186707.3125,P15,D09,0,1,1
173,-35.0,0.0,52.0,1645186707.34375,P15,D09,0,1,1
174,-35.0,1.0,52.0,1645186707.375,P15,D09,0,1,1
175,-35.0,-1.0,52.0,1645186707.40625,P15,D09,0,1,1
176,-37.0,1.0,51.0,1645186707.4375,P15,D09,0,1,1
177,-34.0,0.0,52.0,1645186707.46875,P15,D09,0,1,1
178,-34.0,1.0,53.0,1645186707.5,P15,D09,0,1,1
179,-34.0,0.0,52.0,1645186707.53125,P15,D09,0,1,1
180,-32.0,1.0,54.0,1645186707.5625,P15,D09,0,1,1
181,-31.0,1.0,55.0,1645186707.59375,P15,D09,0,1,1
182,-35.0,1.0,53.0,1645186707.625,P15,D09,0,1,1
183,-34.0,1.0,52.0,1645186707.65625,P15,D09,0,1,1
184,-36.0,1.0,53.0,1645186707.6875,P15,D09,0,1,1
185,-35.0,1.0,52.0,1645186707.71875,P15,D09,0,1,1
186,-35.0,1.0,53.0,1645186707.75,P15,D09,0,1,1
187,-35.0,1.0,53.0,1645186707.78125,P15,D09,0,1,1
188,-36.0,1.0,53.0,1645186707.8125,P15,D09,0,1,1
189,-34.0,1.0,53.0,1645186707.84375,P15,D09,0,1,1
190,-34.0,1.0,52.0,1645186707.875,P15,D09,0,1,1
191,-37.0,1.0,52.0,1645186707.90625,P15,D09,0,1,1
192,-36.0,0.0,52.0,1645186707.9375,P15,D09,0,1,1
193,-35.0,1.0,53.0,1645186707.96875,P15,D09,0,1,1
194,-35.0,1.0,53.0,1645186708.0,P15,D09,0,1,1
195,-35.0,1.0,53.0,1645186708.03125,P15,D09,0,1,1
196,-35.0,2.0,53.0,1645186708.0625,P15,D09,0,1,1
197,-33.0,2.0,53.0,1645186708.09375,P15,D09,0,1,1
198,-35.0,1.0,53.0,1645186708.125,P15,D09,0,1,1
199,-36.0,1.0,53.0,1645186708.15625,P15,D09,0,1,1
200,-36.0,1.0,52.0,1645186708.1875,P15,D09,0,1,1
201,-34.0,1.0,53.0,1645186708.21875,P15,D09,0,1,1
202,-29.0,3.0,57.0,1645186708.25,P15,D09,0,1,1
203,-35.0,3.0,53.0,1645186708.28125,P15,D09,0,1,1
204,-35.0,-1.0,54.0,1645186708.3125,P15,D09,0,1,1
205,-31.0,0.0,56.0,1645186708.34375,P15,D09,0,1,1
206,-35.0,1.0,54.0,1645186708.375,P15,D09,0,1,1
207,-29.0,-3.0,57.0,1645186708.40625,P15,D09,0,1,1
208,-21.0,-6.0,59.0,1645186708.4375,P15,D09,0,1,1
209,-28.0,1.0,59.0,1645186708.46875,P15,D09,0,1,1
210,-31.0,0.0,55.0,1645186708.5,P15,D09,0,1,1
211,-20.0,-1.0,53.0,1645186708.53125,P15,D09,0,1,1
212,-24.0,-1.0,55.0,1645186708.5625,P15,D09,0,1,1
213,-24.0,3.0,53.0,1645186708.59375,P15,D09,0,1,1
214,-25.0,1.0,54.0,1645186708.625,P15,D09,0,1,1
215,-31.0,2.0,53.0,1645186708.65625,P15,D09,0,1,1
216,-27.0,3.0,55.0,1645186708.6875,P15,D09,0,1,1
217,-30.0,7.0,55.0,1645186708.71875,P15,D09,0,1,1
218,-31.0,6.0,59.0,1645186708.75,P15,D09,0,1,1
219,-33.0,14.0,66.0,1645186708.78125,P15,D09,0,1,1
220,-29.0,8.0,55.0,1645186708.8125,P15,D09,0,1,1
221,-26.0,12.0,53.0,1645186708.84375,P15,D09,0,1,1
222,-26.0,10.0,53.0,1645186708.875,P15,D09,0,1,1
223,-24.0,13.0,58.0,1645186708.90625,P15,D09,0,1,1
224,-25.0,6.0,54.0,1645186708.9375,P15,D09,0,1,1
225,-31.0,6.0,57.0,1645186708.96875,P15,D09,0,1,1
226,-28.0,5.0,56.0,1645186709.0,P15,D09,0,1,1
227,-29.0,3.0,55.0,1645186709.03125,P15,D09,0,1,1
228,-24.0,6.0,57.0,1645186709.0625,P15,D09,0,1,1
229,-26.0,5.0,57.0,1645186709.09375,P15,D09,0,1,1
230,-26.0,3.0,58.0,1645186709.125,P15,D09,0,1,1
231,-28.0,3.0,57.0,1645186709.15625,P15,D09,0,1,1
232,-26.0,2.0,57.0,1645186709.1875,P15,D09,0,1,1
233,-22.0,4.0,59.0,1645186709.21875,P15,D09,0,1,1
234,-26.0,4.0,57.0,1645186709.25,P15,D09,0,1,1
235,-28.0,4.0,57.0,1645186709.28125,P15,D09,0,1,1
236,-28.0,3.0,57.0,1645186709.3125,P15,D09,0,1,1
237,-28.0,3.0,57.0,1645186709.34375,P15,D09,0,1,1
238,-28.0,2.0,56.0,1645186709.375,P15,D09,0,1,1
239,-27.0,3.0,57.0,1645186709.40625,P15,D09,0,1,1
240,-29.0,3.0,56.0,1645186709.4375,P15,D09,0,1,1
241,-28.0,3.0,56.0,1645186709.46875,P15,D09,0,1,1
242,-28.0,3.0,57.0,1645186709.5,P15,D09,0,1,1
243,-28.0,2.0,56.0,1645186709.53125,P15,D09,0,1,1
244,-28.0,3.0,57.0,1645186709.5625,P15,D09,0,1,1
245,-28.0,3.0,57.0,1645186709.59375,P15,D09,0,1,1
246,-28.0,3.0,57.0,1645186709.625,P15,D09,0,1,1
247,-29.0,3.0,56.0,1645186709.65625,P15,D09,0,1,1
248,-27.0,4.0,56.0,1645186709.6875,P15,D09,0,1,1
249,-28.0,3.0,57.0,1645186709.71875,P15,D09,0,1,1
250,-30.0,3.0,55.0,1645186709.75,P15,D09,0,1,1
251,-28.0,4.0,57.0,1645186709.78125,P15,D09,0,1,1
252,-28.0,3.0,57.0,1645186709.8125,P15,D09,0,1,1
253,-28.0,3.0,57.0,1645186709.84375,P15,D09,0,1,1
254,-28.0,3.0,56.0,1645186709.875,P15,D09,0,1,1
255,-28.0,3.0,57.0,1645186709.90625,P15,D09,0,1,1
256,-29.0,3.0,56.0,1645186709.9375,P15,D09,0,1,1
257,-28.0,3.0,56.0,1645186709.96875,P15,D09,0,1,1
258,-27.0,3.0,57.0,1645186710.0,P15,D09,0,1,1
259,-29.0,3.0,56.0,1645186710.03125,P15,D09,0,1,1
260,-30.0,3.0,56.0,1645186710.0625,P15,D09,0,1,1
261,-28.0,3.0,56.0,1645186710.09375,P15,D09,0,1,1
262,-28.0,3.0,57.0,1645186710.125,P15,D09,0,1,1
263,-28.0,3.0,56.0,1645186710.15625,P15,D09,0,1,1
264,-28.0,3.0,56.0,1645186710.1875,P15,D09,0,1,1
265,-29.0,3.0,56.0,1645186710.21875,P15,D09,0,1,1
266,-28.0,3.0,56.0,1645186710.25,P15,D09,0,1,1
267,-28.0,3.0,56.0,1645186710.28125,P15,D09,0,1,1
268,-28.0,4.0,56.0,1645186710.3125,P15,D09,0,1,1
269,-28.0,3.0,57.0,1645186710.34375,P15,D09,0,1,1
270,-28.0,4.0,56.0,1645186710.375,P15,D09,0,1,1
271,-28.0,3.0,57.0,1645186710.40625,P15,D09,0,1,1
272,-29.0,4.0,56.0,1645186710.4375,P15,D09,0,1,1
273,-28.0,3.0,57.0,1645186710.46875,P15,D09,0,1,1
274,-28.0,3.0,57.0,1645186710.5,P15,D09,0,1,1
275,-28.0,3.0,57.0,1645186710.53125,P15,D09,0,1,1
276,-29.0,4.0,56.0,1645186710.5625,P15,D09,0,1,1
277,-28.0,3.0,56.0,1645186710.59375,P15,D09,0,1,1
278,-28.0,4.0,57.0,1645186710.625,P15,D09,0,1,1
279,-29.0,4.0,56.0,1645186710.65625,P15,D09,0,1,1
280,-28.0,3.0,56.0,1645186710.6875,P15,D09,0,1,1
281,-28.0,3.0,57.0,1645186710.71875,P15,D09,0,1,1
282,-28.0,4.0,57.0,1645186710.75,P15,D09,0,1,1
283,-28.0,3.0,57.0,1645186710.78125,P15,D09,0,1,1
284,-28.0,4.0,56.0,1645186710.8125,P15,D09,0,1,1
285,-29.0,3.0,56.0,1645186710.84375,P15,D09,0,1,1
286,-28.0,3.0,56.0,1645186710.875,P15,D09,0,1,1
287,-29.0,3.0,56.0,1645186710.90625,P15,D09,0,1,1
288,-28.0,3.0,56.0,1645186710.9375,P15,D09,0,1,1
289,-28.0,3.0,57.0,1645186710.96875,P15,D09,0,1,1
290,-29.0,3.0,56.0,1645186711.0,P15,D09,0,1,1
291,-28.0,3.0,56.0,1645186711.03125,P15,D09,0,1,1
292,-29.0,3.0,56.0,1645186711.0625,P15,D09,0,1,1
293,-29.0,4.0,56.0,1645186711.09375,P15,D09,0,1,1
294,-28.0,3.0,57.0,1645186711.125,P15,D09,0,1,1
295,-29.0,3.0,56.0,1645186711.15625,P15,D09,0,1,1
296,-28.0,3.0,56.0,1645186711.1875,P15,D09,0,1,1
297,-29.0,3.0,56.0,1645186711.21875,P15,D09,0,1,1
298,-29.0,3.0,56.0,1645186711.25,P15,D09,0,1,1
299,-28.0,3.0,56.0,1645186711.28125,P15,D09,0,1,1
300,-28.0,3.0,56.0,1645186711.3125,P15,D09,0,1,1
301,-29.0,3.0,56.0,1645186711.34375,P15,D09,0,1,1
302,-29.0,3.0,56.0,1645186711.375,P15,D09,0,1,1
303,-28.0,3.0,56.0,1645186711.40625,P15,D09,0,1,1
304,-29.0,3.0,56.0,1645186711.4375,P15,D09,0,1,1
305,-29.0,3.0,56.0,1645186711.46875,P15,D09,0,1,1
306,-29.0,3.0,56.0,1645186711.5,P15,D09,0,1,1
307,-29.0,3.0,56.0,1645186711.53125,P15,D09,0,1,1
308,-29.0,3.0,56.0,1645186711.5625,P15,D09,0,1,1
309,-29.0,3.0,56.0,1645186711.59375,P15,D09,0,1,1
310,-29.0,3.0,56.0,1645186711.625,P15,D09,0,1,1
311,-28.0,3.0,56.0,1645186711.65625,P15,D09,0,1,1
312,-29.0,3.0,56.0,1645186711.6875,P15,D09,0,1,1
313,-29.0,3.0,56.0,1645186711.71875,P15,D09,0,1,1
314,-29.0,4.0,56.0,1645186711.75,P15,D09,0,1,1
315,-29.0,3.0,56.0,1645186711.78125,P15,D09,0,1,1
316,-29.0,3.0,56.0,1645186711.8125,P15,D09,0,1,1
317,-28.0,3.0,56.0,1645186711.84375,P15,D09,0,1,1
318,-28.0,3.0,57.0,1645186711.875,P15,D09,0,1,1
319,-29.0,3.0,56.0,1645186711.90625,P15,D09,0,1,1
320,-29.0,4.0,56.0,1645186711.9375,P15,D09,0,1,1
321,-28.0,3.0,56.0,1645186711.96875,P15,D09,0,1,1
322,-26.0,3.0,58.0,1645186712.0,P15,D09,0,1,1
323,-32.0,2.0,55.0,1645186712.03125,P15,D09,0,1,1
324,-31.0,4.0,55.0,1645186712.0625,P15,D09,0,1,1
325,-26.0,3.0,57.0,1645186712.09375,P15,D09,0,1,1
326,-28.0,4.0,56.0,1645186712.125,P15,D09,0,1,1
327,-30.0,3.0,55.0,1645186712.15625,P15,D09,0,1,1
328,-29.0,3.0,56.0,1645186712.1875,P15,D09,0,1,1
329,-28.0,3.0,56.0,1645186712.21875,P15,D09,0,1,1
330,-30.0,3.0,56.0,1645186712.25,P15,D09,0,1,1
331,-30.0,3.0,56.0,1645186712.28125,P15,D09,0,1,1
332,-28.0,3.0,56.0,1645186712.3125,P15,D09,0,1,1
333,-28.0,3.0,57.0,1645186712.34375,P15,D09,0,1,1
334,-30.0,4.0,56.0,1645186712.375,P15,D09,0,1,1
335,-30.0,3.0,56.0,1645186712.40625,P15,D09,0,1,1
336,-28.0,3.0,56.0,1645186712.4375,P15,D09,0,1,1
337,-29.0,3.0,56.0,1645186712.46875,P15,D09,0,1,1
338,-29.0,3.0,56.0,1645186712.5,P15,D09,0,1,1
339,-29.0,3.0,56.0,1645186712.53125,P15,D09,0,1,1
340,-28.0,3.0,56.0,1645186712.5625,P15,D09,0,1,1
341,-30.0,3.0,56.0,1645186712.59375,P15,D09,0,1,1
342,-29.0,4.0,56.0,1645186712.625,P15,D09,0,1,1
343,-29.0,3.0,56.0,1645186712.65625,P15,D09,0,1,1
344,-29.0,3.0,56.0,1645186712.6875,P15,D09,0,1,1
345,-29.0,3.0,56.0,1645186712.71875,P15,D09,0,1,1
346,-29.0,4.0,56.0,1645186712.75,P15,D09,0,1,1
347,-29.0,3.0,56.0,1645186712.78125,P15,D09,0,1,1
348,-29.0,3.0,56.0,1645186712.8125,P15,D09,0,1,1
349,-29.0,3.0,56.0,1645186712.84375,P15,D09,0,1,1
350,-28.0,3.0,56.0,1645186712.875,P15,D09,0,1,1
351,-29.0,3.0,56.0,1645186712.90625,P15,D09,0,1,1
352,-29.0,3.0,56.0,1645186712.9375,P15,D09,0,1,1
353,-28.0,4.0,57.0,1645186712.96875,P15,D09,0,1,1
354,-31.0,3.0,55.0,1645186713.0,P15,D09,0,1,1
355,-30.0,4.0,55.0,1645186713.03125,P15,D09,0,1,1
356,-28.0,4.0,56.0,1645186713.0625,P15,D09,0,1,1
357,-30.0,3.0,56.0,1645186713.09375,P15,D09,0,1,1
358,-28.0,3.0,57.0,1645186713.125,P15,D09,0,1,1
359,-28.0,4.0,56.0,1645186713.15625,P15,D09,0,1,1
360,-30.0,3.0,56.0,1645186713.1875,P15,D09,0,1,1
361,-29.0,3.0,56.0,1645186713.21875,P15,D09,0,1,1
362,-28.0,3.0,56.0,1645186713.25,P15,D09,0,1,1
363,-29.0,3.0,56.0,1645186713.28125,P15,D09,0,1,1
364,-29.0,3.0,56.0,1645186713.3125,P15,D09,0,1,1
365,-29.0,4.0,56.0,1645186713.34375,P15,D09,0,1,1
366,-30.0,3.0,56.0,1645186713.375,P15,D09,0,1,1
367,-28.0,4.0,56.0,1645186713.40625,P15,D09,0,1,1
368,-28.0,3.0,56.0,1645186713.4375,P15,D09,0,1,1
369,-29.0,3.0,56.0,1645186713.46875,P15,D09,0,1,1
370,-29.0,3.0,56.0,1645186713.5,P15,D09,0,1,1
371,-29.0,4.0,56.0,1645186713.53125,P15,D09,0,1,1
372,-29.0,4.0,56.0,1645186713.5625,P15,D09,0,1,1
373,-29.0,3.0,56.0,1645186713.59375,P15,D09,0,1,1
374,-29.0,3.0,56.0,1645186713.625,P15,D09,0,1,1
375,-28.0,4.0,56.0,1645186713.65625,P15,D09,0,1,1
376,-29.0,3.0,56.0,1645186713.6875,P15,D09,0,1,1
377,-29.0,4.0,56.0,1645186713.71875,P15,D09,0,1,1
378,-29.0,3.0,56.0,1645186713.75,P15,D09,0,1,1
379,-29.0,4.0,56.0,1645186713.78125,P15,D09,0,1,1
380,-28.0,4.0,56.0,1645186713.8125,P15,D09,0,1,1
381,-27.0,3.0,57.0,1645186713.84375,P15,D09,0,1,1
382,-32.0,3.0,55.0,1645186713.875,P15,D09,0,1,1
383,-31.0,4.0,55.0,1645186713.90625,P15,D09,0,1,1
384,-27.0,3.0,57.0,1645186713.9375,P15,D09,0,1,1
385,-29.0,4.0,56.0,1645186713.96875,P15,D09,0,1,1
386,-30.0,3.0,56.0,1645186714.0,P15,D09,0,1,1
387,-29.0,4.0,56.0,1645186714.03125,P15,D09,0,1,1
388,-28.0,4.0,56.0,1645186714.0625,P15,D09,0,1,1
389,-30.0,3.0,56.0,1645186714.09375,P15,D09,0,1,1
390,-29.0,3.0,56.0,1645186714.125,P15,D09,0,1,1
391,-29.0,4.0,56.0,1645186714.15625,P15,D09,0,1,1
392,-30.0,3.0,56.0,1645186714.1875,P15,D09,0,1,1
393,-30.0,3.0,56.0,1645186714.21875,P15,D09,0,1,1
394,-29.0,4.0,56.0,1645186714.25,P15,D09,0,1,1
395,-29.0,4.0,56.0,1645186714.28125,P15,D09,0,1,1
396,-29.0,3.0,56.0,1645186714.3125,P15,D09,0,1,1
397,-28.0,4.0,56.0,1645186714.34375,P15,D09,0,1,1
398,-29.0,4.0,56.0,1645186714.375,P15,D09,0,1,1
399,-29.0,3.0,56.0,1645186714.40625,P15,D09,0,1,1
400,-28.0,3.0,56.0,1645186714.4375,P15,D09,0,1,1
401,-29.0,3.0,56.0,1645186714.46875,P15,D09,0,1,1
402,-29.0,3.0,56.0,1645186714.5,P15,D09,0,1,1
403,-29.0,3.0,56.0,1645186714.53125,P15,D09,0,1,1
404,-29.0,3.0,56.0,1645186714.5625,P15,D09,0,1,1
405,-29.0,4.0,56.0,1645186714.59375,P15,D09,0,1,1
406,-29.0,4.0,56.0,1645186714.625,P15,D09,0,1,1
407,-29.0,4.0,56.0,1645186714.65625,P15,D09,0,1,1
408,-29.0,4.0,56.0,1645186714.6875,P15,D09,0,1,1
409,-29.0,3.0,56.0,1645186714.71875,P15,D09,0,1,1
410,-29.0,4.0,56.0,1645186714.75,P15,D09,0,1,1
411,-29.0,4.0,56.0,1645186714.78125,P15,D09,0,1,1
412,-29.0,3.0,56.0,1645186714.8125,P15,D09,0,1,1
413,-29.0,3.0,56.0,1645186714.84375,P15,D09,0,1,1
414,-30.0,3.0,56.0,1645186714.875,P15,D09,0,1,1
415,-29.0,3.0,56.0,1645186714.90625,P15,D09,0,1,1
416,-29.0,4.0,56.0,1645186714.9375,P15,D09,0,1,1
417,-30.0,3.0,55.0,1645186714.96875,P15,D09,0,1,1
418,-29.0,3.0,56.0,1645186715.0,P15,D09,0,1,1
419,-28.0,3.0,56.0,1645186715.03125,P15,D09,0,1,1
420,-30.0,3.0,55.0,1645186715.0625,P15,D09,0,1,1
421,-28.0,3.0,56.0,1645186715.09375,P15,D09,0,1,1
422,-30.0,3.0,56.0,1645186715.125,P15,D09,0,1,1
423,-30.0,3.0,56.0,1645186715.15625,P15,D09,0,1,1
424,-28.0,3.0,56.0,1645186715.1875,P15,D09,0,1,1
425,-28.0,3.0,56.0,1645186715.21875,P15,D09,0,1,1
426,-30.0,3.0,56.0,1645186715.25,P15,D09,0,1,1
427,-29.0,3.0,56.0,1645186715.28125,P15,D09,0,1,1
428,-29.0,4.0,56.0,1645186715.3125,P15,D09,0,1,1
429,-30.0,4.0,56.0,1645186715.34375,P15,D09,0,1,1
430,-29.0,4.0,56.0,1645186715.375,P15,D09,0,1,1
431,-29.0,3.0,56.0,1645186715.40625,P15,D09,0,1,1
432,-29.0,4.0,56.0,1645186715.4375,P15,D09,0,1,1
433,-29.0,4.0,55.0,1645186715.46875,P15,D09,0,1,1
434,-29.0,3.0,56.0,1645186715.5,P15,D09,0,1,1
435,-29.0,4.0,56.0,1645186715.53125,P15,D09,0,1,1
436,-29.0,3.0,56.0,1645186715.5625,P15,D09,0,1,1
437,-29.0,3.0,56.0,1645186715.59375,P15,D09,0,1,1
438,-29.0,3.0,56.0,1645186715.625,P15,D09,0,1,1
439,-29.0,4.0,56.0,1645186715.65625,P15,D09,0,1,1
440,-29.0,3.0,56.0,1645186715.6875,P15,D09,0,1,1
441,-29.0,3.0,56.0,1645186715.71875,P15,D09,0,1,1
442,-29.0,4.0,56.0,1645186715.75,P15,D09,0,1,1
443,-28.0,3.0,56.0,1645186715.78125,P15,D09,0,1,1
444,-29.0,3.0,56.0,1645186715.8125,P15,D09,0,1,1
445,-30.0,3.0,56.0,1645186715.84375,P15,D09,0,1,1
446,-29.0,3.0,56.0,1645186715.875,P15,D09,0,1,1
447,-28.0,4.0,57.0,1645186715.90625,P15,D09,0,1,1
448,-29.0,3.0,56.0,1645186715.9375,P15,D09,0,1,1
449,-29.0,3.0,56.0,1645186715.96875,P15,D09,0,1,1
450,-29.0,4.0,56.0,1645186716.0,P15,D09,0,1,1
451,-29.0,4.0,56.0,1645186716.03125,P15,D09,0,1,1
452,-29.0,4.0,56.0,1645186716.0625,P15,D09,0,1,1
453,-29.0,3.0,56.0,1645186716.09375,P15,D09,0,1,1
454,-29.0,3.0,56.0,1645186716.125,P15,D09,0,1,1
455,-30.0,3.0,55.0,1645186716.15625,P15,D09,0,1,1
456,-29.0,3.0,56.0,1645186716.1875,P15,D09,0,1,1
457,-28.0,4.0,56.0,1645186716.21875,P15,D09,0,1,1
458,-29.0,3.0,56.0,1645186716.25,P15,D09,0,1,1
459,-29.0,4.0,56.0,1645186716.28125,P15,D09,0,1,1
460,-29.0,3.0,56.0,1645186716.3125,P15,D09,0,1,1
461,-29.0,3.0,56.0,1645186716.34375,P15,D09,0,1,1
462,-28.0,3.0,56.0,1645186716.375,P15,D09,0,1,1
463,-29.0,3.0,56.0,1645186716.40625,P15,D09,0,1,1
464,-29.0,3.0,56.0,1645186716.4375,P15,D09,0,1,1
465,-28.0,3.0,56.0,1645186716.46875,P15,D09,0,1,1
466,-29.0,3.0,56.0,1645186716.5,P15,D09,0,1,1
467,-29.0,3.0,56.0,1645186716.53125,P15,D09,0,1,1
468,-29.0,3.0,56.0,1645186716.5625,P15,D09,0,1,1
469,-30.0,4.0,56.0,1645186716.59375,P15,D09,0,1,1
470,-29.0,3.0,56.0,1645186716.625,P15,D09,0,1,1
471,-28.0,3.0,56.0,1645186716.65625,P15,D09,0,1,1
472,-29.0,3.0,56.0,1645186716.6875,P15,D09,0,1,1
473,-29.0,3.0,56.0,1645186716.71875,P15,D09,0,1,1
474,-29.0,3.0,56.0,1645186716.75,P15,D09,0,1,1
475,-29.0,4.0,56.0,1645186716.78125,P15,D09,0,1,1
476,-28.0,4.0,57.0,1645186716.8125,P15,D09,0,1,1
477,-29.0,4.0,56.0,1645186716.84375,P15,D09,0,1,1
478,-28.0,4.0,56.0,1645186716.875,P15,D09,0,1,1
479,-28.0,3.0,56.0,1645186716.90625,P15,D09,0,1,1
480,-28.0,3.0,56.0,1645186716.9375,P15,D09,0,1,1
481,-29.0,3.0,56.0,1645186716.96875,P15,D09,0,1,1
482,-29.0,3.0,56.0,1645186717.0,P15,D09,0,1,1
483,-28.0,3.0,56.0,1645186717.03125,P15,D09,0,1,1
484,-29.0,3.0,56.0,1645186717.0625,P15,D09,0,1,1
485,-29.0,3.0,56.0,1645186717.09375,P15,D09,0,1,1
486,-29.0,4.0,56.0,1645186717.125,P15,D09,0,1,1
487,-28.0,4.0,56.0,1645186717.15625,P15,D09,0,1,1
488,-30.0,3.0,56.0,1645186717.1875,P15,D09,0,1,1
489,-29.0,3.0,56.0,1645186717.21875,P15,D09,0,1,1
490,-28.0,4.0,56.0,1645186717.25,P15,D09,0,1,1
491,-29.0,3.0,56.0,1645186717.28125,P15,D09,0,1,1
492,-29.0,4.0,56.0,1645186717.3125,P15,D09,0,1,1
493,-28.0,3.0,57.0,1645186717.34375,P15,D09,0,1,1
494,-29.0,4.0,56.0,1645186717.375,P15,D09,0,1,1
495,-29.0,4.0,56.0,1645186717.40625,P15,D09,0,1,1
496,-29.0,4.0,56.0,1645186717.4375,P15,D09,0,1,1
497,-29.0,3.0,56.0,1645186717.46875,P15,D09,0,1,1
498,-28.0,4.0,56.0,1645186717.5,P15,D09,0,1,1
499,-29.0,4.0,56.0,1645186717.53125,P15,D09,0,1,1
500,-29.0,3.0,56.0,1645186717.5625,P15,D09,0,1,1
501,-29.0,3.0,56.0,1645186717.59375,P15,D09,0,1,1
502,-29.0,3.0,56.0,1645186717.625,P15,D09,0,1,1
503,-28.0,4.0,56.0,1645186717.65625,P15,D09,0,1,1
504,-29.0,3.0,56.0,1645186717.6875,P15,D09,0,1,1
505,-29.0,3.0,56.0,1645186717.71875,P15,D09,0,1,1
506,-29.0,4.0,56.0,1645186717.75,P15,D09,0,1,1
507,-29.0,4.0,56.0,1645186717.78125,P15,D09,0,1,1
508,-29.0,4.0,57.0,1645186717.8125,P15,D09,0,1,1
509,-29.0,3.0,56.0,1645186717.84375,P15,D09,0,1,1
510,-29.0,3.0,56.0,1645186717.875,P15,D09,0,1,1
511,-29.0,4.0,56.0,1645186717.90625,P15,D09,0,1,1
512,-29.0,4.0,56.0,1645186717.9375,P15,D09,0,1,1
513,-28.0,4.0,56.0,1645186717.96875,P15,D09,0,1,1
514,-29.0,4.0,56.0,1645186718.0,P15,D09,0,1,1
515,-30.0,3.0,55.0,1645186718.03125,P15,D09,0,1,1
516,-28.0,4.0,57.0,1645186718.0625,P15,D09,0,1,1
517,-28.0,4.0,56.0,1645186718.09375,P15,D09,0,1,1
518,-29.0,3.0,56.0,1645186718.125,P15,D09,0,1,1
519,-28.0,3.0,56.0,1645186718.15625,P15,D09,0,1,1
520,-29.0,4.0,56.0,1645186718.1875,P15,D09,0,1,1
521,-29.0,4.0,56.0,1645186718.21875,P15,D09,0,1,1
522,-29.0,3.0,56.0,1645186718.25,P15,D09,0,1,1
523,-29.0,4.0,56.0,1645186718.28125,P15,D09,0,1,1
524,-29.0,4.0,56.0,1645186718.3125,P15,D09,0,1,1
525,-29.0,4.0,56.0,1645186718.34375,P15,D09,0,1,1
526,-29.0,4.0,56.0,1645186718.375,P15,D09,0,1,1
527,-29.0,3.0,56.0,1645186718.40625,P15,D09,0,1,1
528,-30.0,4.0,55.0,1645186718.4375,P15,D09,0,1,1
529,-28.0,3.0,56.0,1645186718.46875,P15,D09,0,1,1
530,-28.0,4.0,57.0,1645186718.5,P15,D09,0,1,1
531,-29.0,3.0,56.0,1645186718.53125,P15,D09,0,1,1
532,-29.0,3.0,56.0,1645186718.5625,P15,D09,0,1,1
533,-29.0,3.0,56.0,1645186718.59375,P15,D09,0,1,1
534,-29.0,3.0,56.0,1645186718.625,P15,D09,0,1,1
535,-29.0,3.0,56.0,1645186718.65625,P15,D09,0,1,1
536,-29.0,3.0,56.0,1645186718.6875,P15,D09,0,1,1
537,-29.0,4.0,56.0,1645186718.71875,P15,D09,0,1,1
538,-29.0,3.0,56.0,1645186718.75,P15,D09,0,1,1
539,-29.0,3.0,56.0,1645186718.78125,P15,D09,0,1,1
540,-29.0,3.0,56.0,1645186718.8125,P15,D09,0,1,1
541,-29.0,4.0,56.0,1645186718.84375,P15,D09,0,1,1
542,-29.0,3.0,56.0,1645186718.875,P15,D09,0,1,1
543,-29.0,3.0,56.0,1645186718.90625,P15,D09,0,1,1
544,-29.0,3.0,56.0,1645186718.9375,P15,D09,0,1,1
545,-29.0,3.0,56.0,1645186718.96875,P15,D09,0,1,1
546,-29.0,3.0,56.0,1645186719.0,P15,D09,0,1,1
547,-29.0,4.0,56.0,1645186719.03125,P15,D09,0,1,1
548,-28.0,3.0,56.0,1645186719.0625,P15,D09,0,1,1
549,-29.0,3.0,56.0,1645186719.09375,P15,D09,0,1,1
550,-29.0,3.0,56.0,1645186719.125,P15,D09,0,1,1
551,-29.0,4.0,56.0,1645186719.15625,P15,D09,0,1,1
552,-29.0,4.0,56.0,1645186719.1875,P15,D09,0,1,1
553,-29.0,3.0,56.0,1645186719.21875,P15,D09,0,1,1
554,-29.0,3.0,56.0,1645186719.25,P15,D09,0,1,1
555,-29.0,4.0,56.0,1645186719.28125,P15,D09,0,1,1
556,-29.0,3.0,56.0,1645186719.3125,P15,D09,0,1,1
557,-28.0,3.0,56.0,1645186719.34375,P15,D09,0,1,1
558,-29.0,3.0,56.0,1645186719.375,P15,D09,0,1,1
559,-29.0,3.0,56.0,1645186719.40625,P15,D09,0,1,1
560,-29.0,3.0,56.0,1645186719.4375,P15,D09,0,1,1
561,-29.0,4.0,56.0,1645186719.46875,P15,D09,0,1,1
562,-29.0,3.0,56.0,1645186719.5,P15,D09,0,1,1
563,-29.0,4.0,56.0,1645186719.53125,P15,D09,0,1,1
564,-29.0,3.0,56.0,1645186719.5625,P15,D09,0,1,1
565,-30.0,3.0,56.0,1645186719.59375,P15,D09,0,1,1
566,-29.0,3.0,56.0,1645186719.625,P15,D09,0,1,1
567,-28.0,3.0,56.0,1645186719.65625,P15,D09,0,1,1
568,-29.0,3.0,56.0,1645186719.6875,P15,D09,0,1,1
569,-30.0,3.0,56.0,1645186719.71875,P15,D09,0,1,1
570,-29.0,4.0,56.0,1645186719.75,P15,D09,0,1,1
571,-29.0,3.0,56.0,1645186719.78125,P15,D09,0,1,1
572,-28.0,3.0,56.0,1645186719.8125,P15,D09,0,1,1
573,-29.0,3.0,56.0,1645186719.84375,P15,D09,0,1,1
574,-30.0,3.0,56.0,1645186719.875,P15,D09,0,1,1
575,-28.0,3.0,56.0,1645186719.90625,P15,D09,0,1,1
576,-29.0,3.0,56.0,1645186719.9375,P15,D09,0,1,1
577,-29.0,3.0,56.0,1645186719.96875,P15,D09,0,1,1
578,-29.0,3.0,56.0,1645186720.0,P15,D09,0,1,1
579,-29.0,3.0,56.0,1645186720.03125,P15,D09,0,1,1
580,-29.0,3.0,56.0,1645186720.0625,P15,D09,0,1,1
581,-29.0,3.0,56.0,1645186720.09375,P15,D09,0,1,1
582,-28.0,3.0,56.0,1645186720.125,P15,D09,0,1,1
583,-29.0,3.0,56.0,1645186720.15625,P15,D09,0,1,1
584,-29.0,3.0,56.0,1645186720.1875,P15,D09,0,1,1
585,-28.0,4.0,56.0,1645186720.21875,P15,D09,0,1,1
586,-29.0,3.0,56.0,1645186720.25,P15,D09,0,1,1
587,-29.0,3.0,56.0,1645186720.28125,P15,D09,0,1,1
588,-29.0,3.0,56.0,1645186720.3125,P15,D09,0,1,1
589,-29.0,3.0,55.0,1645186720.34375,P15,D09,0,1,1
590,-29.0,3.0,56.0,1645186720.375,P15,D09,0,1,1
591,-29.0,3.0,56.0,1645186720.40625,P15,D09,0,1,1
592,-29.0,3.0,55.0,1645186720.4375,P15,D09,0,1,1
593,-29.0,3.0,56.0,1645186720.46875,P15,D09,0,1,1
594,-29.0,3.0,56.0,1645186720.5,P15,D09,0,1,1
595,-29.0,3.0,56.0,1645186720.53125,P15,D09,0,1,1
596,-29.0,3.0,56.0,1645186720.5625,P15,D09,0,1,1
597,-29.0,3.0,56.0,1645186720.59375,P15,D09,0,1,1
598,-29.0,4.0,56.0,1645186720.625,P15,D09,0,1,1
599,-29.0,3.0,56.0,1645186720.65625,P15,D09,0,1,1
600,-29.0,3.0,56.0,1645186720.6875,P15,D09,0,1,1
601,-29.0,3.0,56.0,1645186720.71875,P15,D09,0,1,1
602,-29.0,4.0,56.0,1645186720.75,P15,D09,0,1,1
603,-29.0,4.0,56.0,1645186720.78125,P15,D09,0,1,1
604,-29.0,3.0,56.0,1645186720.8125,P15,D09,0,1,1
605,-29.0,3.0,56.0,1645186720.84375,P15,D09,0,1,1
606,-29.0,3.0,56.0,1645186720.875,P15,D09,0,1,1
607,-29.0,3.0,56.0,1645186720.90625,P15,D09,0,1,1
608,-28.0,3.0,56.0,1645186720.9375,P15,D09,0,1,1
609,-29.0,4.0,56.0,1645186720.96875,P15,D09,0,1,1
610,-29.0,3.0,56.0,1645186721.0,P15,D09,0,1,1
611,-29.0,3.0,56.0,1645186721.03125,P15,D09,0,1,1
612,-28.0,3.0,56.0,1645186721.0625,P15,D09,0,1,1
613,-29.0,4.0,56.0,1645186721.09375,P15,D09,0,1,1
614,-28.0,3.0,57.0,1645186721.125,P15,D09,0,1,1
615,-29.0,3.0,56.0,1645186721.15625,P15,D09,0,1,1
616,-29.0,3.0,56.0,1645186721.1875,P15,D09,0,1,1
617,-29.0,4.0,56.0,1645186721.21875,P15,D09,0,1,1
618,-28.0,3.0,56.0,1645186721.25,P15,D09,0,1,1
619,-29.0,4.0,56.0,1645186721.28125,P15,D09,0,1,1
620,-29.0,3.0,56.0,1645186721.3125,P15,D09,0,1,1
621,-29.0,3.0,56.0,1645186721.34375,P15,D09,0,1,1
622,-29.0,4.0,56.0,1645186721.375,P15,D09,0,1,1
623,-28.0,4.0,56.0,1645186721.40625,P15,D09,0,1,1
624,-30.0,4.0,56.0,1645186721.4375,P15,D09,0,1,1
625,-29.0,3.0,56.0,1645186721.46875,P15,D09,0,1,1
626,-28.0,3.0,57.0,1645186721.5,P15,D09,0,1,1
627,-29.0,3.0,57.0,1645186721.53125,P15,D09,0,1,1
628,-29.0,3.0,56.0,1645186721.5625,P15,D09,0,1,1
629,-29.0,4.0,56.0,1645186721.59375,P15,D09,0,1,1
630,-28.0,3.0,56.0,1645186721.625,P15,D09,0,1,1
631,-29.0,3.0,56.0,1645186721.65625,P15,D09,0,1,1
632,-29.0,4.0,56.0,1645186721.6875,P15,D09,0,1,1
633,-29.0,4.0,56.0,1645186721.71875,P15,D09,0,1,1
634,-29.0,3.0,56.0,1645186721.75,P15,D09,0,1,1
635,-29.0,4.0,56.0,1645186721.78125,P15,D09,0,1,1
636,-28.0,3.0,56.0,1645186721.8125,P15,D09,0,1,1
637,-29.0,3.0,56.0,1645186721.84375,P15,D09,0,1,1
638,-29.0,3.0,56.0,1645186721.875,P15,D09,0,1,1
639,-29.0,3.0,56.0,1645186721.90625,P15,D09,0,1,1
640,-29.0,4.0,56.0,1645186721.9375,P15,D09,0,1,1
641,-29.0,3.0,56.0,1645186721.96875,P15,D09,0,1,1
642,-29.0,3.0,56.0,1645186722.0,P15,D09,0,1,1
643,-29.0,4.0,56.0,1645186722.03125,P15,D09,0,1,1
644,-29.0,4.0,56.0,1645186722.0625,P15,D09,0,1,1
645,-29.0,3.0,56.0,1645186722.09375,P15,D09,0,1,1
646,-29.0,3.0,56.0,1645186722.125,P15,D09,0,1,1
647,-29.0,4.0,56.0,1645186722.15625,P15,D09,0,1,1
648,-29.0,4.0,56.0,1645186722.1875,P15,D09,0,1,1
649,-28.0,3.0,56.0,1645186722.21875,P15,D09,0,1,1
650,-28.0,3.0,56.0,1645186722.25,P15,D09,0,1,1
651,-29.0,3.0,56.0,1645186722.28125,P15,D09,0,1,1
652,-30.0,3.0,55.0,1645186722.3125,P15,D09,0,1,1
653,-28.0,4.0,56.0,1645186722.34375,P15,D09,0,1,1
654,-29.0,3.0,56.0,1645186722.375,P15,D09,0,1,1
655,-30.0,3.0,56.0,1645186722.40625,P15,D09,0,1,1
656,-29.0,4.0,56.0,1645186722.4375,P15,D09,0,1,1
657,-29.0,3.0,56.0,1645186722.46875,P15,D09,0,1,1
658,-30.0,3.0,55.0,1645186722.5,P15,D09,0,1,1
659,-29.0,4.0,56.0,1645186722.53125,P15,D09,0,1,1
660,-29.0,3.0,56.0,1645186722.5625,P15,D09,0,1,1
661,-30.0,3.0,56.0,1645186722.59375,P15,D09,0,1,1
662,-29.0,3.0,56.0,1645186722.625,P15,D09,0,1,1
663,-29.0,4.0,56.0,1645186722.65625,P15,D09,0,1,1
664,-30.0,3.0,55.0,1645186722.6875,P15,D09,0,1,1
665,-29.0,3.0,56.0,1645186722.71875,P15,D09,0,1,1
666,-29.0,3.0,56.0,1645186722.75,P15,D09,0,1,1
667,-29.0,4.0,55.0,1645186722.78125,P15,D09,0,1,1
668,-28.0,3.0,56.0,1645186722.8125,P15,D09,0,1,1
669,-29.0,3.0,56.0,1645186722.84375,P15,D09,0,1,1
670,-29.0,3.0,56.0,1645186722.875,P15,D09,0,1,1
671,-29.0,3.0,56.0,1645186722.90625,P15,D09,0,1,1
672,-29.0,3.0,56.0,1645186722.9375,P15,D09,0,1,1
673,-29.0,3.0,56.0,1645186722.96875,P15,D09,0,1,1
674,-29.0,3.0,56.0,1645186723.0,P15,D09,0,1,1
675,-29.0,3.0,56.0,1645186723.03125,P15,D09,0,1,1
676,-29.0,3.0,56.0,1645186723.0625,P15,D09,0,1,1
677,-29.0,3.0,56.0,1645186723.09375,P15,D09,0,1,1
678,-29.0,3.0,56.0,1645186723.125,P15,D09,0,1,1
679,-29.0,3.0,56.0,1645186723.15625,P15,D09,0,1,1
680,-29.0,4.0,56.0,1645186723.1875,P15,D09,0,1,1
681,-29.0,3.0,56.0,1645186723.21875,P15,D09,0,1,1
682,-29.0,4.0,56.0,1645186723.25,P15,D09,0,1,1
683,-29.0,4.0,56.0,1645186723.28125,P15,D09,0,1,1
684,-29.0,4.0,56.0,1645186723.3125,P15,D09,0,1,1
685,-29.0,3.0,56.0,1645186723.34375,P15,D09,0,1,1
686,-29.0,3.0,56.0,1645186723.375,P15,D09,0,1,1
687,-29.0,4.0,55.0,1645186723.40625,P15,D09,0,1,1
688,-29.0,3.0,56.0,1645186723.4375,P15,D09,0,1,1
689,-29.0,3.0,56.0,1645186723.46875,P15,D09,0,1,1
690,-29.0,3.0,56.0,1645186723.5,P15,D09,0,1,1
691,-29.0,3.0,56.0,1645186723.53125,P15,D09,0,1,1
692,-29.0,3.0,56.0,1645186723.5625,P15,D09,0,1,1
693,-29.0,3.0,56.0,1645186723.59375,P15,D09,0,1,1
694,-29.0,3.0,56.0,1645186723.625,P15,D09,0,1,1
695,-29.0,4.0,56.0,1645186723.65625,P15,D09,0,1,1
696,-30.0,3.0,55.0,1645186723.6875,P15,D09,0,1,1
697,-29.0,3.0,56.0,1645186723.71875,P15,D09,0,1,1
698,-29.0,4.0,56.0,1645186723.75,P15,D09,0,1,1
699,-30.0,3.0,56.0,1645186723.78125,P15,D09,0,1,1
700,-29.0,3.0,56.0,1645186723.8125,P15,D09,0,1,1
701,-30.0,4.0,56.0,1645186723.84375,P15,D09,0,1,1
702,-29.0,3.0,56.0,1645186723.875,P15,D09,0,1,1
703,-29.0,3.0,56.0,1645186723.90625,P15,D09,0,1,1
704,-29.0,3.0,56.0,1645186723.9375,P15,D09,0,1,1
705,-29.0,3.0,56.0,1645186723.96875,P15,D09,0,1,1
706,-29.0,3.0,56.0,1645186724.0,P15,D09,0,1,1
707,-29.0,3.0,56.0,1645186724.03125,P15,D09,0,1,1
708,-29.0,4.0,56.0,1645186724.0625,P15,D09,0,1,1
709,-29.0,3.0,56.0,1645186724.09375,P15,D09,0,1,1
710,-29.0,3.0,56.0,1645186724.125,P15,D09,0,1,1
711,-29.0,4.0,56.0,1645186724.15625,P15,D09,0,1,1
712,-29.0,3.0,56.0,1645186724.1875,P15,D09,0,1,1
713,-29.0,3.0,56.0,1645186724.21875,P15,D09,0,1,1
714,-29.0,3.0,56.0,1645186724.25,P15,D09,0,1,1
715,-29.0,4.0,56.0,1645186724.28125,P15,D09,0,1,1
716,-29.0,3.0,56.0,1645186724.3125,P15,D09,0,1,1
717,-29.0,4.0,56.0,1645186724.34375,P15,D09,0,1,1
718,-29.0,3.0,56.0,1645186724.375,P15,D09,0,1,1
719,-29.0,3.0,56.0,1645186724.40625,P15,D09,0,1,1
720,-29.0,4.0,56.0,1645186724.4375,P15,D09,0,1,1
721,-28.0,4.0,56.0,1645186724.46875,P15,D09,0,1,1
722,-29.0,3.0,56.0,1645186724.5,P15,D09,0,1,1
723,-29.0,4.0,56.0,1645186724.53125,P15,D09,0,1,1
724,-29.0,3.0,56.0,1645186724.5625,P15,D09,0,1,1
725,-29.0,4.0,56.0,1645186724.59375,P15,D09,0,1,1
726,-29.0,4.0,56.0,1645186724.625,P15,D09,0,1,1
727,-29.0,4.0,56.0,1645186724.65625,P15,D09,0,1,1
728,-28.0,3.0,56.0,1645186724.6875,P15,D09,0,1,1
729,-29.0,3.0,56.0,1645186724.71875,P15,D09,0,1,1
730,-29.0,3.0,56.0,1645186724.75,P15,D09,0,1,1
731,-28.0,4.0,56.0,1645186724.78125,P15,D09,0,1,1
732,-29.0,3.0,56.0,1645186724.8125,P15,D09,0,1,1
733,-29.0,3.0,56.0,1645186724.84375,P15,D09,0,1,1
734,-29.0,3.0,56.0,1645186724.875,P15,D09,0,1,1
735,-29.0,3.0,56.0,1645186724.90625,P15,D09,0,1,1
736,-29.0,3.0,56.0,1645186724.9375,P15,D09,0,1,1
737,-29.0,4.0,56.0,1645186724.96875,P15,D09,0,1,1
738,-29.0,3.0,56.0,1645186725.0,P15,D09,0,1,1
739,-29.0,3.0,56.0,1645186725.03125,P15,D09,0,1,1
740,-29.0,3.0,56.0,1645186725.0625,P15,D09,0,1,1
741,-29.0,3.0,56.0,1645186725.09375,P15,D09,0,1,1
742,-29.0,3.0,56.0,1645186725.125,P15,D09,0,1,1
743,-30.0,3.0,56.0,1645186725.15625,P15,D09,0,1,1
744,-28.0,4.0,56.0,1645186725.1875,P15,D09,0,1,1
745,-29.0,3.0,56.0,1645186725.21875,P15,D09,0,1,1
746,-29.0,4.0,56.0,1645186725.25,P15,D09,0,1,1
747,-29.0,4.0,56.0,1645186725.28125,P15,D09,0,1,1
748,-28.0,3.0,56.0,1645186725.3125,P15,D09,0,1,1
749,-30.0,3.0,56.0,1645186725.34375,P15,D09,0,1,1
750,-29.0,3.0,56.0,1645186725.375,P15,D09,0,1,1
751,-29.0,4.0,56.0,1645186725.40625,P15,D09,0,1,1
752,-29.0,3.0,56.0,1645186725.4375,P15,D09,0,1,1
753,-29.0,3.0,56.0,1645186725.46875,P15,D09,0,1,1
754,-29.0,3.0,56.0,1645186725.5,P15,D09,0,1,1
755,-29.0,3.0,56.0,1645186725.53125,P15,D09,0,1,1
756,-29.0,4.0,56.0,1645186725.5625,P15,D09,0,1,1
757,-29.0,3.0,56.0,1645186725.59375,P15,D09,0,1,1
758,-29.0,4.0,56.0,1645186725.625,P15,D09,0,1,1
759,-29.0,3.0,56.0,1645186725.65625,P15,D09,0,1,1
760,-29.0,3.0,56.0,1645186725.6875,P15,D09,0,1,1
761,-29.0,4.0,56.0,1645186725.71875,P15,D09,0,1,1
762,-29.0,3.0,56.0,1645186725.75,P15,D09,0,1,1
763,-29.0,3.0,56.0,1645186725.78125,P15,D09,0,1,1
764,-30.0,4.0,56.0,1645186725.8125,P15,D09,0,1,1
765,-29.0,4.0,56.0,1645186725.84375,P15,D09,0,1,1
766,-29.0,3.0,56.0,1645186725.875,P15,D09,0,1,1
767,-30.0,3.0,55.0,1645186725.90625,P15,D09,0,1,1
768,-28.0,4.0,56.0,1645186725.9375,P15,D09,0,1,1
769,-29.0,3.0,56.0,1645186725.96875,P15,D09,0,1,1
770,-29.0,3.0,56.0,1645186726.0,P15,D09,0,1,1
771,-31.0,3.0,55.0,1645186726.03125,P15,D09,0,1,1
772,-30.0,3.0,55.0,1645186726.0625,P15,D09,0,1,1
773,-28.0,3.0,57.0,1645186726.09375,P15,D09,0,1,1
774,-29.0,3.0,56.0,1645186726.125,P15,D09,0,1,1
775,-30.0,3.0,56.0,1645186726.15625,P15,D09,0,1,1
776,-29.0,4.0,56.0,1645186726.1875,P15,D09,0,1,1
777,-29.0,3.0,56.0,1645186726.21875,P15,D09,0,1,1
778,-30.0,3.0,56.0,1645186726.25,P15,D09,0,1,1
779,-29.0,3.0,55.0,1645186726.28125,P15,D09,0,1,1
780,-29.0,4.0,56.0,1645186726.3125,P15,D09,0,1,1
781,-29.0,3.0,56.0,1645186726.34375,P15,D09,0,1,1
782,-29.0,3.0,56.0,1645186726.375,P15,D09,0,1,1
783,-29.0,4.0,56.0,1645186726.40625,P15,D09,0,1,1
784,-30.0,3.0,56.0,1645186726.4375,P15,D09,0,1,1
785,-29.0,3.0,55.0,1645186726.46875,P15,D09,0,1,1
786,-29.0,3.0,56.0,1645186726.5,P15,D09,0,1,1
787,-30.0,3.0,56.0,1645186726.53125,P15,D09,0,1,1
788,-29.0,3.0,55.0,1645186726.5625,P15,D09,0,1,1
789,-29.0,3.0,56.0,1645186726.59375,P15,D09,0,1,1
790,-29.0,3.0,56.0,1645186726.625,P15,D09,0,1,1
791,-30.0,3.0,55.0,1645186726.65625,P15,D09,0,1,1
792,-28.0,3.0,56.0,1645186726.6875,P15,D09,0,1,1
793,-29.0,3.0,56.0,1645186726.71875,P15,D09,0,1,1
794,-29.0,3.0,56.0,1645186726.75,P15,D09,0,1,1
795,-29.0,3.0,56.0,1645186726.78125,P15,D09,0,1,1
796,-29.0,4.0,56.0,1645186726.8125,P15,D09,0,1,1
797,-28.0,3.0,56.0,1645186726.84375,P15,D09,0,1,1
798,-29.0,3.0,56.0,1645186726.875,P15,D09,0,1,1
799,-29.0,3.0,56.0,1645186726.90625,P15,D09,0,1,1
800,-29.0,3.0,56.0,1645186726.9375,P15,D09,0,1,1
801,-29.0,3.0,56.0,1645186726.96875,P15,D09,0,1,1
802,-30.0,4.0,56.0,1645186727.0,P15,D09,0,1,1
803,-29.0,4.0,56.0,1645186727.03125,P15,D09,0,1,1
804,-29.0,3.0,56.0,1645186727.0625,P15,D09,0,1,1
805,-29.0,3.0,56.0,1645186727.09375,P15,D09,0,1,1
806,-28.0,4.0,56.0,1645186727.125,P15,D09,0,1,1
807,-28.0,4.0,56.0,1645186727.15625,P15,D09,0,1,1
808,-29.0,4.0,56.0,1645186727.1875,P15,D09,0,1,1
809,-28.0,3.0,56.0,1645186727.21875,P15,D09,0,1,1
810,-28.0,3.0,56.0,1645186727.25,P15,D09,0,1,1
811,-29.0,4.0,56.0,1645186727.28125,P15,D09,0,1,1
812,-29.0,3.0,56.0,1645186727.3125,P15,D09,0,1,1
813,-29.0,4.0,56.0,1645186727.34375,P15,D09,0,1,1
814,-29.0,4.0,56.0,1645186727.375,P15,D09,0,1,1
815,-29.0,4.0,56.0,1645186727.40625,P15,D09,0,1,1
816,-29.0,4.0,56.0,1645186727.4375,P15,D09,0,1,1
817,-28.0,4.0,56.0,1645186727.46875,P15,D09,0,1,1
818,-29.0,3.0,56.0,1645186727.5,P15,D09,0,1,1
819,-29.0,3.0,56.0,1645186727.53125,P15,D09,0,1,1
820,-28.0,3.0,57.0,1645186727.5625,P15,D09,0,1,1
821,-29.0,3.0,56.0,1645186727.59375,P15,D09,0,1,1
822,-29.0,4.0,56.0,1645186727.625,P15,D09,0,1,1
823,-29.0,4.0,56.0,1645186727.65625,P15,D09,0,1,1
824,-29.0,3.0,56.0,1645186727.6875,P15,D09,0,1,1
825,-29.0,4.0,56.0,1645186727.71875,P15,D09,0,1,1
826,-29.0,3.0,56.0,1645186727.75,P15,D09,0,1,1
827,-29.0,4.0,56.0,1645186727.78125,P15,D09,0,1,1
828,-30.0,3.0,56.0,1645186727.8125,P15,D09,0,1,1
829,-29.0,3.0,56.0,1645186727.84375,P15,D09,0,1,1
830,-29.0,3.0,56.0,1645186727.875,P15,D09,0,1,1
831,-29.0,3.0,56.0,1645186727.90625,P15,D09,0,1,1
832,-29.0,4.0,56.0,1645186727.9375,P15,D09,0,1,1
833,-29.0,4.0,56.0,1645186727.96875,P15,D09,0,1,1
834,-29.0,4.0,56.0,1645186728.0,P15,D09,0,1,1
835,-29.0,4.0,56.0,1645186728.03125,P15,D09,0,1,1
836,-29.0,4.0,56.0,1645186728.0625,P15,D09,0,1,1
837,-29.0,3.0,56.0,1645186728.09375,P15,D09,0,1,1
838,-29.0,3.0,56.0,1645186728.125,P15,D09,0,1,1
839,-29.0,4.0,56.0,1645186728.15625,P15,D09,0,1,1
840,-29.0,4.0,56.0,1645186728.1875,P15,D09,0,1,1
841,-29.0,3.0,56.0,1645186728.21875,P15,D09,0,1,1
842,-29.0,3.0,56.0,1645186728.25,P15,D09,0,1,1
843,-29.0,4.0,56.0,1645186728.28125,P15,D09,0,1,1
844,-29.0,4.0,56.0,1645186728.3125,P15,D09,0,1,1
845,-29.0,3.0,56.0,1645186728.34375,P15,D09,0,1,1
846,-29.0,3.0,56.0,1645186728.375,P15,D09,0,1,1
847,-29.0,3.0,56.0,1645186728.40625,P15,D09,0,1,1
848,-30.0,4.0,56.0,1645186728.4375,P15,D09,0,1,1
849,-29.0,3.0,56.0,1645186728.46875,P15,D09,0,1,1
850,-29.0,3.0,56.0,1645186728.5,P15,D09,0,1,1
851,-29.0,3.0,56.0,1645186728.53125,P15,D09,0,1,1
852,-29.0,4.0,56.0,1645186728.5625,P15,D09,0,1,1
853,-29.0,4.0,56.0,1645186728.59375,P15,D09,0,1,1
854,-30.0,3.0,56.0,1645186728.625,P15,D09,0,1,1
855,-30.0,4.0,55.0,1645186728.65625,P15,D09,0,1,1
856,-29.0,3.0,56.0,1645186728.6875,P15,D09,0,1,1
857,-29.0,3.0,56.0,1645186728.71875,P15,D09,0,1,1
858,-29.0,3.0,56.0,1645186728.75,P15,D09,0,1,1
859,-30.0,3.0,55.0,1645186728.78125,P15,D09,0,1,1
860,-30.0,4.0,55.0,1645186728.8125,P15,D09,0,1,1
861,-29.0,4.0,56.0,1645186728.84375,P15,D09,0,1,1
862,-29.0,3.0,56.0,1645186728.875,P15,D09,0,1,1
863,-30.0,3.0,55.0,1645186728.90625,P15,D09,0,1,1
864,-29.0,3.0,56.0,1645186728.9375,P15,D09,0,1,1
865,-30.0,4.0,55.0,1645186728.96875,P15,D09,0,1,1
866,-30.0,3.0,56.0,1645186729.0,P15,D09,0,1,1
867,-29.0,4.0,56.0,1645186729.03125,P15,D09,0,1,1
868,-29.0,4.0,56.0,1645186729.0625,P15,D09,0,1,1
869,-31.0,3.0,55.0,1645186729.09375,P15,D09,0,1,1
870,-29.0,3.0,56.0,1645186729.125,P15,D09,0,1,1
871,-29.0,3.0,56.0,1645186729.15625,P15,D09,0,1,1
872,-30.0,3.0,55.0,1645186729.1875,P15,D09,0,1,1
873,-30.0,4.0,56.0,1645186729.21875,P15,D09,0,1,1
874,-29.0,3.0,56.0,1645186729.25,P15,D09,0,1,1
875,-29.0,3.0,56.0,1645186729.28125,P15,D09,0,1,1
876,-30.0,4.0,55.0,1645186729.3125,P15,D09,0,1,1
877,-29.0,3.0,56.0,1645186729.34375,P15,D09,0,1,1
878,-30.0,3.0,55.0,1645186729.375,P15,D09,0,1,1
879,-31.0,3.0,55.0,1645186729.40625,P15,D09,0,1,1
880,-29.0,3.0,56.0,1645186729.4375,P15,D09,0,1,1
881,-29.0,3.0,55.0,1645186729.46875,P15,D09,0,1,1
882,-30.0,3.0,55.0,1645186729.5,P15,D09,0,1,1
883,-30.0,4.0,56.0,1645186729.53125,P15,D09,0,1,1
884,-30.0,3.0,55.0,1645186729.5625,P15,D09,0,1,1
885,-29.0,3.0,56.0,1645186729.59375,P15,D09,0,1,1
886,-29.0,3.0,56.0,1645186729.625,P15,D09,0,1,1
887,-30.0,4.0,55.0,1645186729.65625,P15,D09,0,1,1
888,-29.0,3.0,56.0,1645186729.6875,P15,D09,0,1,1
889,-30.0,3.0,56.0,1645186729.71875,P15,D09,0,1,1
890,-30.0,4.0,55.0,1645186729.75,P15,D09,0,1,1
891,-29.0,3.0,56.0,1645186729.78125,P15,D09,0,1,1
892,-30.0,4.0,56.0,1645186729.8125,P15,D09,0,1,1
893,-29.0,3.0,56.0,1645186729.84375,P15,D09,0,1,1
894,-29.0,3.0,56.0,1645186729.875,P15,D09,0,1,1
895,-30.0,4.0,56.0,1645186729.90625,P15,D09,0,1,1
896,-29.0,3.0,56.0,1645186729.9375,P15,D09,0,1,1
897,-29.0,4.0,56.0,1645186729.96875,P15,D09,0,1,1
898,-29.0,4.0,55.0,1645186730.0,P15,D09,0,1,1
899,-29.0,3.0,56.0,1645186730.03125,P15,D09,0,1,1
900,-30.0,3.0,55.0,1645186730.0625,P15,D09,0,1,1
901,-30.0,4.0,55.0,1645186730.09375,P15,D09,0,1,1
902,-29.0,4.0,56.0,1645186730.125,P15,D09,0,1,1
903,-29.0,3.0,56.0,1645186730.15625,P15,D09,0,1,1
904,-29.0,4.0,56.0,1645186730.1875,P15,D09,0,1,1
905,-29.0,4.0,56.0,1645186730.21875,P15,D09,0,1,1
906,-29.0,3.0,56.0,1645186730.25,P15,D09,0,1,1
907,-29.0,3.0,56.0,1645186730.28125,P15,D09,0,1,1
908,-29.0,4.0,56.0,1645186730.3125,P15,D09,0,1,1
909,-29.0,3.0,56.0,1645186730.34375,P15,D09,0,1,1
910,-29.0,4.0,56.0,1645186730.375,P15,D09,0,1,1
911,-30.0,4.0,56.0,1645186730.40625,P15,D09,0,1,1
912,-29.0,4.0,55.0,1645186730.4375,P15,D09,0,1,1
913,-29.0,4.0,56.0,1645186730.46875,P15,D09,0,1,1
914,-30.0,4.0,56.0,1645186730.5,P15,D09,0,1,1
915,-29.0,3.0,56.0,1645186730.53125,P15,D09,0,1,1
916,-29.0,4.0,56.0,1645186730.5625,P15,D09,0,1,1
917,-30.0,3.0,56.0,1645186730.59375,P15,D09,0,1,1
918,-29.0,3.0,56.0,1645186730.625,P15,D09,0,1,1
919,-29.0,4.0,56.0,1645186730.65625,P15,D09,0,1,1
920,-29.0,4.0,56.0,1645186730.6875,P15,D09,0,1,1
921,-29.0,3.0,56.0,1645186730.71875,P15,D09,0,1,1
922,-29.0,3.0,56.0,1645186730.75,P15,D09,0,1,1
923,-29.0,3.0,56.0,1645186730.78125,P15,D09,0,1,1
924,-29.0,3.0,56.0,1645186730.8125,P15,D09,0,1,1
925,-30.0,3.0,56.0,1645186730.84375,P15,D09,0,1,1
926,-29.0,4.0,56.0,1645186730.875,P15,D09,0,1,1
927,-29.0,3.0,56.0,1645186730.90625,P15,D09,0,1,1
928,-29.0,3.0,56.0,1645186730.9375,P15,D09,0,1,1
929,-29.0,4.0,56.0,1645186730.96875,P15,D09,0,1,1
930,-29.0,4.0,56.0,1645186731.0,P15,D09,0,1,1
931,-30.0,3.0,56.0,1645186731.03125,P15,D09,0,1,1
932,-29.0,3.0,56.0,1645186731.0625,P15,D09,0,1,1
933,-29.0,4.0,56.0,1645186731.09375,P15,D09,0,1,1
934,-30.0,3.0,56.0,1645186731.125,P15,D09,0,1,1
935,-29.0,3.0,56.0,1645186731.15625,P15,D09,0,1,1
936,-29.0,4.0,56.0,1645186731.1875,P15,D09,0,1,1
937,-30.0,4.0,55.0,1645186731.21875,P15,D09,0,1,1
938,-29.0,3.0,56.0,1645186731.25,P15,D09,0,1,1
939,-29.0,4.0,56.0,1645186731.28125,P15,D09,0,1,1
940,-29.0,3.0,56.0,1645186731.3125,P15,D09,0,1,1
941,-29.0,3.0,56.0,1645186731.34375,P15,D09,0,1,1
942,-30.0,4.0,56.0,1645186731.375,P15,D09,0,1,1
943,-29.0,3.0,56.0,1645186731.40625,P15,D09,0,1,1
944,-29.0,3.0,56.0,1645186731.4375,P15,D09,0,1,1
945,-30.0,3.0,56.0,1645186731.46875,P15,D09,0,1,1
946,-29.0,3.0,56.0,1645186731.5,P15,D09,0,1,1
947,-29.0,3.0,56.0,1645186731.53125,P15,D09,0,1,1
948,-30.0,4.0,56.0,1645186731.5625,P15,D09,0,1,1
949,-29.0,3.0,56.0,1645186731.59375,P15,D09,0,1,1
950,-29.0,3.0,56.0,1645186731.625,P15,D09,0,1,1
951,-30.0,4.0,56.0,1645186731.65625,P15,D09,0,1,1
952,-29.0,3.0,56.0,1645186731.6875,P15,D09,0,1,1
953,-30.0,3.0,56.0,1645186731.71875,P15,D09,0,1,1
954,-29.0,3.0,56.0,1645186731.75,P15,D09,0,1,1
955,-29.0,3.0,56.0,1645186731.78125,P15,D09,0,1,1
956,-30.0,3.0,55.0,1645186731.8125,P15,D09,0,1,1
957,-29.0,3.0,56.0,1645186731.84375,P15,D09,0,1,1
958,-29.0,4.0,56.0,1645186731.875,P15,D09,0,1,1
959,-30.0,3.0,56.0,1645186731.90625,P15,D09,0,1,1
960,-30.0,3.0,56.0,1645186731.9375,P15,D09,0,1,1
961,-30.0,3.0,56.0,1645186731.96875,P15,D09,0,1,1
962,-30.0,3.0,56.0,1645186732.0,P15,D09,0,1,1
963,-30.0,4.0,55.0,1645186732.03125,P15,D09,0,1,1
964,-30.0,3.0,55.0,1645186732.0625,P15,D09,0,1,1
965,-30.0,3.0,55.0,1645186732.09375,P15,D09,0,1,1
966,-30.0,3.0,55.0,1645186732.125,P15,D09,0,1,1
967,-30.0,4.0,55.0,1645186732.15625,P15,D09,0,1,1
968,-30.0,3.0,55.0,1645186732.1875,P15,D09,0,1,1
969,-30.0,3.0,56.0,1645186732.21875,P15,D09,0,1,1
970,-28.0,4.0,56.0,1645186732.25,P15,D09,0,1,1
971,-28.0,3.0,56.0,1645186732.28125,P15,D09,0,1,1
972,-29.0,2.0,56.0,1645186732.3125,P15,D09,0,1,1
973,-29.0,4.0,56.0,1645186732.34375,P15,D09,0,1,1
974,-29.0,3.0,56.0,1645186732.375,P15,D09,0,1,1
975,-29.0,3.0,55.0,1645186732.40625,P15,D09,0,1,1
976,-30.0,4.0,56.0,1645186732.4375,P15,D09,0,1,1
977,-29.0,3.0,55.0,1645186732.46875,P15,D09,0,1,1
978,-30.0,4.0,55.0,1645186732.5,P15,D09,0,1,1
979,-31.0,4.0,55.0,1645186732.53125,P15,D09,0,1,1
980,-30.0,3.0,56.0,1645186732.5625,P15,D09,0,1,1
981,-30.0,4.0,56.0,1645186732.59375,P15,D09,0,1,1
982,-30.0,4.0,55.0,1645186732.625,P15,D09,0,1,1
983,-30.0,3.0,55.0,1645186732.65625,P15,D09,0,1,1
984,-30.0,3.0,56.0,1645186732.6875,P15,D09,0,1,1
985,-29.0,4.0,56.0,1645186732.71875,P15,D09,0,1,1
986,-30.0,3.0,55.0,1645186732.75,P15,D09,0,1,1
987,-29.0,3.0,56.0,1645186732.78125,P15,D09,0,1,1
988,-30.0,4.0,56.0,1645186732.8125,P15,D09,0,1,1
989,-30.0,4.0,55.0,1645186732.84375,P15,D09,0,1,1
990,-29.0,4.0,56.0,1645186732.875,P15,D09,0,1,1
991,-30.0,4.0,56.0,1645186732.90625,P15,D09,0,1,1
992,-30.0,4.0,56.0,1645186732.9375,P15,D09,0,1,1
993,-28.0,4.0,56.0,1645186732.96875,P15,D09,0,1,1
994,-29.0,4.0,56.0,1645186733.0,P15,D09,0,1,1
995,-30.0,4.0,55.0,1645186733.03125,P15,D09,0,1,1
996,-32.0,4.0,56.0,1645186733.0625,P15,D09,0,1,1
997,-27.0,4.0,57.0,1645186733.09375,P15,D09,0,1,1
998,-28.0,4.0,56.0,1645186733.125,P15,D09,0,1,1
999,-29.0,5.0,56.0,1645186733.15625,P15,D09,0,1,1
1000,-29.0,4.0,56.0,1645186733.1875,P15,D09,0,1,1
1001,-30.0,4.0,56.0,1645186733.21875,P15,D09,0,1,1
1002,-30.0,4.0,55.0,1645186733.25,P15,D09,0,1,1
1003,-28.0,4.0,56.0,1645186733.28125,P15,D09,0,1,1
1004,-29.0,5.0,56.0,1645186733.3125,P15,D09,0,1,1
1005,-30.0,4.0,56.0,1645186733.34375,P15,D09,0,1,1
1006,-29.0,4.0,56.0,1645186733.375,P15,D09,0,1,1
1007,-30.0,4.0,56.0,1645186733.40625,P15,D09,0,1,1
1008,-29.0,4.0,56.0,1645186733.4375,P15,D09,0,1,1
1009,-28.0,4.0,56.0,1645186733.46875,P15,D09,0,1,1
1010,-30.0,4.0,55.0,1645186733.5,P15,D09,0,1,1
1011,-29.0,4.0,56.0,1645186733.53125,P15,D09,0,1,1
1012,-29.0,3.0,56.0,1645186733.5625,P15,D09,0,1,1
1013,-29.0,5.0,56.0,1645186733.59375,P15,D09,0,1,1
1014,-29.0,4.0,55.0,1645186733.625,P15,D09,0,1,1
1015,-30.0,5.0,56.0,1645186733.65625,P15,D09,0,1,1
1016,-29.0,5.0,56.0,1645186733.6875,P15,D09,0,1,1
1017,-29.0,4.0,55.0,1645186733.71875,P15,D09,0,1,1
1018,-29.0,4.0,55.0,1645186733.75,P15,D09,0,1,1
1019,-29.0,4.0,56.0,1645186733.78125,P15,D09,0,1,1
1020,-29.0,4.0,56.0,1645186733.8125,P15,D09,0,1,1
1021,-31.0,5.0,55.0,1645186733.84375,P15,D09,0,1,1
1022,-30.0,4.0,55.0,1645186733.875,P15,D09,0,1,1
1023,-30.0,5.0,56.0,1645186733.90625,P15,D09,0,1,1
1024,-30.0,4.0,55.0,1645186733.9375,P15,D09,0,1,1
1025,-29.0,5.0,56.0,1645186733.96875,P15,D09,0,1,1
1026,-29.0,4.0,56.0,1645186734.0,P15,D09,0,1,1
1027,-30.0,5.0,56.0,1645186734.03125,P15,D09,0,1,1
1028,-28.0,5.0,56.0,1645186734.0625,P15,D09,0,1,1
1029,-30.0,5.0,55.0,1645186734.09375,P15,D09,0,1,1
1030,-30.0,5.0,56.0,1645186734.125,P15,D09,0,1,1
1031,-28.0,4.0,56.0,1645186734.15625,P15,D09,0,1,1
1032,-29.0,4.0,56.0,1645186734.1875,P15,D09,0,1,1
1033,-29.0,5.0,55.0,1645186734.21875,P15,D09,0,1,1
1034,-29.0,5.0,56.0,1645186734.25,P15,D09,0,1,1
1035,-29.0,5.0,56.0,1645186734.28125,P15,D09,0,1,1
1036,-29.0,5.0,56.0,1645186734.3125,P15,D09,0,1,1
1037,-29.0,5.0,56.0,1645186734.34375,P15,D09,0,1,1
1038,-29.0,4.0,56.0,1645186734.375,P15,D09,0,1,1
1039,-29.0,5.0,56.0,1645186734.40625,P15,D09,0,1,1
1040,-29.0,5.0,55.0,1645186734.4375,P15,D09,0,1,1
1041,-29.0,5.0,56.0,1645186734.46875,P15,D09,0,1,1
1042,-30.0,5.0,55.0,1645186734.5,P15,D09,0,1,1
1043,-29.0,5.0,55.0,1645186734.53125,P15,D09,0,1,1
1044,-29.0,5.0,56.0,1645186734.5625,P15,D09,0,1,1
1045,-29.0,4.0,56.0,1645186734.59375,P15,D09,0,1,1
1046,-29.0,5.0,56.0,1645186734.625,P15,D09,0,1,1
1047,-29.0,5.0,55.0,1645186734.65625,P15,D09,0,1,1
1048,-30.0,5.0,55.0,1645186734.6875,P15,D09,0,1,1
1049,-30.0,5.0,55.0,1645186734.71875,P15,D09,0,1,1
1050,-29.0,5.0,55.0,1645186734.75,P15,D09,0,1,1
1051,-30.0,5.0,56.0,1645186734.78125,P15,D09,0,1,1
1052,-29.0,5.0,56.0,1645186734.8125,P15,D09,0,1,1
1053,-29.0,4.0,56.0,1645186734.84375,P15,D09,0,1,1
1054,-29.0,5.0,55.0,1645186734.875,P15,D09,0,1,1
1055,-29.0,5.0,56.0,1645186734.90625,P15,D09,0,1,1
1056,-29.0,4.0,56.0,1645186734.9375,P15,D09,0,1,1
1057,-30.0,5.0,55.0,1645186734.96875,P15,D09,0,1,1
1058,-30.0,4.0,55.0,1645186735.0,P15,D09,0,1,1
1059,-30.0,5.0,55.0,1645186735.03125,P15,D09,0,1,1
1060,-29.0,4.0,56.0,1645186735.0625,P15,D09,0,1,1
1061,-30.0,5.0,55.0,1645186735.09375,P15,D09,0,1,1
1062,-30.0,5.0,55.0,1645186735.125,P15,D09,0,1,1
1063,-30.0,5.0,55.0,1645186735.15625,P15,D09,0,1,1
1064,-31.0,4.0,55.0,1645186735.1875,P15,D09,0,1,1
1065,-29.0,5.0,56.0,1645186735.21875,P15,D09,0,1,1
1066,-29.0,5.0,56.0,1645186735.25,P15,D09,0,1,1
1067,-30.0,5.0,56.0,1645186735.28125,P15,D09,0,1,1
1068,-29.0,4.0,56.0,1645186735.3125,P15,D09,0,1,1
1069,-31.0,4.0,55.0,1645186735.34375,P15,D09,0,1,1
1070,-30.0,4.0,55.0,1645186735.375,P15,D09,0,1,1
1071,-29.0,5.0,55.0,1645186735.40625,P15,D09,0,1,1
1072,-30.0,4.0,55.0,1645186735.4375,P15,D09,0,1,1
1073,-30.0,5.0,55.0,1645186735.46875,P15,D09,0,1,1
1074,-30.0,5.0,55.0,1645186735.5,P15,D09,0,1,1
1075,-29.0,5.0,56.0,1645186735.53125,P15,D09,0,1,1
1076,-31.0,5.0,55.0,1645186735.5625,P15,D09,0,1,1
1077,-31.0,5.0,55.0,1645186735.59375,P15,D09,0,1,1
1078,-29.0,4.0,56.0,1645186735.625,P15,D09,0,1,1
1079,-30.0,5.0,56.0,1645186735.65625,P15,D09,0,1,1
1080,-30.0,5.0,55.0,1645186735.6875,P15,D09,0,1,1
1081,-30.0,5.0,55.0,1645186735.71875,P15,D09,0,1,1
1082,-30.0,5.0,55.0,1645186735.75,P15,D09,0,1,1
1083,-30.0,5.0,55.0,1645186735.78125,P15,D09,0,1,1
1084,-30.0,5.0,55.0,1645186735.8125,P15,D09,0,1,1
1085,-31.0,4.0,55.0,1645186735.84375,P15,D09,0,1,1
1086,-31.0,4.0,55.0,1645186735.875,P15,D09,0,1,1
1087,-30.0,4.0,55.0,1645186735.90625,P15,D09,0,1,1
1088,-31.0,4.0,55.0,1645186735.9375,P15,D09,0,1,1
1089,-31.0,4.0,55.0,1645186735.96875,P15,D09,0,1,1
1090,-31.0,4.0,55.0,1645186736.0,P15,D09,0,1,1
1091,-30.0,4.0,55.0,1645186736.03125,P15,D09,0,1,1
1092,-32.0,4.0,55.0,1645186736.0625,P15,D09,0,1,1
1093,-31.0,4.0,55.0,1645186736.09375,P15,D09,0,1,1
1094,-28.0,5.0,56.0,1645186736.125,P15,D09,0,1,1
1095,-29.0,4.0,56.0,1645186736.15625,P15,D09,0,1,1
1096,-33.0,4.0,54.0,1645186736.1875,P15,D09,0,1,1
1097,-30.0,4.0,55.0,1645186736.21875,P15,D09,0,1,1
1098,-29.0,4.0,56.0,1645186736.25,P15,D09,0,1,1
1099,-30.0,4.0,55.0,1645186736.28125,P15,D09,0,1,1
1100,-31.0,4.0,55.0,1645186736.3125,P15,D09,0,1,1
1101,-30.0,4.0,55.0,1645186736.34375,P15,D09,0,1,1
1102,-30.0,4.0,55.0,1645186736.375,P15,D09,0,1,1
1103,-31.0,4.0,55.0,1645186736.40625,P15,D09,0,1,1
1104,-30.0,4.0,55.0,1645186736.4375,P15,D09,0,1,1
1105,-30.0,4.0,55.0,1645186736.46875,P15,D09,0,1,1
1106,-30.0,4.0,55.0,1645186736.5,P15,D09,0,1,1
1107,-30.0,4.0,55.0,1645186736.53125,P15,D09,0,1,1
1108,-30.0,4.0,55.0,1645186736.5625,P15,D09,0,1,1
1109,-30.0,4.0,55.0,1645186736.59375,P15,D09,0,1,1
1110,-30.0,4.0,55.0,1645186736.625,P15,D09,0,1,1
1111,-30.0,4.0,55.0,1645186736.65625,P15,D09,0,1,1
1112,-30.0,4.0,55.0,1645186736.6875,P15,D09,0,1,1
1113,-31.0,4.0,55.0,1645186736.71875,P15,D09,0,1,1
1114,-30.0,4.0,55.0,1645186736.75,P15,D09,0,1,1
1115,-30.0,4.0,55.0,1645186736.78125,P15,D09,0,1,1
1116,-30.0,4.0,55.0,1645186736.8125,P15,D09,0,1,1
1117,-30.0,4.0,55.0,1645186736.84375,P15,D09,0,1,1
1118,-30.0,4.0,55.0,1645186736.875,P15,D09,0,1,1
1119,-30.0,4.0,55.0,1645186736.90625,P15,D09,0,1,1
1120,-30.0,4.0,55.0,1645186736.9375,P15,D09,0,1,1
1121,-30.0,4.0,55.0,1645186736.96875,P15,D09,0,1,1
1122,-30.0,4.0,55.0,1645186737.0,P15,D09,0,1,1
1123,-30.0,4.0,55.0,1645186737.03125,P15,D09,0,1,1
1124,-30.0,4.0,55.0,1645186737.0625,P15,D09,0,1,1
1125,-30.0,4.0,56.0,1645186737.09375,P15,D09,0,1,1
1126,-30.0,4.0,55.0,1645186737.125,P15,D09,0,1,1
1127,-30.0,4.0,55.0,1645186737.15625,P15,D09,0,1,1
1128,-30.0,4.0,55.0,1645186737.1875,P15,D09,0,1,1
1129,-30.0,4.0,56.0,1645186737.21875,P15,D09,0,1,1
1130,-30.0,4.0,55.0,1645186737.25,P15,D09,0,1,1
1131,-30.0,4.0,55.0,1645186737.28125,P15,D09,0,1,1
1132,-30.0,4.0,55.0,1645186737.3125,P15,D09,0,1,1
1133,-30.0,4.0,56.0,1645186737.34375,P15,D09,0,1,1
1134,-30.0,4.0,55.0,1645186737.375,P15,D09,0,1,1
1135,-30.0,4.0,55.0,1645186737.40625,P15,D09,0,1,1
1136,-30.0,4.0,55.0,1645186737.4375,P15,D09,0,1,1
1137,-30.0,4.0,55.0,1645186737.46875,P15,D09,0,1,1
1138,-30.0,4.0,56.0,1645186737.5,P15,D09,0,1,1
1139,-30.0,4.0,56.0,1645186737.53125,P15,D09,0,1,1
1140,-30.0,4.0,55.0,1645186737.5625,P15,D09,0,1,1
1141,-30.0,4.0,55.0,1645186737.59375,P15,D09,0,1,1
1142,-30.0,4.0,55.0,1645186737.625,P15,D09,0,1,1
1143,-29.0,4.0,56.0,1645186737.65625,P15,D09,0,1,1
1144,-30.0,4.0,55.0,1645186737.6875,P15,D09,0,1,1
1145,-31.0,4.0,55.0,1645186737.71875,P15,D09,0,1,1
1146,-30.0,4.0,55.0,1645186737.75,P15,D09,0,1,1
1147,-30.0,4.0,55.0,1645186737.78125,P15,D09,0,1,1
1148,-30.0,4.0,55.0,1645186737.8125,P15,D09,0,1,1
1149,-30.0,4.0,55.0,1645186737.84375,P15,D09,0,1,1
1150,-30.0,4.0,55.0,1645186737.875,P15,D09,0,1,1
1151,-30.0,4.0,55.0,1645186737.90625,P15,D09,0,1,1
1152,-30.0,4.0,55.0,1645186737.9375,P15,D09,0,1,1
1153,-30.0,4.0,55.0,1645186737.96875,P15,D09,0,1,1
1154,-30.0,4.0,55.0,1645186738.0,P15,D09,0,1,1
1155,-30.0,4.0,55.0,1645186738.03125,P15,D09,0,1,1
1156,-30.0,4.0,55.0,1645186738.0625,P15,D09,0,1,1
1157,-30.0,4.0,55.0,1645186738.09375,P15,D09,0,1,1
1158,-30.0,4.0,55.0,1645186738.125,P15,D09,0,1,1
1159,-30.0,4.0,55.0,1645186738.15625,P15,D09,0,1,1
1160,-30.0,4.0,55.0,1645186738.1875,P15,D09,0,1,1
1161,-31.0,4.0,55.0,1645186738.21875,P15,D09,0,1,1
1162,-30.0,4.0,55.0,1645186738.25,P15,D09,0,1,1
1163,-30.0,4.0,55.0,1645186738.28125,P15,D09,0,1,1
1164,-30.0,4.0,56.0,1645186738.3125,P15,D09,0,1,1
1165,-32.0,4.0,55.0,1645186738.34375,P15,D09,0,1,1
1166,-31.0,4.0,55.0,1645186738.375,P15,D09,0,1,1
1167,-30.0,4.0,55.0,1645186738.40625,P15,D09,0,1,1
1168,-30.0,4.0,55.0,1645186738.4375,P15,D09,0,1,1
1169,-30.0,4.0,55.0,1645186738.46875,P15,D09,0,1,1
1170,-30.0,4.0,55.0,1645186738.5,P15,D09,0,1,1
1171,-30.0,4.0,55.0,1645186738.53125,P15,D09,0,1,1
1172,-31.0,4.0,55.0,1645186738.5625,P15,D09,0,1,1
1173,-30.0,4.0,55.0,1645186738.59375,P15,D09,0,1,1
1174,-30.0,4.0,55.0,1645186738.625,P15,D09,0,1,1
1175,-30.0,4.0,55.0,1645186738.65625,P15,D09,0,1,1
1176,-30.0,4.0,55.0,1645186738.6875,P15,D09,0,1,1
1177,-30.0,4.0,55.0,1645186738.71875,P15,D09,0,1,1
1178,-30.0,4.0,55.0,1645186738.75,P15,D09,0,1,1
1179,-30.0,4.0,55.0,1645186738.78125,P15,D09,0,1,1
1180,-31.0,4.0,55.0,1645186738.8125,P15,D09,0,1,1
1181,-30.0,4.0,55.0,1645186738.84375,P15,D09,0,1,1
1182,-30.0,4.0,55.0,1645186738.875,P15,D09,0,1,1
1183,-30.0,4.0,55.0,1645186738.90625,P15,D09,0,1,1
1184,-30.0,4.0,55.0,1645186738.9375,P15,D09,0,1,1
1185,-31.0,4.0,55.0,1645186738.96875,P15,D09,0,1,1
1186,-30.0,4.0,55.0,1645186739.0,P15,D09,0,1,1
1187,-30.0,4.0,55.0,1645186739.03125,P15,D09,0,1,1
1188,-30.0,4.0,55.0,1645186739.0625,P15,D09,0,1,1
1189,-30.0,4.0,55.0,1645186739.09375,P15,D09,0,1,1
1190,-31.0,4.0,55.0,1645186739.125,P15,D09,0,1,1
1191,-30.0,4.0,55.0,1645186739.15625,P15,D09,0,1,1
1192,-30.0,4.0,55.0,1645186739.1875,P15,D09,0,1,1
1193,-30.0,4.0,55.0,1645186739.21875,P15,D09,0,1,1
1194,-31.0,4.0,55.0,1645186739.25,P15,D09,0,1,1
1195,-31.0,4.0,55.0,1645186739.28125,P15,D09,0,1,1
1196,-30.0,4.0,55.0,1645186739.3125,P15,D09,0,1,1
1197,-30.0,4.0,55.0,1645186739.34375,P15,D09,0,1,1
1198,-31.0,4.0,55.0,1645186739.375,P15,D09,0,1,1
1199,-30.0,4.0,55.0,1645186739.40625,P15,D09,0,1,1
1200,-30.0,4.0,55.0,1645186739.4375,P15,D09,0,1,1
1201,-31.0,4.0,55.0,1645186739.46875,P15,D09,0,1,1
1202,-30.0,4.0,55.0,1645186739.5,P15,D09,0,1,1
1203,-31.0,4.0,55.0,1645186739.53125,P15,D09,0,1,1
1204,-30.0,4.0,55.0,1645186739.5625,P15,D09,0,1,1
1205,-30.0,4.0,55.0,1645186739.59375,P15,D09,0,1,1
1206,-30.0,4.0,55.0,1645186739.625,P15,D09,0,1,1
1207,-30.0,4.0,55.0,1645186739.65625,P15,D09,0,1,1
1208,-30.0,4.0,55.0,1645186739.6875,P15,D09,0,1,1
1209,-30.0,4.0,55.0,1645186739.71875,P15,D09,0,1,1
1210,-31.0,4.0,55.0,1645186739.75,P15,D09,0,1,1
1211,-31.0,4.0,55.0,1645186739.78125,P15,D09,0,1,1
1212,-30.0,4.0,55.0,1645186739.8125,P15,D09,0,1,1
1213,-30.0,4.0,55.0,1645186739.84375,P15,D09,0,1,1
1214,-31.0,4.0,55.0,1645186739.875,P15,D09,0,1,1
1215,-31.0,4.0,55.0,1645186739.90625,P15,D09,0,1,1
1216,-30.0,4.0,56.0,1645186739.9375,P15,D09,0,1,1
1217,-30.0,4.0,55.0,1645186739.96875,P15,D09,0,1,1
1218,-30.0,4.0,56.0,1645186740.0,P15,D09,0,1,1
1219,-31.0,4.0,55.0,1645186740.03125,P15,D09,0,1,1
1220,-31.0,4.0,55.0,1645186740.0625,P15,D09,0,1,1
1221,-30.0,4.0,55.0,1645186740.09375,P15,D09,0,1,1
1222,-30.0,4.0,55.0,1645186740.125,P15,D09,0,1,1
1223,-30.0,4.0,55.0,1645186740.15625,P15,D09,0,1,1
1224,-30.0,4.0,56.0,1645186740.1875,P15,D09,0,1,1
1225,-31.0,4.0,55.0,1645186740.21875,P15,D09,0,1,1
1226,-30.0,4.0,55.0,1645186740.25,P15,D09,0,1,1
1227,-30.0,4.0,56.0,1645186740.28125,P15,D09,0,1,1
1228,-30.0,4.0,55.0,1645186740.3125,P15,D09,0,1,1
1229,-30.0,4.0,55.0,1645186740.34375,P15,D09,0,1,1
1230,-32.0,4.0,55.0,1645186740.375,P15,D09,0,1,1
1231,-31.0,4.0,55.0,1645186740.40625,P15,D09,0,1,1
1232,-30.0,4.0,55.0,1645186740.4375,P15,D09,0,1,1
1233,-30.0,4.0,55.0,1645186740.46875,P15,D09,0,1,1
1234,-31.0,4.0,55.0,1645186740.5,P15,D09,0,1,1
1235,-30.0,4.0,55.0,1645186740.53125,P15,D09,0,1,1
1236,-31.0,4.0,55.0,1645186740.5625,P15,D09,0,1,1
1237,-30.0,4.0,55.0,1645186740.59375,P15,D09,0,1,1
1238,-30.0,4.0,55.0,1645186740.625,P15,D09,0,1,1
1239,-31.0,4.0,55.0,1645186740.65625,P15,D09,0,1,1
1240,-30.0,4.0,55.0,1645186740.6875,P15,D09,0,1,1
1241,-29.0,4.0,55.0,1645186740.71875,P15,D09,0,1,1
1242,-30.0,4.0,55.0,1645186740.75,P15,D09,0,1,1
1243,-31.0,4.0,55.0,1645186740.78125,P15,D09,0,1,1
1244,-31.0,4.0,55.0,1645186740.8125,P15,D09,0,1,1
1245,-30.0,4.0,55.0,1645186740.84375,P15,D09,0,1,1
1246,-30.0,4.0,55.0,1645186740.875,P15,D09,0,1,1
1247,-30.0,4.0,55.0,1645186740.90625,P15,D09,0,1,1
1248,-30.0,4.0,55.0,1645186740.9375,P15,D09,0,1,1
1249,-30.0,4.0,56.0,1645186740.96875,P15,D09,0,1,1
1250,-30.0,4.0,55.0,1645186741.0,P15,D09,0,1,1
1251,-30.0,4.0,55.0,1645186741.03125,P15,D09,0,1,1
1252,-30.0,4.0,55.0,1645186741.0625,P15,D09,0,1,1
1253,-30.0,4.0,55.0,1645186741.09375,P15,D09,0,1,1
1254,-30.0,4.0,55.0,1645186741.125,P15,D09,0,1,1
1255,-30.0,4.0,55.0,1645186741.15625,P15,D09,0,1,1
1256,-30.0,4.0,55.0,1645186741.1875,P15,D09,0,1,1
1257,-30.0,4.0,55.0,1645186741.21875,P15,D09,0,1,1
1258,-30.0,4.0,55.0,1645186741.25,P15,D09,0,1,1
1259,-30.0,4.0,55.0,1645186741.28125,P15,D09,0,1,1
1260,-30.0,4.0,55.0,1645186741.3125,P15,D09,0,1,1
1261,-30.0,4.0,55.0,1645186741.34375,P15,D09,0,1,1
1262,-30.0,4.0,56.0,1645186741.375,P15,D09,0,1,1
1263,-30.0,4.0,55.0,1645186741.40625,P15,D09,0,1,1
1264,-29.0,4.0,55.0,1645186741.4375,P15,D09,0,1,1
1265,-30.0,4.0,55.0,1645186741.46875,P15,D09,0,1,1
1266,-30.0,4.0,55.0,1645186741.5,P15,D09,0,1,1
1267,-29.0,4.0,56.0,1645186741.53125,P15,D09,0,1,1
1268,-30.0,4.0,55.0,1645186741.5625,P15,D09,0,1,1
1269,-30.0,4.0,56.0,1645186741.59375,P15,D09,0,1,1
1270,-30.0,4.0,55.0,1645186741.625,P15,D09,0,1,1
1271,-30.0,4.0,55.0,1645186741.65625,P15,D09,0,1,1
1272,-29.0,4.0,55.0,1645186741.6875,P15,D09,0,1,1
1273,-31.0,4.0,55.0,1645186741.71875,P15,D09,0,1,1
1274,-30.0,4.0,56.0,1645186741.75,P15,D09,0,1,1
1275,-29.0,4.0,56.0,1645186741.78125,P15,D09,0,1,1
1276,-30.0,4.0,55.0,1645186741.8125,P15,D09,0,1,1
1277,-30.0,4.0,55.0,1645186741.84375,P15,D09,0,1,1
1278,-30.0,4.0,55.0,1645186741.875,P15,D09,0,1,1
1279,-30.0,4.0,55.0,1645186741.90625,P15,D09,0,1,1
1280,-31.0,4.0,55.0,1645186741.9375,P15,D09,0,1,1
1281,-30.0,4.0,55.0,1645186741.96875,P15,D09,0,1,1
1282,-29.0,4.0,55.0,1645186742.0,P15,D09,0,1,1
1283,-30.0,4.0,56.0,1645186742.03125,P15,D09,0,1,1
1284,-30.0,4.0,55.0,1645186742.0625,P15,D09,0,1,1
1285,-31.0,4.0,55.0,1645186742.09375,P15,D09,0,1,1
1286,-30.0,4.0,55.0,1645186742.125,P15,D09,0,1,1
1287,-30.0,4.0,56.0,1645186742.15625,P15,D09,0,1,1
1288,-30.0,4.0,55.0,1645186742.1875,P15,D09,0,1,1
1289,-30.0,4.0,55.0,1645186742.21875,P15,D09,0,1,1
1290,-30.0,4.0,55.0,1645186742.25,P15,D09,0,1,1
1291,-30.0,4.0,56.0,1645186742.28125,P15,D09,0,1,1
1292,-30.0,4.0,55.0,1645186742.3125,P15,D09,0,1,1
1293,-30.0,4.0,56.0,1645186742.34375,P15,D09,0,1,1
1294,-30.0,4.0,55.0,1645186742.375,P15,D09,0,1,1
1295,-30.0,4.0,55.0,1645186742.40625,P15,D09,0,1,1
1296,-30.0,4.0,55.0,1645186742.4375,P15,D09,0,1,1
1297,-30.0,4.0,55.0,1645186742.46875,P15,D09,0,1,1
1298,-30.0,4.0,55.0,1645186742.5,P15,D09,0,1,1
1299,-30.0,4.0,55.0,1645186742.53125,P15,D09,0,1,1
1300,-30.0,4.0,55.0,1645186742.5625,P15,D09,0,1,1
1301,-30.0,4.0,55.0,1645186742.59375,P15,D09,0,1,1
1302,-30.0,4.0,55.0,1645186742.625,P15,D09,0,1,1
1303,-30.0,4.0,55.0,1645186742.65625,P15,D09,0,1,1
1304,-30.0,4.0,55.0,1645186742.6875,P15,D09,0,1,1
1305,-30.0,4.0,55.0,1645186742.71875,P15,D09,0,1,1
1306,-30.0,4.0,55.0,1645186742.75,P15,D09,0,1,1
1307,-30.0,4.0,55.0,1645186742.78125,P15,D09,0,1,1
1308,-30.0,4.0,55.0,1645186742.8125,P15,D09,0,1,1
1309,-30.0,4.0,55.0,1645186742.84375,P15,D09,0,1,1
1310,-31.0,4.0,55.0,1645186742.875,P15,D09,0,1,1
1311,-30.0,4.0,55.0,1645186742.90625,P15,D09,0,1,1
1312,-30.0,4.0,56.0,1645186742.9375,P15,D09,0,1,1
1313,-31.0,4.0,55.0,1645186742.96875,P15,D09,0,1,1
1314,-31.0,4.0,55.0,1645186743.0,P15,D09,0,1,1
1315,-30.0,4.0,55.0,1645186743.03125,P15,D09,0,1,1
1316,-30.0,4.0,55.0,1645186743.0625,P15,D09,0,1,1
1317,-30.0,4.0,55.0,1645186743.09375,P15,D09,0,1,1
1318,-30.0,4.0,55.0,1645186743.125,P15,D09,0,1,1
1319,-30.0,4.0,55.0,1645186743.15625,P15,D09,0,1,1
1320,-30.0,4.0,55.0,1645186743.1875,P15,D09,0,1,1
1321,-30.0,4.0,55.0,1645186743.21875,P15,D09,0,1,1
1322,-30.0,4.0,55.0,1645186743.25,P15,D09,0,1,1
1323,-30.0,4.0,55.0,1645186743.28125,P15,D09,0,1,1
1324,-31.0,4.0,55.0,1645186743.3125,P15,D09,0,1,1
1325,-30.0,4.0,55.0,1645186743.34375,P15,D09,0,1,1
1326,-30.0,4.0,55.0,1645186743.375,P15,D09,0,1,1
1327,-31.0,4.0,55.0,1645186743.40625,P15,D09,0,1,1
1328,-30.0,4.0,55.0,1645186743.4375,P15,D09,0,1,1
1329,-30.0,4.0,55.0,1645186743.46875,P15,D09,0,1,1
1330,-30.0,4.0,55.0,1645186743.5,P15,D09,0,1,1
1331,-30.0,4.0,55.0,1645186743.53125,P15,D09,0,1,1
1332,-30.0,4.0,55.0,1645186743.5625,P15,D09,0,1,1
1333,-30.0,4.0,55.0,1645186743.59375,P15,D09,0,1,1
1334,-30.0,4.0,55.0,1645186743.625,P15,D09,0,1,1
1335,-30.0,4.0,55.0,1645186743.65625,P15,D09,0,1,1
1336,-31.0,4.0,55.0,1645186743.6875,P15,D09,0,1,1
1337,-30.0,4.0,55.0,1645186743.71875,P15,D09,0,1,1
1338,-30.0,4.0,55.0,1645186743.75,P15,D09,0,1,1
1339,-30.0,4.0,55.0,1645186743.78125,P15,D09,0,1,1
1340,-30.0,4.0,55.0,1645186743.8125,P15,D09,0,1,1
1341,-31.0,4.0,55.0,1645186743.84375,P15,D09,0,1,1
1342,-30.0,4.0,55.0,1645186743.875,P15,D09,0,1,1
1343,-30.0,4.0,55.0,1645186743.90625,P15,D09,0,1,1
1344,-30.0,4.0,55.0,1645186743.9375,P15,D09,0,1,1
1345,-31.0,4.0,55.0,1645186743.96875,P15,D09,0,1,1
1346,-31.0,4.0,55.0,1645186744.0,P15,D09,0,1,1
1347,-30.0,4.0,55.0,1645186744.03125,P15,D09,0,1,1
1348,-30.0,4.0,55.0,1645186744.0625,P15,D09,0,1,1
1349,-30.0,4.0,55.0,1645186744.09375,P15,D09,0,1,1
1350,-31.0,4.0,55.0,1645186744.125,P15,D09,0,1,1
1351,-30.0,4.0,55.0,1645186744.15625,P15,D09,0,1,1
1352,-30.0,4.0,55.0,1645186744.1875,P15,D09,0,1,1
1353,-30.0,4.0,55.0,1645186744.21875,P15,D09,0,1,1
1354,-30.0,4.0,55.0,1645186744.25,P15,D09,0,1,1
1355,-30.0,4.0,55.0,1645186744.28125,P15,D09,0,1,1
1356,-30.0,4.0,55.0,1645186744.3125,P15,D09,0,1,1
1357,-30.0,4.0,55.0,1645186744.34375,P15,D09,0,1,1
1358,-31.0,4.0,55.0,1645186744.375,P15,D09,0,1,1
1359,-30.0,4.0,55.0,1645186744.40625,P15,D09,0,1,1
1360,-30.0,4.0,55.0,1645186744.4375,P15,D09,0,1,1
1361,-30.0,4.0,55.0,1645186744.46875,P15,D09,0,1,1
1362,-30.0,4.0,55.0,1645186744.5,P15,D09,0,1,1
1363,-30.0,4.0,55.0,1645186744.53125,P15,D09,0,1,1
1364,-30.0,4.0,55.0,1645186744.5625,P15,D09,0,1,1
1365,-30.0,4.0,55.0,1645186744.59375,P15,D09,0,1,1
1366,-30.0,4.0,55.0,1645186744.625,P15,D09,0,1,1
1367,-30.0,4.0,55.0,1645186744.65625,P15,D09,0,1,1
1368,-30.0,4.0,55.0,1645186744.6875,P15,D09,0,1,1
1369,-30.0,4.0,55.0,1645186744.71875,P15,D09,0,1,1
1370,-30.0,4.0,55.0,1645186744.75,P15,D09,0,1,1
1371,-30.0,4.0,55.0,1645186744.78125,P15,D09,0,1,1
1372,-30.0,4.0,55.0,1645186744.8125,P15,D09,0,1,1
1373,-30.0,4.0,55.0,1645186744.84375,P15,D09,0,1,1
1374,-31.0,4.0,55.0,1645186744.875,P15,D09,0,1,1
1375,-30.0,4.0,55.0,1645186744.90625,P15,D09,0,1,1
1376,-30.0,4.0,55.0,1645186744.9375,P15,D09,0,1,1
1377,-30.0,4.0,55.0,1645186744.96875,P15,D09,0,1,1
1378,-30.0,4.0,55.0,1645186745.0,P15,D09,0,1,1
1379,-30.0,4.0,55.0,1645186745.03125,P15,D09,0,1,1
1380,-30.0,4.0,55.0,1645186745.0625,P15,D09,0,1,1
1381,-31.0,4.0,55.0,1645186745.09375,P15,D09,0,1,1
1382,-31.0,4.0,55.0,1645186745.125,P15,D09,0,1,1
1383,-30.0,4.0,55.0,1645186745.15625,P15,D09,0,1,1
1384,-30.0,4.0,55.0,1645186745.1875,P15,D09,0,1,1
1385,-30.0,4.0,55.0,1645186745.21875,P15,D09,0,1,1
1386,-30.0,4.0,55.0,1645186745.25,P15,D09,0,1,1
1387,-30.0,4.0,55.0,1645186745.28125,P15,D09,0,1,1
1388,-30.0,4.0,55.0,1645186745.3125,P15,D09,0,1,1
1389,-30.0,4.0,55.0,1645186745.34375,P15,D09,0,1,1
1390,-30.0,4.0,55.0,1645186745.375,P15,D09,0,1,1
1391,-30.0,4.0,55.0,1645186745.40625,P15,D09,0,1,1
1392,-30.0,4.0,56.0,1645186745.4375,P15,D09,0,1,1
1393,-30.0,4.0,55.0,1645186745.46875,P15,D09,0,1,1
1394,-30.0,4.0,55.0,1645186745.5,P15,D09,0,1,1
1395,-30.0,4.0,56.0,1645186745.53125,P15,D09,0,1,1
1396,-30.0,4.0,55.0,1645186745.5625,P15,D09,0,1,1
1397,-30.0,4.0,55.0,1645186745.59375,P15,D09,0,1,1
1398,-30.0,4.0,55.0,1645186745.625,P15,D09,0,1,1
1399,-30.0,4.0,55.0,1645186745.65625,P15,D09,0,1,1
1400,-30.0,4.0,55.0,1645186745.6875,P15,D09,0,1,1
1401,-30.0,4.0,55.0,1645186745.71875,P15,D09,0,1,1
1402,-31.0,4.0,55.0,1645186745.75,P15,D09,0,1,1
1403,-29.0,4.0,55.0,1645186745.78125,P15,D09,0,1,1
1404,-30.0,4.0,55.0,1645186745.8125,P15,D09,0,1,1
1405,-30.0,4.0,55.0,1645186745.84375,P15,D09,0,1,1
1406,-30.0,4.0,56.0,1645186745.875,P15,D09,0,1,1
1407,-30.0,4.0,55.0,1645186745.90625,P15,D09,0,1,1
1408,-30.0,4.0,56.0,1645186745.9375,P15,D09,0,1,1
1409,-30.0,4.0,55.0,1645186745.96875,P15,D09,0,1,1
1410,-30.0,4.0,55.0,1645186746.0,P15,D09,0,1,1
1411,-30.0,4.0,55.0,1645186746.03125,P15,D09,0,1,1
1412,-30.0,4.0,55.0,1645186746.0625,P15,D09,0,1,1
1413,-30.0,4.0,55.0,1645186746.09375,P15,D09,0,1,1
1414,-30.0,4.0,56.0,1645186746.125,P15,D09,0,1,1
1415,-30.0,4.0,55.0,1645186746.15625,P15,D09,0,1,1
1416,-30.0,4.0,55.0,1645186746.1875,P15,D09,0,1,1
1417,-29.0,4.0,56.0,1645186746.21875,P15,D09,0,1,1
1418,-30.0,4.0,55.0,1645186746.25,P15,D09,0,1,1
1419,-30.0,4.0,55.0,1645186746.28125,P15,D09,0,1,1
1420,-30.0,4.0,55.0,1645186746.3125,P15,D09,0,1,1
1421,-30.0,4.0,55.0,1645186746.34375,P15,D09,0,1,1
1422,-30.0,4.0,55.0,1645186746.375,P15,D09,0,1,1
1423,-30.0,4.0,55.0,1645186746.40625,P15,D09,0,1,1
1424,-30.0,4.0,55.0,1645186746.4375,P15,D09,0,1,1
1425,-30.0,4.0,55.0,1645186746.46875,P15,D09,0,1,1
1426,-30.0,4.0,55.0,1645186746.5,P15,D09,0,1,1
1427,-31.0,4.0,55.0,1645186746.53125,P15,D09,0,1,1
1428,-29.0,4.0,55.0,1645186746.5625,P15,D09,0,1,1
1429,-30.0,4.0,56.0,1645186746.59375,P15,D09,0,1,1
1430,-31.0,4.0,55.0,1645186746.625,P15,D09,0,1,1
1431,-30.0,4.0,55.0,1645186746.65625,P15,D09,0,1,1
1432,-30.0,4.0,55.0,1645186746.6875,P15,D09,0,1,1
1433,-30.0,4.0,55.0,1645186746.71875,P15,D09,0,1,1
1434,-30.0,4.0,55.0,1645186746.75,P15,D09,0,1,1
1435,-30.0,4.0,55.0,1645186746.78125,P15,D09,0,1,1
1436,-30.0,4.0,55.0,1645186746.8125,P15,D09,0,1,1
1437,-30.0,4.0,55.0,1645186746.84375,P15,D09,0,1,1
1438,-30.0,4.0,55.0,1645186746.875,P15,D09,0,1,1
1439,-30.0,4.0,55.0,1645186746.90625,P15,D09,0,1,1
1440,-31.0,4.0,55.0,1645186746.9375,P15,D09,0,1,1
1441,-30.0,4.0,55.0,1645186746.96875,P15,D09,0,1,1
1442,-30.0,4.0,55.0,1645186747.0,P15,D09,0,1,1
1443,-30.0,4.0,55.0,1645186747.03125,P15,D09,0,1,1
1444,-30.0,4.0,56.0,1645186747.0625,P15,D09,0,1,1
1445,-30.0,4.0,55.0,1645186747.09375,P15,D09,0,1,1
1446,-30.0,4.0,56.0,1645186747.125,P15,D09,0,1,1
1447,-30.0,4.0,55.0,1645186747.15625,P15,D09,0,1,1
1448,-30.0,4.0,55.0,1645186747.1875,P15,D09,0,1,1
1449,-30.0,4.0,55.0,1645186747.21875,P15,D09,0,1,1
1450,-30.0,4.0,55.0,1645186747.25,P15,D09,0,1,1
1451,-30.0,4.0,55.0,1645186747.28125,P15,D09,0,1,1
1452,-30.0,4.0,55.0,1645186747.3125,P15,D09,0,1,1
1453,-30.0,4.0,55.0,1645186747.34375,P15,D09,0,1,1
1454,-30.0,4.0,55.0,1645186747.375,P15,D09,0,1,1
1455,-30.0,4.0,55.0,1645186747.40625,P15,D09,0,1,1
1456,-30.0,4.0,55.0,1645186747.4375,P15,D09,0,1,1
1457,-29.0,4.0,56.0,1645186747.46875,P15,D09,0,1,1
1458,-31.0,4.0,55.0,1645186747.5,P15,D09,0,1,1
1459,-31.0,4.0,55.0,1645186747.53125,P15,D09,0,1,1
1460,-30.0,4.0,55.0,1645186747.5625,P15,D09,0,1,1
1461,-30.0,4.0,55.0,1645186747.59375,P15,D09,0,1,1
1462,-30.0,4.0,55.0,1645186747.625,P15,D09,0,1,1
1463,-30.0,4.0,56.0,1645186747.65625,P15,D09,0,1,1
1464,-31.0,4.0,55.0,1645186747.6875,P15,D09,0,1,1
1465,-30.0,4.0,55.0,1645186747.71875,P15,D09,0,1,1
1466,-30.0,4.0,55.0,1645186747.75,P15,D09,0,1,1
1467,-30.0,4.0,55.0,1645186747.78125,P15,D09,0,1,1
1468,-30.0,4.0,55.0,1645186747.8125,P15,D09,0,1,1
1469,-30.0,4.0,55.0,1645186747.84375,P15,D09,0,1,1
1470,-30.0,4.0,55.0,1645186747.875,P15,D09,0,1,1
1471,-30.0,4.0,55.0,1645186747.90625,P15,D09,0,1,1
1472,-30.0,4.0,56.0,1645186747.9375,P15,D09,0,1,1
1473,-30.0,4.0,55.0,1645186747.96875,P15,D09,0,1,1
1474,-30.0,4.0,55.0,1645186748.0,P15,D09,0,1,1
1475,-30.0,4.0,55.0,1645186748.03125,P15,D09,0,1,1
1476,-30.0,4.0,55.0,1645186748.0625,P15,D09,0,1,1
1477,-30.0,4.0,55.0,1645186748.09375,P15,D09,0,1,1
1478,-30.0,4.0,55.0,1645186748.125,P15,D09,0,1,1
1479,-30.0,4.0,55.0,1645186748.15625,P15,D09,0,1,1
1480,-30.0,4.0,55.0,1645186748.1875,P15,D09,0,1,1
1481,-30.0,4.0,56.0,1645186748.21875,P15,D09,0,1,1
1482,-30.0,4.0,55.0,1645186748.25,P15,D09,0,1,1
1483,-30.0,4.0,55.0,1645186748.28125,P15,D09,0,1,1
1484,-30.0,4.0,55.0,1645186748.3125,P15,D09,0,1,1
1485,-31.0,4.0,55.0,1645186748.34375,P15,D09,0,1,1
1486,-30.0,4.0,55.0,1645186748.375,P15,D09,0,1,1
1487,-30.0,4.0,55.0,1645186748.40625,P15,D09,0,1,1
1488,-30.0,4.0,55.0,1645186748.4375,P15,D09,0,1,1
1489,-31.0,4.0,55.0,1645186748.46875,P15,D09,0,1,1
1490,-30.0,4.0,55.0,1645186748.5,P15,D09,0,1,1
1491,-30.0,4.0,55.0,1645186748.53125,P15,D09,0,1,1
1492,-30.0,4.0,55.0,1645186748.5625,P15,D09,0,1,1
1493,-31.0,4.0,55.0,1645186748.59375,P15,D09,0,1,1
1494,-31.0,4.0,55.0,1645186748.625,P15,D09,0,1,1
1495,-30.0,4.0,55.0,1645186748.65625,P15,D09,0,1,1
1496,-30.0,4.0,55.0,1645186748.6875,P15,D09,0,1,1
1497,-30.0,4.0,55.0,1645186748.71875,P15,D09,0,1,1
1498,-31.0,4.0,55.0,1645186748.75,P15,D09,0,1,1
1499,-30.0,4.0,55.0,1645186748.78125,P15,D09,0,1,1
1500,-30.0,4.0,55.0,1645186748.8125,P15,D09,0,1,1
1501,-30.0,4.0,56.0,1645186748.84375,P15,D09,0,1,1
1502,-31.0,4.0,55.0,1645186748.875,P15,D09,0,1,1
1503,-31.0,4.0,55.0,1645186748.90625,P15,D09,0,1,1
1504,-30.0,4.0,55.0,1645186748.9375,P15,D09,0,1,1
1505,-30.0,4.0,55.0,1645186748.96875,P15,D09,0,1,1
1506,-30.0,4.0,55.0,1645186749.0,P15,D09,0,1,1
1507,-30.0,4.0,55.0,1645186749.03125,P15,D09,0,1,1
1508,-30.0,4.0,55.0,1645186749.0625,P15,D09,0,1,1
1509,-30.0,4.0,55.0,1645186749.09375,P15,D09,0,1,1
1510,-30.0,4.0,55.0,1645186749.125,P15,D09,0,1,1
1511,-31.0,4.0,55.0,1645186749.15625,P15,D09,0,1,1
1512,-30.0,4.0,55.0,1645186749.1875,P15,D09,0,1,1
1513,-30.0,4.0,55.0,1645186749.21875,P15,D09,0,1,1
1514,-30.0,4.0,55.0,1645186749.25,P15,D09,0,1,1
1515,-30.0,4.0,56.0,1645186749.28125,P15,D09,0,1,1
1516,-31.0,4.0,55.0,1645186749.3125,P15,D09,0,1,1
1517,-30.0,4.0,55.0,1645186749.34375,P15,D09,0,1,1
1518,-30.0,4.0,55.0,1645186749.375,P15,D09,0,1,1
1519,-30.0,4.0,55.0,1645186749.40625,P15,D09,0,1,1
1520,-30.0,4.0,56.0,1645186749.4375,P15,D09,0,1,1
1521,-31.0,4.0,55.0,1645186749.46875,P15,D09,0,1,1
1522,-29.0,4.0,55.0,1645186749.5,P15,D09,0,1,1
1523,-30.0,4.0,55.0,1645186749.53125,P15,D09,0,1,1
1524,-30.0,4.0,55.0,1645186749.5625,P15,D09,0,1,1
1525,-30.0,4.0,55.0,1645186749.59375,P15,D09,0,1,1
1526,-30.0,4.0,55.0,1645186749.625,P15,D09,0,1,1
1527,-30.0,4.0,55.0,1645186749.65625,P15,D09,0,1,1
1528,-30.0,4.0,55.0,1645186749.6875,P15,D09,0,1,1
1529,-30.0,4.0,55.0,1645186749.71875,P15,D09,0,1,1
1530,-30.0,4.0,55.0,1645186749.75,P15,D09,0,1,1
1531,-30.0,4.0,55.0,1645186749.78125,P15,D09,0,1,1
1532,-30.0,4.0,55.0,1645186749.8125,P15,D09,0,1,1
1533,-30.0,4.0,55.0,1645186749.84375,P15,D09,0,1,1
1534,-30.0,4.0,55.0,1645186749.875,P15,D09,0,1,1
1535,-30.0,4.0,55.0,1645186749.90625,P15,D09,0,1,1
1536,-30.0,4.0,55.0,1645186749.9375,P15,D09,0,1,1
1537,-30.0,4.0,55.0,1645186749.96875,P15,D09,0,1,1
1538,-30.0,4.0,55.0,1645186750.0,P15,D09,0,1,1
1539,-30.0,4.0,55.0,1645186750.03125,P15,D09,0,1,1
1540,-30.0,4.0,55.0,1645186750.0625,P15,D09,0,1,1
1541,-30.0,4.0,55.0,1645186750.09375,P15,D09,0,1,1
1542,-30.0,4.0,55.0,1645186750.125,P15,D09,0,1,1
1543,-31.0,4.0,55.0,1645186750.15625,P15,D09,0,1,1
1544,-30.0,4.0,55.0,1645186750.1875,P15,D09,0,1,1
1545,-30.0,4.0,56.0,1645186750.21875,P15,D09,0,1,1
1546,-30.0,4.0,55.0,1645186750.25,P15,D09,0,1,1
1547,-30.0,4.0,55.0,1645186750.28125,P15,D09,0,1,1
1548,-31.0,4.0,55.0,1645186750.3125,P15,D09,0,1,1
1549,-31.0,4.0,55.0,1645186750.34375,P15,D09,0,1,1
1550,-30.0,4.0,55.0,1645186750.375,P15,D09,0,1,1
1551,-30.0,4.0,55.0,1645186750.40625,P15,D09,0,1,1
1552,-30.0,4.0,55.0,1645186750.4375,P15,D09,0,1,1
1553,-30.0,4.0,55.0,1645186750.46875,P15,D09,0,1,1
1554,-31.0,4.0,55.0,1645186750.5,P15,D09,0,1,1
1555,-30.0,4.0,55.0,1645186750.53125,P15,D09,0,1,1
1556,-30.0,4.0,55.0,1645186750.5625,P15,D09,0,1,1
1557,-29.0,4.0,56.0,1645186750.59375,P15,D09,0,1,1
1558,-31.0,4.0,55.0,1645186750.625,P15,D09,0,1,1
1559,-30.0,4.0,55.0,1645186750.65625,P15,D09,0,1,1
1560,-30.0,4.0,55.0,1645186750.6875,P15,D09,0,1,1
1561,-30.0,4.0,55.0,1645186750.71875,P15,D09,0,1,1
1562,-30.0,4.0,55.0,1645186750.75,P15,D09,0,1,1
1563,-30.0,4.0,55.0,1645186750.78125,P15,D09,0,1,1
1564,-30.0,4.0,55.0,1645186750.8125,P15,D09,0,1,1
1565,-30.0,4.0,55.0,1645186750.84375,P15,D09,0,1,1
1566,-30.0,4.0,55.0,1645186750.875,P15,D09,0,1,1
1567,-30.0,4.0,55.0,1645186750.90625,P15,D09,0,1,1
1568,-30.0,4.0,55.0,1645186750.9375,P15,D09,0,1,1
1569,-30.0,4.0,55.0,1645186750.96875,P15,D09,0,1,1
1570,-30.0,4.0,55.0,1645186751.0,P15,D09,0,1,1
1571,-30.0,4.0,55.0,1645186751.03125,P15,D09,0,1,1
1572,-31.0,4.0,55.0,1645186751.0625,P15,D09,0,1,1
1573,-31.0,4.0,55.0,1645186751.09375,P15,D09,0,1,1
1574,-31.0,4.0,55.0,1645186751.125,P15,D09,0,1,1
1575,-31.0,4.0,55.0,1645186751.15625,P15,D09,0,1,1
1576,-30.0,4.0,55.0,1645186751.1875,P15,D09,0,1,1
1577,-30.0,4.0,55.0,1645186751.21875,P15,D09,0,1,1
1578,-30.0,4.0,55.0,1645186751.25,P15,D09,0,1,1
1579,-30.0,4.0,55.0,1645186751.28125,P15,D09,0,1,1
1580,-31.0,4.0,55.0,1645186751.3125,P15,D09,0,1,1
1581,-31.0,4.0,55.0,1645186751.34375,P15,D09,0,1,1
1582,-30.0,4.0,55.0,1645186751.375,P15,D09,0,1,1
1583,-29.0,4.0,56.0,1645186751.40625,P15,D09,0,1,1
1584,-29.0,4.0,56.0,1645186751.4375,P15,D09,0,1,1
1585,-30.0,4.0,55.0,1645186751.46875,P15,D09,0,1,1
1586,-31.0,4.0,55.0,1645186751.5,P15,D09,0,1,1
1587,-31.0,4.0,55.0,1645186751.53125,P15,D09,0,1,1
1588,-30.0,4.0,55.0,1645186751.5625,P15,D09,0,1,1
1589,-30.0,4.0,55.0,1645186751.59375,P15,D09,0,1,1
1590,-31.0,4.0,55.0,1645186751.625,P15,D09,0,1,1
1591,-30.0,4.0,55.0,1645186751.65625,P15,D09,0,1,1
1592,-31.0,4.0,55.0,1645186751.6875,P15,D09,0,1,1
1593,-31.0,4.0,55.0,1645186751.71875,P15,D09,0,1,1
1594,-30.0,4.0,55.0,1645186751.75,P15,D09,0,1,1
1595,-30.0,4.0,55.0,1645186751.78125,P15,D09,0,1,1
1596,-30.0,4.0,55.0,1645186751.8125,P15,D09,0,1,1
1597,-30.0,4.0,55.0,1645186751.84375,P15,D09,0,1,1
1598,-30.0,4.0,55.0,1645186751.875,P15,D09,0,1,1
1599,-30.0,4.0,55.0,1645186751.90625,P15,D09,0,1,1
1600,-30.0,4.0,55.0,1645186751.9375,P15,D09,0,1,1
1601,-30.0,4.0,55.0,1645186751.96875,P15,D09,0,1,1
1602,-30.0,4.0,55.0,1645186752.0,P15,D09,0,1,1
1603,-31.0,4.0,55.0,1645186752.03125,P15,D09,0,1,1
1604,-30.0,4.0,55.0,1645186752.0625,P15,D09,0,1,1
1605,-30.0,4.0,55.0,1645186752.09375,P15,D09,0,1,1
1606,-30.0,4.0,55.0,1645186752.125,P15,D09,0,1,1
1607,-30.0,4.0,55.0,1645186752.15625,P15,D09,0,1,1
1608,-30.0,4.0,55.0,1645186752.1875,P15,D09,0,1,1
1609,-30.0,4.0,55.0,1645186752.21875,P15,D09,0,1,1
1610,-30.0,4.0,55.0,1645186752.25,P15,D09,0,1,1
1611,-31.0,4.0,55.0,1645186752.28125,P15,D09,0,1,1
1612,-30.0,4.0,55.0,1645186752.3125,P15,D09,0,1,1
1613,-29.0,4.0,55.0,1645186752.34375,P15,D09,0,1,1
1614,-30.0,4.0,55.0,1645186752.375,P15,D09,0,1,1
1615,-31.0,4.0,55.0,1645186752.40625,P15,D09,0,1,1
1616,-30.0,4.0,55.0,1645186752.4375,P15,D09,0,1,1
1617,-30.0,4.0,55.0,1645186752.46875,P15,D09,0,1,1
1618,-30.0,4.0,55.0,1645186752.5,P15,D09,0,1,1
1619,-30.0,4.0,55.0,1645186752.53125,P15,D09,0,1,1
1620,-30.0,4.0,55.0,1645186752.5625,P15,D09,0,1,1
1621,-30.0,4.0,55.0,1645186752.59375,P15,D09,0,1,1
1622,-31.0,4.0,55.0,1645186752.625,P15,D09,0,1,1
1623,-30.0,4.0,55.0,1645186752.65625,P15,D09,0,1,1
1624,-30.0,4.0,55.0,1645186752.6875,P15,D09,0,1,1
1625,-30.0,4.0,55.0,1645186752.71875,P15,D09,0,1,1
1626,-31.0,4.0,55.0,1645186752.75,P15,D09,0,1,1
1627,-30.0,4.0,55.0,1645186752.78125,P15,D09,0,1,1
1628,-30.0,4.0,55.0,1645186752.8125,P15,D09,0,1,1
1629,-30.0,4.0,55.0,1645186752.84375,P15,D09,0,1,1
1630,-30.0,4.0,55.0,1645186752.875,P15,D09,0,1,1
1631,-30.0,4.0,56.0,1645186752.90625,P15,D09,0,1,1
1632,-30.0,4.0,55.0,1645186752.9375,P15,D09,0,1,1
1633,-30.0,4.0,55.0,1645186752.96875,P15,D09,0,1,1
1634,-30.0,4.0,55.0,1645186753.0,P15,D09,0,1,1
1635,-31.0,4.0,55.0,1645186753.03125,P15,D09,0,1,1
1636,-31.0,4.0,55.0,1645186753.0625,P15,D09,0,1,1
1637,-31.0,4.0,55.0,1645186753.09375,P15,D09,0,1,1
1638,-30.0,5.0,55.0,1645186753.125,P15,D09,0,1,1
1639,-30.0,5.0,55.0,1645186753.15625,P15,D09,0,1,1
1640,-31.0,4.0,55.0,1645186753.1875,P15,D09,0,1,1
1641,-30.0,4.0,55.0,1645186753.21875,P15,D09,0,1,1
1642,-30.0,4.0,56.0,1645186753.25,P15,D09,0,1,1
1643,-30.0,4.0,55.0,1645186753.28125,P15,D09,0,1,1
1644,-29.0,4.0,55.0,1645186753.3125,P15,D09,0,1,1
1645,-30.0,4.0,55.0,1645186753.34375,P15,D09,0,1,1
1646,-30.0,4.0,55.0,1645186753.375,P15,D09,0,1,1
1647,-30.0,4.0,55.0,1645186753.40625,P15,D09,0,1,1
1648,-30.0,4.0,55.0,1645186753.4375,P15,D09,0,1,1
1649,-30.0,4.0,55.0,1645186753.46875,P15,D09,0,1,1
1650,-30.0,4.0,55.0,1645186753.5,P15,D09,0,1,1
1651,-31.0,4.0,55.0,1645186753.53125,P15,D09,0,1,1
1652,-31.0,4.0,55.0,1645186753.5625,P15,D09,0,1,1
1653,-30.0,4.0,55.0,1645186753.59375,P15,D09,0,1,1
1654,-30.0,4.0,55.0,1645186753.625,P15,D09,0,1,1
1655,-30.0,4.0,55.0,1645186753.65625,P15,D09,0,1,1
1656,-30.0,4.0,55.0,1645186753.6875,P15,D09,0,1,1
1657,-31.0,4.0,55.0,1645186753.71875,P15,D09,0,1,1
1658,-30.0,4.0,55.0,1645186753.75,P15,D09,0,1,1
1659,-30.0,4.0,55.0,1645186753.78125,P15,D09,0,1,1
1660,-31.0,4.0,55.0,1645186753.8125,P15,D09,0,1,1
1661,-31.0,4.0,55.0,1645186753.84375,P15,D09,0,1,1
1662,-30.0,4.0,55.0,1645186753.875,P15,D09,0,1,1
1663,-31.0,4.0,55.0,1645186753.90625,P15,D09,0,1,1
1664,-30.0,4.0,55.0,1645186753.9375,P15,D09,0,1,1
1665,-30.0,4.0,55.0,1645186753.96875,P15,D09,0,1,1
1666,-31.0,4.0,55.0,1645186754.0,P15,D09,0,1,1
1667,-31.0,4.0,55.0,1645186754.03125,P15,D09,0,1,1
1668,-30.0,4.0,55.0,1645186754.0625,P15,D09,0,1,1
1669,-30.0,4.0,55.0,1645186754.09375,P15,D09,0,1,1
1670,-30.0,4.0,55.0,1645186754.125,P15,D09,0,1,1
1671,-31.0,4.0,55.0,1645186754.15625,P15,D09,0,1,1
1672,-31.0,4.0,55.0,1645186754.1875,P15,D09,0,1,1
1673,-31.0,4.0,55.0,1645186754.21875,P15,D09,0,1,1
1674,-30.0,4.0,55.0,1645186754.25,P15,D09,0,1,1
1675,-30.0,4.0,55.0,1645186754.28125,P15,D09,0,1,1
1676,-31.0,4.0,55.0,1645186754.3125,P15,D09,0,1,1
1677,-31.0,4.0,55.0,1645186754.34375,P15,D09,0,1,1
1678,-31.0,4.0,55.0,1645186754.375,P15,D09,0,1,1
1679,-30.0,4.0,55.0,1645186754.40625,P15,D09,0,1,1
1680,-30.0,4.0,55.0,1645186754.4375,P15,D09,0,1,1
1681,-31.0,4.0,55.0,1645186754.46875,P15,D09,0,1,1
1682,-31.0,4.0,55.0,1645186754.5,P15,D09,0,1,1
1683,-30.0,4.0,55.0,1645186754.53125,P15,D09,0,1,1
1684,-30.0,4.0,55.0,1645186754.5625,P15,D09,0,1,1
1685,-31.0,4.0,55.0,1645186754.59375,P15,D09,0,1,1
1686,-31.0,4.0,55.0,1645186754.625,P15,D09,0,1,1
1687,-31.0,4.0,55.0,1645186754.65625,P15,D09,0,1,1
1688,-30.0,4.0,55.0,1645186754.6875,P15,D09,0,1,1
1689,-30.0,4.0,55.0,1645186754.71875,P15,D09,0,1,1
1690,-31.0,4.0,55.0,1645186754.75,P15,D09,0,1,1
1691,-30.0,4.0,55.0,1645186754.78125,P15,D09,0,1,1
1692,-30.0,4.0,55.0,1645186754.8125,P15,D09,0,1,1
1693,-31.0,4.0,55.0,1645186754.84375,P15,D09,0,1,1
1694,-31.0,4.0,55.0,1645186754.875,P15,D09,0,1,1
1695,-31.0,4.0,55.0,1645186754.90625,P15,D09,0,1,1
1696,-31.0,4.0,55.0,1645186754.9375,P15,D09,0,1,1
1697,-30.0,4.0,55.0,1645186754.96875,P15,D09,0,1,1
1698,-30.0,4.0,55.0,1645186755.0,P15,D09,0,1,1
1699,-31.0,4.0,55.0,1645186755.03125,P15,D09,0,1,1
1700,-31.0,4.0,55.0,1645186755.0625,P15,D09,0,1,1
1701,-31.0,4.0,55.0,1645186755.09375,P15,D09,0,1,1
1702,-31.0,4.0,55.0,1645186755.125,P15,D09,0,1,1
1703,-31.0,4.0,55.0,1645186755.15625,P15,D09,0,1,1
1704,-31.0,4.0,55.0,1645186755.1875,P15,D09,0,1,1
1705,-31.0,4.0,55.0,1645186755.21875,P15,D09,0,1,1
1706,-30.0,4.0,55.0,1645186755.25,P15,D09,0,1,1
1707,-31.0,4.0,55.0,1645186755.28125,P15,D09,0,1,1
1708,-31.0,4.0,55.0,1645186755.3125,P15,D09,0,1,1
1709,-30.0,4.0,55.0,1645186755.34375,P15,D09,0,1,1
1710,-31.0,4.0,55.0,1645186755.375,P15,D09,0,1,1
1711,-31.0,4.0,55.0,1645186755.40625,P15,D09,0,1,1
1712,-30.0,4.0,55.0,1645186755.4375,P15,D09,0,1,1
1713,-31.0,4.0,55.0,1645186755.46875,P15,D09,0,1,1
1714,-31.0,4.0,55.0,1645186755.5,P15,D09,0,1,1
1715,-30.0,4.0,55.0,1645186755.53125,P15,D09,0,1,1
1716,-31.0,4.0,55.0,1645186755.5625,P15,D09,0,1,1
1717,-30.0,4.0,55.0,1645186755.59375,P15,D09,0,1,1
1718,-31.0,4.0,55.0,1645186755.625,P15,D09,0,1,1
1719,-30.0,4.0,55.0,1645186755.65625,P15,D09,0,1,1
1720,-30.0,4.0,55.0,1645186755.6875,P15,D09,0,1,1
1721,-31.0,4.0,55.0,1645186755.71875,P15,D09,0,1,1
1722,-31.0,4.0,55.0,1645186755.75,P15,D09,0,1,1
1723,-30.0,4.0,55.0,1645186755.78125,P15,D09,0,1,1
1724,-30.0,4.0,55.0,1645186755.8125,P15,D09,0,1,1
1725,-30.0,4.0,55.0,1645186755.84375,P15,D09,0,1,1
1726,-30.0,4.0,55.0,1645186755.875,P15,D09,0,1,1
1727,-30.0,4.0,55.0,1645186755.90625,P15,D09,0,1,1
1728,-30.0,4.0,55.0,1645186755.9375,P15,D09,0,1,1
1729,-29.0,4.0,55.0,1645186755.96875,P15,D09,0,1,1
1730,-31.0,4.0,55.0,1645186756.0,P15,D09,0,1,1
1731,-30.0,4.0,55.0,1645186756.03125,P15,D09,0,1,1
1732,-31.0,4.0,55.0,1645186756.0625,P15,D09,0,1,1
1733,-30.0,4.0,55.0,1645186756.09375,P15,D09,0,1,1
1734,-30.0,4.0,55.0,1645186756.125,P15,D09,0,1,1
1735,-30.0,4.0,55.0,1645186756.15625,P15,D09,0,1,1
1736,-30.0,4.0,55.0,1645186756.1875,P15,D09,0,1,1
1737,-30.0,4.0,55.0,1645186756.21875,P15,D09,0,1,1
1738,-30.0,4.0,55.0,1645186756.25,P15,D09,0,1,1
1739,-30.0,4.0,55.0,1645186756.28125,P15,D09,0,1,1
1740,-30.0,4.0,55.0,1645186756.3125,P15,D09,0,1,1
1741,-30.0,4.0,55.0,1645186756.34375,P15,D09,0,1,1
1742,-30.0,4.0,55.0,1645186756.375,P15,D09,0,1,1
1743,-30.0,4.0,55.0,1645186756.40625,P15,D09,0,1,1
1744,-30.0,4.0,55.0,1645186756.4375,P15,D09,0,1,1
1745,-31.0,4.0,55.0,1645186756.46875,P15,D09,0,1,1
1746,-30.0,4.0,55.0,1645186756.5,P15,D09,0,1,1
1747,-30.0,4.0,55.0,1645186756.53125,P15,D09,0,1,1
1748,-30.0,4.0,55.0,1645186756.5625,P15,D09,0,1,1
1749,-30.0,4.0,55.0,1645186756.59375,P15,D09,0,1,1
1750,-30.0,4.0,55.0,1645186756.625,P15,D09,0,1,1
1751,-30.0,4.0,55.0,1645186756.65625,P15,D09,0,1,1
1752,-30.0,4.0,55.0,1645186756.6875,P15,D09,0,1,1
1753,-30.0,4.0,55.0,1645186756.71875,P15,D09,0,1,1
1754,-31.0,4.0,55.0,1645186756.75,P15,D09,0,1,1
1755,-30.0,4.0,55.0,1645186756.78125,P15,D09,0,1,1
1756,-30.0,4.0,55.0,1645186756.8125,P15,D09,0,1,1
1757,-30.0,4.0,55.0,1645186756.84375,P15,D09,0,1,1
1758,-30.0,4.0,55.0,1645186756.875,P15,D09,0,1,1
1759,-31.0,4.0,55.0,1645186756.90625,P15,D09,0,1,1
1760,-30.0,4.0,55.0,1645186756.9375,P15,D09,0,1,1
1761,-30.0,4.0,55.0,1645186756.96875,P15,D09,0,1,1
1762,-31.0,4.0,55.0,1645186757.0,P15,D09,0,1,1
1763,-31.0,4.0,55.0,1645186757.03125,P15,D09,0,1,1
1764,-31.0,4.0,55.0,1645186757.0625,P15,D09,0,1,1
1765,-30.0,4.0,55.0,1645186757.09375,P15,D09,0,1,1
1766,-30.0,4.0,55.0,1645186757.125,P15,D09,0,1,1
1767,-30.0,4.0,55.0,1645186757.15625,P15,D09,0,1,1
1768,-31.0,4.0,55.0,1645186757.1875,P15,D09,0,1,1
1769,-31.0,4.0,55.0,1645186757.21875,P15,D09,0,1,1
1770,-30.0,4.0,55.0,1645186757.25,P15,D09,0,1,1
1771,-30.0,4.0,55.0,1645186757.28125,P15,D09,0,1,1
1772,-31.0,4.0,55.0,1645186757.3125,P15,D09,0,1,1
1773,-31.0,4.0,55.0,1645186757.34375,P15,D09,0,1,1
1774,-31.0,4.0,55.0,1645186757.375,P15,D09,0,1,1
1775,-30.0,4.0,55.0,1645186757.40625,P15,D09,0,1,1
1776,-30.0,4.0,55.0,1645186757.4375,P15,D09,0,1,1
1777,-30.0,4.0,55.0,1645186757.46875,P15,D09,0,1,1
1778,-31.0,4.0,55.0,1645186757.5,P15,D09,0,1,1
1779,-31.0,4.0,55.0,1645186757.53125,P15,D09,0,1,1
1780,-30.0,4.0,55.0,1645186757.5625,P15,D09,0,1,1
1781,-30.0,4.0,55.0,1645186757.59375,P15,D09,0,1,1
1782,-30.0,4.0,55.0,1645186757.625,P15,D09,0,1,1
1783,-31.0,4.0,55.0,1645186757.65625,P15,D09,0,1,1
1784,-31.0,4.0,55.0,1645186757.6875,P15,D09,0,1,1
1785,-31.0,4.0,55.0,1645186757.71875,P15,D09,0,1,1
1786,-31.0,4.0,55.0,1645186757.75,P15,D09,0,1,1
1787,-30.0,4.0,55.0,1645186757.78125,P15,D09,0,1,1
1788,-30.0,4.0,55.0,1645186757.8125,P15,D09,0,1,1
1789,-31.0,4.0,55.0,1645186757.84375,P15,D09,0,1,1
1790,-31.0,4.0,55.0,1645186757.875,P15,D09,0,1,1
1791,-30.0,4.0,55.0,1645186757.90625,P15,D09,0,1,1
1792,-31.0,4.0,55.0,1645186757.9375,P15,D09,0,1,1
1793,-31.0,4.0,55.0,1645186757.96875,P15,D09,0,1,1
1794,-31.0,4.0,55.0,1645186758.0,P15,D09,0,1,1
1795,-31.0,4.0,55.0,1645186758.03125,P15,D09,0,1,1
1796,-30.0,4.0,55.0,1645186758.0625,P15,D09,0,1,1
1797,-30.0,4.0,55.0,1645186758.09375,P15,D09,0,1,1
1798,-31.0,4.0,55.0,1645186758.125,P15,D09,0,1,1
1799,-31.0,4.0,55.0,1645186758.15625,P15,D09,0,1,1
1800,-31.0,4.0,55.0,1645186758.1875,P15,D09,0,1,1
1801,-31.0,4.0,55.0,1645186758.21875,P15,D09,0,1,1
1802,-30.0,4.0,55.0,1645186758.25,P15,D09,0,1,1
1803,-31.0,4.0,55.0,1645186758.28125,P15,D09,0,1,1
1804,-31.0,4.0,55.0,1645186758.3125,P15,D09,0,1,1
1805,-31.0,4.0,55.0,1645186758.34375,P15,D09,0,1,1
1806,-30.0,4.0,55.0,1645186758.375,P15,D09,0,1,1
1807,-30.0,4.0,55.0,1645186758.40625,P15,D09,0,1,1
1808,-30.0,4.0,55.0,1645186758.4375,P15,D09,0,1,1
1809,-32.0,4.0,55.0,1645186758.46875,P15,D09,0,1,1
1810,-31.0,4.0,55.0,1645186758.5,P15,D09,0,1,1
1811,-30.0,4.0,55.0,1645186758.53125,P15,D09,0,1,1
1812,-30.0,4.0,55.0,1645186758.5625,P15,D09,0,1,1
1813,-31.0,4.0,55.0,1645186758.59375,P15,D09,0,1,1
1814,-31.0,4.0,55.0,1645186758.625,P15,D09,0,1,1
1815,-30.0,4.0,55.0,1645186758.65625,P15,D09,0,1,1
1816,-31.0,4.0,55.0,1645186758.6875,P15,D09,0,1,1
1817,-31.0,4.0,55.0,1645186758.71875,P15,D09,0,1,1
1818,-31.0,4.0,55.0,1645186758.75,P15,D09,0,1,1
1819,-30.0,4.0,55.0,1645186758.78125,P15,D09,0,1,1
1820,-31.0,4.0,55.0,1645186758.8125,P15,D09,0,1,1
1821,-30.0,4.0,55.0,1645186758.84375,P15,D09,0,1,1
1822,-31.0,4.0,55.0,1645186758.875,P15,D09,0,1,1
1823,-31.0,4.0,55.0,1645186758.90625,P15,D09,0,1,1
1824,-30.0,4.0,55.0,1645186758.9375,P15,D09,0,1,1
1825,-31.0,4.0,55.0,1645186758.96875,P15,D09,0,1,1
1826,-31.0,4.0,55.0,1645186759.0,P15,D09,0,1,1
1827,-30.0,4.0,55.0,1645186759.03125,P15,D09,0,1,1
1828,-31.0,4.0,55.0,1645186759.0625,P15,D09,0,1,1
1829,-30.0,4.0,55.0,1645186759.09375,P15,D09,0,1,1
1830,-31.0,4.0,55.0,1645186759.125,P15,D09,0,1,1
1831,-31.0,4.0,55.0,1645186759.15625,P15,D09,0,1,1
1832,-30.0,4.0,55.0,1645186759.1875,P15,D09,0,1,1
1833,-31.0,4.0,55.0,1645186759.21875,P15,D09,0,1,1
1834,-31.0,4.0,55.0,1645186759.25,P15,D09,0,1,1
1835,-31.0,4.0,55.0,1645186759.28125,P15,D09,0,1,1
1836,-31.0,4.0,55.0,1645186759.3125,P15,D09,0,1,1
1837,-30.0,4.0,55.0,1645186759.34375,P15,D09,0,1,1
1838,-31.0,4.0,55.0,1645186759.375,P15,D09,0,1,1
1839,-31.0,4.0,55.0,1645186759.40625,P15,D09,0,1,1
1840,-30.0,4.0,55.0,1645186759.4375,P15,D09,0,1,1
1841,-30.0,4.0,55.0,1645186759.46875,P15,D09,0,1,1
1842,-31.0,4.0,55.0,1645186759.5,P15,D09,0,1,1
1843,-31.0,4.0,55.0,1645186759.53125,P15,D09,0,1,1
1844,-31.0,4.0,55.0,1645186759.5625,P15,D09,0,1,1
1845,-31.0,4.0,55.0,1645186759.59375,P15,D09,0,1,1
1846,-30.0,4.0,55.0,1645186759.625,P15,D09,0,1,1
1847,-30.0,4.0,55.0,1645186759.65625,P15,D09,0,1,1
1848,-31.0,4.0,55.0,1645186759.6875,P15,D09,0,1,1
1849,-30.0,4.0,55.0,1645186759.71875,P15,D09,0,1,1
1850,-31.0,4.0,55.0,1645186759.75,P15,D09,0,1,1
1851,-30.0,4.0,55.0,1645186759.78125,P15,D09,0,1,1
1852,-30.0,4.0,55.0,1645186759.8125,P15,D09,0,1,1
1853,-30.0,4.0,55.0,1645186759.84375,P15,D09,0,1,1
1854,-30.0,4.0,55.0,1645186759.875,P15,D09,0,1,1
1855,-31.0,4.0,55.0,1645186759.90625,P15,D09,0,1,1
1856,-31.0,4.0,55.0,1645186759.9375,P15,D09,0,1,1
1857,-30.0,4.0,55.0,1645186759.96875,P15,D09,0,1,1
1858,-30.0,4.0,55.0,1645186760.0,P15,D09,0,1,1
1859,-30.0,4.0,55.0,1645186760.03125,P15,D09,0,1,1
1860,-30.0,4.0,55.0,1645186760.0625,P15,D09,0,1,1
1861,-31.0,4.0,55.0,1645186760.09375,P15,D09,0,1,1
1862,-30.0,4.0,55.0,1645186760.125,P15,D09,0,1,1
1863,-30.0,4.0,55.0,1645186760.15625,P15,D09,0,1,1
1864,-31.0,4.0,55.0,1645186760.1875,P15,D09,0,1,1
1865,-30.0,4.0,55.0,1645186760.21875,P15,D09,0,1,1
1866,-30.0,4.0,55.0,1645186760.25,P15,D09,0,1,1
1867,-31.0,4.0,55.0,1645186760.28125,P15,D09,0,1,1
1868,-30.0,4.0,56.0,1645186760.3125,P15,D09,0,1,1
1869,-30.0,4.0,55.0,1645186760.34375,P15,D09,0,1,1
1870,-31.0,4.0,55.0,1645186760.375,P15,D09,0,1,1
1871,-31.0,4.0,55.0,1645186760.40625,P15,D09,0,1,1
1872,-30.0,4.0,55.0,1645186760.4375,P15,D09,0,1,1
1873,-30.0,4.0,55.0,1645186760.46875,P15,D09,0,1,1
1874,-30.0,4.0,55.0,1645186760.5,P15,D09,0,1,1
1875,-31.0,4.0,55.0,1645186760.53125,P15,D09,0,1,1
1876,-31.0,4.0,55.0,1645186760.5625,P15,D09,0,1,1
1877,-31.0,4.0,55.0,1645186760.59375,P15,D09,0,1,1
1878,-30.0,4.0,55.0,1645186760.625,P15,D09,0,1,1
1879,-30.0,4.0,55.0,1645186760.65625,P15,D09,0,1,1
1880,-31.0,4.0,55.0,1645186760.6875,P15,D09,0,1,1
1881,-31.0,4.0,55.0,1645186760.71875,P15,D09,0,1,1
1882,-30.0,4.0,55.0,1645186760.75,P15,D09,0,1,1
1883,-31.0,4.0,55.0,1645186760.78125,P15,D09,0,1,1
1884,-30.0,4.0,55.0,1645186760.8125,P15,D09,0,1,1
1885,-31.0,4.0,55.0,1645186760.84375,P15,D09,0,1,1
1886,-31.0,4.0,55.0,1645186760.875,P15,D09,0,1,1
1887,-30.0,4.0,55.0,1645186760.90625,P15,D09,0,1,1
1888,-31.0,4.0,55.0,1645186760.9375,P15,D09,0,1,1
1889,-31.0,4.0,55.0,1645186760.96875,P15,D09,0,1,1
1890,-30.0,4.0,55.0,1645186761.0,P15,D09,0,1,1
1891,-31.0,4.0,55.0,1645186761.03125,P15,D09,0,1,1
1892,-31.0,4.0,55.0,1645186761.0625,P15,D09,0,1,1
1893,-30.0,4.0,55.0,1645186761.09375,P15,D09,0,1,1
1894,-30.0,4.0,55.0,1645186761.125,P15,D09,0,1,1
1895,-30.0,4.0,55.0,1645186761.15625,P15,D09,0,1,1
1896,-31.0,4.0,55.0,1645186761.1875,P15,D09,0,1,1
1897,-31.0,4.0,55.0,1645186761.21875,P15,D09,0,1,1
1898,-30.0,4.0,55.0,1645186761.25,P15,D09,0,1,1
1899,-31.0,4.0,55.0,1645186761.28125,P15,D09,0,1,1
1900,-31.0,4.0,55.0,1645186761.3125,P15,D09,0,1,1
1901,-31.0,4.0,55.0,1645186761.34375,P15,D09,0,1,1
1902,-31.0,4.0,55.0,1645186761.375,P15,D09,0,1,1
1903,-30.0,4.0,55.0,1645186761.40625,P15,D09,0,1,1
1904,-31.0,4.0,55.0,1645186761.4375,P15,D09,0,1,1
1905,-31.0,4.0,55.0,1645186761.46875,P15,D09,0,1,1
1906,-31.0,4.0,55.0,1645186761.5,P15,D09,0,1,1
1907,-30.0,4.0,55.0,1645186761.53125,P15,D09,0,1,1
1908,-31.0,4.0,55.0,1645186761.5625,P15,D09,0,1,1
1909,-30.0,4.0,55.0,1645186761.59375,P15,D09,0,1,1
1910,-31.0,4.0,55.0,1645186761.625,P15,D09,0,1,1
1911,-31.0,4.0,55.0,1645186761.65625,P15,D09,0,1,1
1912,-31.0,4.0,55.0,1645186761.6875,P15,D09,0,1,1
1913,-30.0,4.0,55.0,1645186761.71875,P15,D09,0,1,1
1914,-31.0,4.0,55.0,1645186761.75,P15,D09,0,1,1
1915,-31.0,4.0,55.0,1645186761.78125,P15,D09,0,1,1
1916,-31.0,4.0,55.0,1645186761.8125,P15,D09,0,1,1
1917,-30.0,4.0,55.0,1645186761.84375,P15,D09,0,1,1
1918,-31.0,4.0,55.0,1645186761.875,P15,D09,0,1,1
1919,-30.0,4.0,55.0,1645186761.90625,P15,D09,0,1,1
1920,-31.0,4.0,55.0,1645186761.9375,P15,D09,0,1,1
1921,-31.0,4.0,55.0,1645186761.96875,P15,D09,0,1,1
1922,-30.0,4.0,55.0,1645186762.0,P15,D09,0,1,1
1923,-30.0,4.0,55.0,1645186762.03125,P15,D09,0,1,1
1924,-31.0,4.0,55.0,1645186762.0625,P15,D09,0,1,1
1925,-31.0,4.0,55.0,1645186762.09375,P15,D09,0,1,1
1926,-30.0,4.0,55.0,1645186762.125,P15,D09,0,1,1
1927,-31.0,4.0,55.0,1645186762.15625,P15,D09,0,1,1
1928,-30.0,4.0,55.0,1645186762.1875,P15,D09,0,1,1
1929,-30.0,4.0,55.0,1645186762.21875,P15,D09,0,1,1
1930,-31.0,4.0,55.0,1645186762.25,P15,D09,0,1,1
1931,-30.0,4.0,55.0,1645186762.28125,P15,D09,0,1,1
1932,-31.0,4.0,55.0,1645186762.3125,P15,D09,0,1,1
1933,-31.0,4.0,55.0,1645186762.34375,P15,D09,0,1,1
1934,-30.0,4.0,55.0,1645186762.375,P15,D09,0,1,1
1935,-30.0,4.0,55.0,1645186762.40625,P15,D09,0,1,1
1936,-31.0,4.0,55.0,1645186762.4375,P15,D09,0,1,1
1937,-31.0,4.0,55.0,1645186762.46875,P15,D09,0,1,1
1938,-31.0,4.0,55.0,1645186762.5,P15,D09,0,1,1
1939,-30.0,4.0,55.0,1645186762.53125,P15,D09,0,1,1
1940,-30.0,4.0,55.0,1645186762.5625,P15,D09,0,1,1
1941,-31.0,4.0,55.0,1645186762.59375,P15,D09,0,1,1
1942,-30.0,4.0,55.0,1645186762.625,P15,D09,0,1,1
1943,-31.0,4.0,55.0,1645186762.65625,P15,D09,0,1,1
1944,-31.0,4.0,55.0,1645186762.6875,P15,D09,0,1,1
1945,-30.0,4.0,55.0,1645186762.71875,P15,D09,0,1,1
1946,-30.0,4.0,55.0,1645186762.75,P15,D09,0,1,1
1947,-32.0,4.0,55.0,1645186762.78125,P15,D09,0,1,1
1948,-30.0,4.0,55.0,1645186762.8125,P15,D09,0,1,1
1949,-31.0,4.0,55.0,1645186762.84375,P15,D09,0,1,1
1950,-31.0,4.0,55.0,1645186762.875,P15,D09,0,1,1
1951,-30.0,4.0,55.0,1645186762.90625,P15,D09,0,1,1
1952,-32.0,4.0,55.0,1645186762.9375,P15,D09,0,1,1
1953,-31.0,4.0,55.0,1645186762.96875,P15,D09,0,1,1
1954,-30.0,4.0,55.0,1645186763.0,P15,D09,0,1,1
1955,-31.0,4.0,55.0,1645186763.03125,P15,D09,0,1,1
1956,-30.0,4.0,55.0,1645186763.0625,P15,D09,0,1,1
1957,-30.0,4.0,55.0,1645186763.09375,P15,D09,0,1,1
1958,-31.0,4.0,55.0,1645186763.125,P15,D09,0,1,1
1959,-30.0,4.0,55.0,1645186763.15625,P15,D09,0,1,1
1960,-30.0,4.0,55.0,1645186763.1875,P15,D09,0,1,1
1961,-31.0,4.0,55.0,1645186763.21875,P15,D09,0,1,1
1962,-30.0,4.0,55.0,1645186763.25,P15,D09,0,1,1
1963,-31.0,4.0,55.0,1645186763.28125,P15,D09,0,1,1
1964,-31.0,4.0,55.0,1645186763.3125,P15,D09,0,1,1
1965,-30.0,4.0,55.0,1645186763.34375,P15,D09,0,1,1
1966,-31.0,4.0,55.0,1645186763.375,P15,D09,0,1,1
1967,-30.0,4.0,55.0,1645186763.40625,P15,D09,0,1,1
1968,-30.0,4.0,55.0,1645186763.4375,P15,D09,0,1,1
1969,-30.0,4.0,55.0,1645186763.46875,P15,D09,0,1,1
1970,-30.0,4.0,55.0,1645186763.5,P15,D09,0,1,1
1971,-30.0,4.0,55.0,1645186763.53125,P15,D09,0,1,1
1972,-30.0,4.0,55.0,1645186763.5625,P15,D09,0,1,1
1973,-30.0,4.0,55.0,1645186763.59375,P15,D09,0,1,1
1974,-30.0,4.0,55.0,1645186763.625,P15,D09,0,1,1
1975,-31.0,4.0,55.0,1645186763.65625,P15,D09,0,1,1
1976,-30.0,4.0,55.0,1645186763.6875,P15,D09,0,1,1
1977,-30.0,4.0,55.0,1645186763.71875,P15,D09,0,1,1
1978,-30.0,4.0,55.0,1645186763.75,P15,D09,0,1,1
1979,-30.0,4.0,55.0,1645186763.78125,P15,D09,0,1,1
1980,-30.0,4.0,55.0,1645186763.8125,P15,D09,0,1,1
1981,-31.0,4.0,55.0,1645186763.84375,P15,D09,0,1,1
1982,-30.0,4.0,56.0,1645186763.875,P15,D09,0,1,1
1983,-31.0,4.0,55.0,1645186763.90625,P15,D09,0,1,1
1984,-30.0,4.0,55.0,1645186763.9375,P15,D09,0,1,1
1985,-30.0,4.0,55.0,1645186763.96875,P15,D09,0,1,1
1986,-31.0,4.0,55.0,1645186764.0,P15,D09,0,1,1
1987,-30.0,4.0,55.0,1645186764.03125,P15,D09,0,1,1
1988,-30.0,4.0,55.0,1645186764.0625,P15,D09,0,1,1
1989,-30.0,4.0,55.0,1645186764.09375,P15,D09,0,1,1
1990,-30.0,4.0,55.0,1645186764.125,P15,D09,0,1,1
1991,-31.0,4.0,55.0,1645186764.15625,P15,D09,0,1,1
1992,-30.0,4.0,55.0,1645186764.1875,P15,D09,0,1,1
1993,-30.0,4.0,55.0,1645186764.21875,P15,D09,0,1,1
1994,-30.0,4.0,55.0,1645186764.25,P15,D09,0,1,1
1995,-30.0,4.0,55.0,1645186764.28125,P15,D09,0,1,1
1996,-31.0,4.0,55.0,1645186764.3125,P15,D09,0,1,1
1997,-31.0,4.0,55.0,1645186764.34375,P15,D09,0,1,1
1998,-30.0,4.0,55.0,1645186764.375,P15,D09,0,1,1
1999,-30.0,4.0,55.0,1645186764.40625,P15,D09,0,1,1
2000,-30.0,4.0,55.0,1645186764.4375,P15,D09,0,1,1
2001,-31.0,4.0,55.0,1645186764.46875,P15,D09,0,1,1
2002,-31.0,4.0,55.0,1645186764.5,P15,D09,0,1,1
2003,-31.0,4.0,55.0,1645186764.53125,P15,D09,0,1,1
2004,-30.0,4.0,55.0,1645186764.5625,P15,D09,0,1,1
2005,-31.0,4.0,55.0,1645186764.59375,P15,D09,0,1,1
2006,-31.0,4.0,55.0,1645186764.625,P15,D09,0,1,1
2007,-30.0,4.0,55.0,1645186764.65625,P15,D09,0,1,1
2008,-31.0,4.0,55.0,1645186764.6875,P15,D09,0,1,1
2009,-30.0,4.0,55.0,1645186764.71875,P15,D09,0,1,1
2010,-30.0,4.0,55.0,1645186764.75,P15,D09,0,1,1
2011,-31.0,4.0,55.0,1645186764.78125,P15,D09,0,1,1
2012,-31.0,4.0,55.0,1645186764.8125,P15,D09,0,1,1
2013,-30.0,4.0,55.0,1645186764.84375,P15,D09,0,1,1
2014,-30.0,4.0,55.0,1645186764.875,P15,D09,0,1,1
2015,-31.0,4.0,55.0,1645186764.90625,P15,D09,0,1,1
2016,-30.0,4.0,55.0,1645186764.9375,P15,D09,0,1,1
2017,-31.0,4.0,55.0,1645186764.96875,P15,D09,0,1,1
2018,-31.0,4.0,55.0,1645186765.0,P15,D09,0,1,1
2019,-31.0,4.0,55.0,1645186765.03125,P15,D09,0,1,1
2020,-30.0,4.0,55.0,1645186765.0625,P15,D09,0,1,1
2021,-30.0,4.0,55.0,1645186765.09375,P15,D09,0,1,1
2022,-31.0,4.0,55.0,1645186765.125,P15,D09,0,1,1
2023,-31.0,4.0,55.0,1645186765.15625,P15,D09,0,1,1
2024,-30.0,4.0,55.0,1645186765.1875,P15,D09,0,1,1
2025,-30.0,4.0,55.0,1645186765.21875,P15,D09,0,1,1
2026,-31.0,4.0,55.0,1645186765.25,P15,D09,0,1,1
2027,-31.0,4.0,55.0,1645186765.28125,P15,D09,0,1,1
2028,-31.0,4.0,55.0,1645186765.3125,P15,D09,0,1,1
2029,-31.0,4.0,55.0,1645186765.34375,P15,D09,0,1,1
2030,-30.0,4.0,55.0,1645186765.375,P15,D09,0,1,1
2031,-31.0,4.0,55.0,1645186765.40625,P15,D09,0,1,1
2032,-32.0,4.0,55.0,1645186765.4375,P15,D09,0,1,1
2033,-30.0,4.0,55.0,1645186765.46875,P15,D09,0,1,1
2034,-30.0,4.0,55.0,1645186765.5,P15,D09,0,1,1
2035,-31.0,4.0,55.0,1645186765.53125,P15,D09,0,1,1
2036,-30.0,4.0,55.0,1645186765.5625,P15,D09,0,1,1
2037,-31.0,4.0,55.0,1645186765.59375,P15,D09,0,1,1
2038,-31.0,4.0,55.0,1645186765.625,P15,D09,0,1,1
2039,-30.0,4.0,55.0,1645186765.65625,P15,D09,0,1,1
2040,-30.0,4.0,55.0,1645186765.6875,P15,D09,0,1,1
2041,-31.0,4.0,55.0,1645186765.71875,P15,D09,0,1,1
2042,-31.0,4.0,55.0,1645186765.75,P15,D09,0,1,1
2043,-31.0,4.0,55.0,1645186765.78125,P15,D09,0,1,1
2044,-30.0,4.0,55.0,1645186765.8125,P15,D09,0,1,1
2045,-31.0,4.0,55.0,1645186765.84375,P15,D09,0,1,1
2046,-31.0,4.0,55.0,1645186765.875,P15,D09,0,1,1
2047,-31.0,4.0,55.0,1645186765.90625,P15,D09,0,1,1
2048,-31.0,4.0,55.0,1645186765.9375,P15,D09,0,1,1
2049,-30.0,4.0,55.0,1645186765.96875,P15,D09,0,1,1
2050,-31.0,4.0,55.0,1645186766.0,P15,D09,0,1,1
2051,-31.0,4.0,55.0,1645186766.03125,P15,D09,0,1,1
2052,-31.0,4.0,55.0,1645186766.0625,P15,D09,0,1,1
2053,-31.0,4.0,55.0,1645186766.09375,P15,D09,0,1,1
2054,-30.0,4.0,55.0,1645186766.125,P15,D09,0,1,1
2055,-31.0,4.0,55.0,1645186766.15625,P15,D09,0,1,1
2056,-31.0,4.0,55.0,1645186766.1875,P15,D09,0,1,1
2057,-31.0,4.0,55.0,1645186766.21875,P15,D09,0,1,1
2058,-31.0,4.0,55.0,1645186766.25,P15,D09,0,1,1
2059,-30.0,4.0,55.0,1645186766.28125,P15,D09,0,1,1
2060,-30.0,4.0,55.0,1645186766.3125,P15,D09,0,1,1
2061,-31.0,4.0,55.0,1645186766.34375,P15,D09,0,1,1
2062,-31.0,4.0,55.0,1645186766.375,P15,D09,0,1,1
2063,-31.0,4.0,55.0,1645186766.40625,P15,D09,0,1,1
2064,-30.0,4.0,55.0,1645186766.4375,P15,D09,0,1,1
2065,-30.0,4.0,55.0,1645186766.46875,P15,D09,0,1,1
2066,-31.0,4.0,55.0,1645186766.5,P15,D09,0,1,1
2067,-30.0,4.0,55.0,1645186766.53125,P15,D09,0,1,1
2068,-31.0,4.0,55.0,1645186766.5625,P15,D09,0,1,1
2069,-31.0,4.0,55.0,1645186766.59375,P15,D09,0,1,1
2070,-31.0,4.0,55.0,1645186766.625,P15,D09,0,1,1
2071,-30.0,4.0,55.0,1645186766.65625,P15,D09,0,1,1
2072,-30.0,4.0,55.0,1645186766.6875,P15,D09,0,1,1
2073,-31.0,4.0,55.0,1645186766.71875,P15,D09,0,1,1
2074,-31.0,4.0,55.0,1645186766.75,P15,D09,0,1,1
2075,-30.0,4.0,55.0,1645186766.78125,P15,D09,0,1,1
2076,-29.0,4.0,55.0,1645186766.8125,P15,D09,0,1,1
2077,-31.0,4.0,55.0,1645186766.84375,P15,D09,0,1,1
2078,-31.0,4.0,55.0,1645186766.875,P15,D09,0,1,1
2079,-31.0,4.0,55.0,1645186766.90625,P15,D09,0,1,1
2080,-30.0,4.0,55.0,1645186766.9375,P15,D09,0,1,1
2081,-30.0,4.0,55.0,1645186766.96875,P15,D09,0,1,1
2082,-30.0,4.0,55.0,1645186767.0,P15,D09,0,1,1
2083,-31.0,4.0,55.0,1645186767.03125,P15,D09,0,1,1
2084,-31.0,4.0,55.0,1645186767.0625,P15,D09,0,1,1
2085,-30.0,4.0,55.0,1645186767.09375,P15,D09,0,1,1
2086,-30.0,4.0,55.0,1645186767.125,P15,D09,0,1,1
2087,-30.0,4.0,55.0,1645186767.15625,P15,D09,0,1,1
2088,-31.0,4.0,55.0,1645186767.1875,P15,D09,0,1,1
2089,-31.0,4.0,55.0,1645186767.21875,P15,D09,0,1,1
2090,-30.0,4.0,55.0,1645186767.25,P15,D09,0,1,1
2091,-30.0,4.0,55.0,1645186767.28125,P15,D09,0,1,1
2092,-30.0,4.0,55.0,1645186767.3125,P15,D09,0,1,1
2093,-31.0,4.0,55.0,1645186767.34375,P15,D09,0,1,1
2094,-31.0,4.0,55.0,1645186767.375,P15,D09,0,1,1
2095,-30.0,4.0,55.0,1645186767.40625,P15,D09,0,1,1
2096,-30.0,4.0,55.0,1645186767.4375,P15,D09,0,1,1
2097,-30.0,4.0,55.0,1645186767.46875,P15,D09,0,1,1
2098,-31.0,4.0,55.0,1645186767.5,P15,D09,0,1,1
2099,-31.0,4.0,55.0,1645186767.53125,P15,D09,0,1,1
2100,-31.0,4.0,55.0,1645186767.5625,P15,D09,0,1,1
2101,-30.0,4.0,55.0,1645186767.59375,P15,D09,0,1,1
2102,-30.0,4.0,55.0,1645186767.625,P15,D09,0,1,1
2103,-31.0,4.0,55.0,1645186767.65625,P15,D09,0,1,1
2104,-31.0,4.0,55.0,1645186767.6875,P15,D09,0,1,1
2105,-31.0,4.0,55.0,1645186767.71875,P15,D09,0,1,1
2106,-30.0,4.0,55.0,1645186767.75,P15,D09,0,1,1
2107,-30.0,4.0,55.0,1645186767.78125,P15,D09,0,1,1
2108,-31.0,4.0,55.0,1645186767.8125,P15,D09,0,1,1
2109,-31.0,4.0,55.0,1645186767.84375,P15,D09,0,1,1
2110,-31.0,4.0,55.0,1645186767.875,P15,D09,0,1,1
2111,-31.0,4.0,55.0,1645186767.90625,P15,D09,0,1,1
2112,-30.0,4.0,55.0,1645186767.9375,P15,D09,0,1,1
2113,-31.0,4.0,55.0,1645186767.96875,P15,D09,0,1,1
2114,-31.0,4.0,55.0,1645186768.0,P15,D09,0,1,1
2115,-31.0,4.0,55.0,1645186768.03125,P15,D09,0,1,1
2116,-30.0,4.0,55.0,1645186768.0625,P15,D09,0,1,1
2117,-30.0,4.0,55.0,1645186768.09375,P15,D09,0,1,1
2118,-30.0,4.0,55.0,1645186768.125,P15,D09,0,1,1
2119,-30.0,4.0,55.0,1645186768.15625,P15,D09,0,1,1
2120,-32.0,4.0,55.0,1645186768.1875,P15,D09,0,1,1
2121,-31.0,4.0,55.0,1645186768.21875,P15,D09,0,1,1
2122,-30.0,4.0,55.0,1645186768.25,P15,D09,0,1,1
2123,-31.0,4.0,55.0,1645186768.28125,P15,D09,0,1,1
2124,-30.0,4.0,55.0,1645186768.3125,P15,D09,0,1,1
2125,-31.0,4.0,55.0,1645186768.34375,P15,D09,0,1,1
2126,-31.0,4.0,55.0,1645186768.375,P15,D09,0,1,1
2127,-31.0,4.0,55.0,1645186768.40625,P15,D09,0,1,1
2128,-30.0,4.0,55.0,1645186768.4375,P15,D09,0,1,1
2129,-31.0,4.0,55.0,1645186768.46875,P15,D09,0,1,1
2130,-31.0,4.0,55.0,1645186768.5,P15,D09,0,1,1
2131,-30.0,4.0,55.0,1645186768.53125,P15,D09,0,1,1
2132,-31.0,4.0,55.0,1645186768.5625,P15,D09,0,1,1
2133,-31.0,4.0,55.0,1645186768.59375,P15,D09,0,1,1
2134,-30.0,4.0,55.0,1645186768.625,P15,D09,0,1,1
2135,-30.0,4.0,55.0,1645186768.65625,P15,D09,0,1,1
2136,-31.0,4.0,55.0,1645186768.6875,P15,D09,0,1,1
2137,-31.0,4.0,55.0,1645186768.71875,P15,D09,0,1,1
2138,-31.0,4.0,55.0,1645186768.75,P15,D09,0,1,1
2139,-30.0,4.0,55.0,1645186768.78125,P15,D09,0,1,1
2140,-31.0,4.0,55.0,1645186768.8125,P15,D09,0,1,1
2141,-31.0,4.0,55.0,1645186768.84375,P15,D09,0,1,1
2142,-31.0,4.0,55.0,1645186768.875,P15,D09,0,1,1
2143,-30.0,4.0,55.0,1645186768.90625,P15,D09,0,1,1
2144,-30.0,4.0,55.0,1645186768.9375,P15,D09,0,1,1
2145,-31.0,4.0,54.0,1645186768.96875,P15,D09,0,1,1
2146,-31.0,4.0,55.0,1645186769.0,P15,D09,0,1,1
2147,-31.0,4.0,55.0,1645186769.03125,P15,D09,0,1,1
2148,-31.0,4.0,55.0,1645186769.0625,P15,D09,0,1,1
2149,-31.0,4.0,55.0,1645186769.09375,P15,D09,0,1,1
2150,-31.0,4.0,55.0,1645186769.125,P15,D09,0,1,1
2151,-31.0,4.0,55.0,1645186769.15625,P15,D09,0,1,1
2152,-30.0,4.0,55.0,1645186769.1875,P15,D09,0,1,1
2153,-30.0,4.0,55.0,1645186769.21875,P15,D09,0,1,1
2154,-31.0,4.0,55.0,1645186769.25,P15,D09,0,1,1
2155,-30.0,4.0,55.0,1645186769.28125,P15,D09,0,1,1
2156,-32.0,4.0,54.0,1645186769.3125,P15,D09,0,1,1
2157,-31.0,4.0,55.0,1645186769.34375,P15,D09,0,1,1
2158,-31.0,4.0,55.0,1645186769.375,P15,D09,0,1,1
2159,-31.0,4.0,55.0,1645186769.40625,P15,D09,0,1,1
2160,-31.0,4.0,55.0,1645186769.4375,P15,D09,0,1,1
2161,-31.0,4.0,55.0,1645186769.46875,P15,D09,0,1,1
2162,-31.0,4.0,55.0,1645186769.5,P15,D09,0,1,1
2163,-31.0,4.0,55.0,1645186769.53125,P15,D09,0,1,1
2164,-31.0,4.0,55.0,1645186769.5625,P15,D09,0,1,1
2165,-31.0,4.0,55.0,1645186769.59375,P15,D09,0,1,1
2166,-31.0,4.0,55.0,1645186769.625,P15,D09,0,1,1
2167,-31.0,4.0,55.0,1645186769.65625,P15,D09,0,1,1
2168,-31.0,4.0,55.0,1645186769.6875,P15,D09,0,1,1
2169,-30.0,4.0,55.0,1645186769.71875,P15,D09,0,1,1
2170,-31.0,4.0,55.0,1645186769.75,P15,D09,0,1,1
2171,-31.0,4.0,55.0,1645186769.78125,P15,D09,0,1,1
2172,-31.0,4.0,55.0,1645186769.8125,P15,D09,0,1,1
2173,-30.0,4.0,55.0,1645186769.84375,P15,D09,0,1,1
2174,-31.0,4.0,55.0,1645186769.875,P15,D09,0,1,1
2175,-31.0,4.0,55.0,1645186769.90625,P15,D09,0,1,1
2176,-30.0,4.0,55.0,1645186769.9375,P15,D09,0,1,1
2177,-31.0,4.0,55.0,1645186769.96875,P15,D09,0,1,1
2178,-30.0,4.0,55.0,1645186770.0,P15,D09,0,1,1
2179,-30.0,4.0,55.0,1645186770.03125,P15,D09,0,1,1
2180,-30.0,4.0,55.0,1645186770.0625,P15,D09,0,1,1
2181,-31.0,4.0,55.0,1645186770.09375,P15,D09,0,1,1
2182,-31.0,4.0,55.0,1645186770.125,P15,D09,0,1,1
2183,-30.0,4.0,55.0,1645186770.15625,P15,D09,0,1,1
2184,-30.0,4.0,55.0,1645186770.1875,P15,D09,0,1,1
2185,-30.0,4.0,55.0,1645186770.21875,P15,D09,0,1,1
2186,-30.0,4.0,55.0,1645186770.25,P15,D09,0,1,1
2187,-31.0,4.0,55.0,1645186770.28125,P15,D09,0,1,1
2188,-31.0,4.0,55.0,1645186770.3125,P15,D09,0,1,1
2189,-30.0,4.0,55.0,1645186770.34375,P15,D09,0,1,1
2190,-30.0,4.0,55.0,1645186770.375,P15,D09,0,1,1
2191,-31.0,4.0,55.0,1645186770.40625,P15,D09,0,1,1
2192,-31.0,4.0,55.0,1645186770.4375,P15,D09,0,1,1
2193,-31.0,4.0,55.0,1645186770.46875,P15,D09,0,1,1
2194,-30.0,4.0,55.0,1645186770.5,P15,D09,0,1,1
2195,-30.0,4.0,55.0,1645186770.53125,P15,D09,0,1,1
2196,-31.0,4.0,55.0,1645186770.5625,P15,D09,0,1,1
2197,-32.0,4.0,55.0,1645186770.59375,P15,D09,0,1,1
2198,-30.0,4.0,55.0,1645186770.625,P15,D09,0,1,1
2199,-30.0,4.0,55.0,1645186770.65625,P15,D09,0,1,1
2200,-31.0,4.0,55.0,1645186770.6875,P15,D09,0,1,1
2201,-31.0,4.0,55.0,1645186770.71875,P15,D09,0,1,1
2202,-32.0,4.0,54.0,1645186770.75,P15,D09,0,1,1
2203,-31.0,4.0,55.0,1645186770.78125,P15,D09,0,1,1
2204,-30.0,4.0,55.0,1645186770.8125,P15,D09,0,1,1
2205,-30.0,4.0,55.0,1645186770.84375,P15,D09,0,1,1
2206,-31.0,4.0,55.0,1645186770.875,P15,D09,0,1,1
2207,-32.0,4.0,55.0,1645186770.90625,P15,D09,0,1,1
2208,-30.0,4.0,55.0,1645186770.9375,P15,D09,0,1,1
2209,-30.0,4.0,55.0,1645186770.96875,P15,D09,0,1,1
2210,-31.0,4.0,55.0,1645186771.0,P15,D09,0,1,1
2211,-31.0,4.0,55.0,1645186771.03125,P15,D09,0,1,1
2212,-30.0,4.0,55.0,1645186771.0625,P15,D09,0,1,1
2213,-31.0,4.0,55.0,1645186771.09375,P15,D09,0,1,1
2214,-31.0,4.0,55.0,1645186771.125,P15,D09,0,1,1
2215,-31.0,4.0,55.0,1645186771.15625,P15,D09,0,1,1
2216,-31.0,4.0,55.0,1645186771.1875,P15,D09,0,1,1
2217,-30.0,4.0,55.0,1645186771.21875,P15,D09,0,1,1
2218,-31.0,4.0,55.0,1645186771.25,P15,D09,0,1,1
2219,-31.0,4.0,55.0,1645186771.28125,P15,D09,0,1,1
2220,-31.0,4.0,55.0,1645186771.3125,P15,D09,0,1,1
2221,-31.0,4.0,55.0,1645186771.34375,P15,D09,0,1,1
2222,-30.0,4.0,55.0,1645186771.375,P15,D09,0,1,1
2223,-31.0,4.0,55.0,1645186771.40625,P15,D09,0,1,1
2224,-31.0,4.0,55.0,1645186771.4375,P15,D09,0,1,1
2225,-31.0,4.0,55.0,1645186771.46875,P15,D09,0,1,1
2226,-31.0,4.0,55.0,1645186771.5,P15,D09,0,1,1
2227,-31.0,4.0,55.0,1645186771.53125,P15,D09,0,1,1
2228,-31.0,4.0,55.0,1645186771.5625,P15,D09,0,1,1
2229,-31.0,4.0,55.0,1645186771.59375,P15,D09,0,1,1
2230,-30.0,4.0,55.0,1645186771.625,P15,D09,0,1,1
2231,-31.0,4.0,55.0,1645186771.65625,P15,D09,0,1,1
2232,-31.0,4.0,55.0,1645186771.6875,P15,D09,0,1,1
2233,-31.0,4.0,55.0,1645186771.71875,P15,D09,0,1,1
2234,-31.0,4.0,55.0,1645186771.75,P15,D09,0,1,1
2235,-30.0,4.0,55.0,1645186771.78125,P15,D09,0,1,1
2236,-30.0,4.0,55.0,1645186771.8125,P15,D09,0,1,1
2237,-31.0,4.0,55.0,1645186771.84375,P15,D09,0,1,1
2238,-31.0,4.0,55.0,1645186771.875,P15,D09,0,1,1
2239,-31.0,4.0,55.0,1645186771.90625,P15,D09,0,1,1
2240,-30.0,4.0,55.0,1645186771.9375,P15,D09,0,1,1
2241,-31.0,4.0,55.0,1645186771.96875,P15,D09,0,1,1
2242,-31.0,4.0,55.0,1645186772.0,P15,D09,0,1,1
2243,-31.0,4.0,55.0,1645186772.03125,P15,D09,0,1,1
2244,-31.0,4.0,55.0,1645186772.0625,P15,D09,0,1,1
2245,-30.0,4.0,55.0,1645186772.09375,P15,D09,0,1,1
2246,-31.0,4.0,55.0,1645186772.125,P15,D09,0,1,1
2247,-31.0,4.0,55.0,1645186772.15625,P15,D09,0,1,1
2248,-31.0,4.0,55.0,1645186772.1875,P15,D09,0,1,1
2249,-30.0,4.0,55.0,1645186772.21875,P15,D09,0,1,1
2250,-30.0,4.0,55.0,1645186772.25,P15,D09,0,1,1
2251,-31.0,4.0,55.0,1645186772.28125,P15,D09,0,1,1
2252,-31.0,4.0,55.0,1645186772.3125,P15,D09,0,1,1
2253,-31.0,4.0,55.0,1645186772.34375,P15,D09,0,1,1
2254,-30.0,4.0,55.0,1645186772.375,P15,D09,0,1,1
2255,-31.0,4.0,55.0,1645186772.40625,P15,D09,0,1,1
2256,-31.0,4.0,55.0,1645186772.4375,P15,D09,0,1,1
2257,-31.0,4.0,55.0,1645186772.46875,P15,D09,0,1,1
2258,-30.0,4.0,55.0,1645186772.5,P15,D09,0,1,1
2259,-31.0,4.0,55.0,1645186772.53125,P15,D09,0,1,1
2260,-31.0,4.0,55.0,1645186772.5625,P15,D09,0,1,1
2261,-31.0,4.0,55.0,1645186772.59375,P15,D09,0,1,1
2262,-31.0,4.0,55.0,1645186772.625,P15,D09,0,1,1
2263,-30.0,4.0,55.0,1645186772.65625,P15,D09,0,1,1
2264,-31.0,4.0,55.0,1645186772.6875,P15,D09,0,1,1
2265,-31.0,4.0,55.0,1645186772.71875,P15,D09,0,1,1
2266,-31.0,4.0,55.0,1645186772.75,P15,D09,0,1,1
2267,-31.0,4.0,55.0,1645186772.78125,P15,D09,0,1,1
2268,-30.0,4.0,55.0,1645186772.8125,P15,D09,0,1,1
2269,-30.0,4.0,55.0,1645186772.84375,P15,D09,0,1,1
2270,-31.0,4.0,55.0,1645186772.875,P15,D09,0,1,1
2271,-31.0,4.0,55.0,1645186772.90625,P15,D09,0,1,1
2272,-31.0,4.0,55.0,1645186772.9375,P15,D09,0,1,1
2273,-31.0,4.0,54.0,1645186772.96875,P15,D09,0,1,1
2274,-30.0,4.0,55.0,1645186773.0,P15,D09,0,1,1
2275,-31.0,4.0,55.0,1645186773.03125,P15,D09,0,1,1
2276,-31.0,4.0,55.0,1645186773.0625,P15,D09,0,1,1
2277,-30.0,4.0,55.0,1645186773.09375,P15,D09,0,1,1
2278,-31.0,4.0,55.0,1645186773.125,P15,D09,0,1,1
2279,-31.0,4.0,55.0,1645186773.15625,P15,D09,0,1,1
2280,-30.0,4.0,55.0,1645186773.1875,P15,D09,0,1,1
2281,-31.0,4.0,55.0,1645186773.21875,P15,D09,0,1,1
2282,-31.0,4.0,55.0,1645186773.25,P15,D09,0,1,1
2283,-30.0,4.0,55.0,1645186773.28125,P15,D09,0,1,1
2284,-30.0,4.0,55.0,1645186773.3125,P15,D09,0,1,1
2285,-31.0,4.0,55.0,1645186773.34375,P15,D09,0,1,1
2286,-31.0,4.0,55.0,1645186773.375,P15,D09,0,1,1
2287,-31.0,4.0,55.0,1645186773.40625,P15,D09,0,1,1
2288,-30.0,4.0,55.0,1645186773.4375,P15,D09,0,1,1
2289,-30.0,4.0,55.0,1645186773.46875,P15,D09,0,1,1
2290,-31.0,4.0,55.0,1645186773.5,P15,D09,0,1,1
2291,-30.0,4.0,55.0,1645186773.53125,P15,D09,0,1,1
2292,-31.0,4.0,55.0,1645186773.5625,P15,D09,0,1,1
2293,-31.0,4.0,55.0,1645186773.59375,P15,D09,0,1,1
2294,-30.0,4.0,55.0,1645186773.625,P15,D09,0,1,1
2295,-31.0,4.0,55.0,1645186773.65625,P15,D09,0,1,1
2296,-30.0,4.0,55.0,1645186773.6875,P15,D09,0,1,1
2297,-30.0,4.0,55.0,1645186773.71875,P15,D09,0,1,1
2298,-31.0,4.0,55.0,1645186773.75,P15,D09,0,1,1
2299,-30.0,4.0,55.0,1645186773.78125,P15,D09,0,1,1
2300,-30.0,4.0,55.0,1645186773.8125,P15,D09,0,1,1
2301,-31.0,4.0,55.0,1645186773.84375,P15,D09,0,1,1
2302,-31.0,4.0,55.0,1645186773.875,P15,D09,0,1,1
2303,-30.0,4.0,55.0,1645186773.90625,P15,D09,0,1,1
2304,-30.0,4.0,55.0,1645186773.9375,P15,D09,0,1,1
2305,-31.0,4.0,55.0,1645186773.96875,P15,D09,0,1,1
2306,-31.0,4.0,55.0,1645186774.0,P15,D09,0,1,1
2307,-31.0,4.0,55.0,1645186774.03125,P15,D09,0,1,1
2308,-31.0,4.0,55.0,1645186774.0625,P15,D09,0,1,1
2309,-30.0,4.0,55.0,1645186774.09375,P15,D09,0,1,1
2310,-31.0,4.0,55.0,1645186774.125,P15,D09,0,1,1
2311,-30.0,4.0,55.0,1645186774.15625,P15,D09,0,1,1
2312,-31.0,4.0,55.0,1645186774.1875,P15,D09,0,1,1
2313,-31.0,4.0,55.0,1645186774.21875,P15,D09,0,1,1
2314,-30.0,4.0,55.0,1645186774.25,P15,D09,0,1,1
2315,-30.0,4.0,55.0,1645186774.28125,P15,D09,0,1,1
2316,-31.0,4.0,55.0,1645186774.3125,P15,D09,0,1,1
2317,-31.0,4.0,55.0,1645186774.34375,P15,D09,0,1,1
2318,-31.0,4.0,55.0,1645186774.375,P15,D09,0,1,1
2319,-32.0,4.0,55.0,1645186774.40625,P15,D09,0,1,1
2320,-30.0,4.0,55.0,1645186774.4375,P15,D09,0,1,1
2321,-31.0,4.0,55.0,1645186774.46875,P15,D09,0,1,1
2322,-31.0,4.0,55.0,1645186774.5,P15,D09,0,1,1
2323,-31.0,4.0,55.0,1645186774.53125,P15,D09,0,1,1
2324,-31.0,4.0,55.0,1645186774.5625,P15,D09,0,1,1
2325,-30.0,4.0,55.0,1645186774.59375,P15,D09,0,1,1
2326,-31.0,4.0,55.0,1645186774.625,P15,D09,0,1,1
2327,-31.0,4.0,55.0,1645186774.65625,P15,D09,0,1,1
2328,-31.0,4.0,55.0,1645186774.6875,P15,D09,0,1,1
2329,-30.0,4.0,55.0,1645186774.71875,P15,D09,0,1,1
2330,-31.0,4.0,55.0,1645186774.75,P15,D09,0,1,1
2331,-31.0,4.0,55.0,1645186774.78125,P15,D09,0,1,1
2332,-31.0,4.0,55.0,1645186774.8125,P15,D09,0,1,1
2333,-31.0,4.0,55.0,1645186774.84375,P15,D09,0,1,1
2334,-30.0,4.0,55.0,1645186774.875,P15,D09,0,1,1
2335,-30.0,4.0,55.0,1645186774.90625,P15,D09,0,1,1
2336,-31.0,4.0,55.0,1645186774.9375,P15,D09,0,1,1
2337,-30.0,4.0,55.0,1645186774.96875,P15,D09,0,1,1
2338,-31.0,4.0,55.0,1645186775.0,P15,D09,0,1,1
2339,-31.0,4.0,55.0,1645186775.03125,P15,D09,0,1,1
2340,-30.0,4.0,55.0,1645186775.0625,P15,D09,0,1,1
2341,-31.0,4.0,55.0,1645186775.09375,P15,D09,0,1,1
2342,-31.0,4.0,55.0,1645186775.125,P15,D09,0,1,1
2343,-32.0,4.0,55.0,1645186775.15625,P15,D09,0,1,1
2344,-32.0,4.0,54.0,1645186775.1875,P15,D09,0,1,1
2345,-30.0,4.0,55.0,1645186775.21875,P15,D09,0,1,1
2346,-31.0,4.0,55.0,1645186775.25,P15,D09,0,1,1
2347,-31.0,4.0,55.0,1645186775.28125,P15,D09,0,1,1
2348,-31.0,4.0,55.0,1645186775.3125,P15,D09,0,1,1
2349,-32.0,4.0,55.0,1645186775.34375,P15,D09,0,1,1
2350,-31.0,4.0,55.0,1645186775.375,P15,D09,0,1,1
2351,-31.0,4.0,55.0,1645186775.40625,P15,D09,0,1,1
2352,-31.0,4.0,55.0,1645186775.4375,P15,D09,0,1,1
2353,-31.0,4.0,55.0,1645186775.46875,P15,D09,0,1,1
2354,-31.0,4.0,55.0,1645186775.5,P15,D09,0,1,1
2355,-31.0,4.0,55.0,1645186775.53125,P15,D09,0,1,1
2356,-31.0,4.0,55.0,1645186775.5625,P15,D09,0,1,1
2357,-31.0,4.0,55.0,1645186775.59375,P15,D09,0,1,1
2358,-31.0,4.0,55.0,1645186775.625,P15,D09,0,1,1
2359,-32.0,4.0,55.0,1645186775.65625,P15,D09,0,1,1
2360,-31.0,4.0,55.0,1645186775.6875,P15,D09,0,1,1
2361,-30.0,4.0,55.0,1645186775.71875,P15,D09,0,1,1
2362,-31.0,4.0,55.0,1645186775.75,P15,D09,0,1,1
2363,-32.0,4.0,55.0,1645186775.78125,P15,D09,0,1,1
2364,-31.0,4.0,55.0,1645186775.8125,P15,D09,0,1,1
2365,-31.0,4.0,55.0,1645186775.84375,P15,D09,0,1,1
2366,-31.0,4.0,55.0,1645186775.875,P15,D09,0,1,1
2367,-31.0,4.0,55.0,1645186775.90625,P15,D09,0,1,1
2368,-32.0,4.0,55.0,1645186775.9375,P15,D09,0,1,1
2369,-31.0,4.0,55.0,1645186775.96875,P15,D09,0,1,1
2370,-30.0,4.0,55.0,1645186776.0,P15,D09,0,1,1
2371,-32.0,4.0,55.0,1645186776.03125,P15,D09,0,1,1
2372,-30.0,4.0,55.0,1645186776.0625,P15,D09,0,1,1
2373,-31.0,4.0,55.0,1645186776.09375,P15,D09,0,1,1
2374,-32.0,4.0,55.0,1645186776.125,P15,D09,0,1,1
2375,-30.0,4.0,55.0,1645186776.15625,P15,D09,0,1,1
2376,-31.0,4.0,55.0,1645186776.1875,P15,D09,0,1,1
2377,-30.0,4.0,55.0,1645186776.21875,P15,D09,0,1,1
2378,-31.0,4.0,55.0,1645186776.25,P15,D09,0,1,1
2379,-32.0,4.0,55.0,1645186776.28125,P15,D09,0,1,1
2380,-30.0,4.0,55.0,1645186776.3125,P15,D09,0,1,1
2381,-30.0,4.0,55.0,1645186776.34375,P15,D09,0,1,1
2382,-31.0,4.0,55.0,1645186776.375,P15,D09,0,1,1
2383,-31.0,4.0,55.0,1645186776.40625,P15,D09,0,1,1
2384,-31.0,4.0,55.0,1645186776.4375,P15,D09,0,1,1
2385,-31.0,4.0,55.0,1645186776.46875,P15,D09,0,1,1
2386,-30.0,4.0,55.0,1645186776.5,P15,D09,0,1,1
2387,-30.0,4.0,55.0,1645186776.53125,P15,D09,0,1,1
2388,-32.0,4.0,55.0,1645186776.5625,P15,D09,0,1,1
2389,-30.0,4.0,55.0,1645186776.59375,P15,D09,0,1,1
2390,-30.0,4.0,55.0,1645186776.625,P15,D09,0,1,1
2391,-31.0,4.0,55.0,1645186776.65625,P15,D09,0,1,1
2392,-30.0,3.0,55.0,1645186776.6875,P15,D09,0,1,1
2393,-32.0,4.0,55.0,1645186776.71875,P15,D09,0,1,1
2394,-31.0,4.0,55.0,1645186776.75,P15,D09,0,1,1
2395,-30.0,4.0,55.0,1645186776.78125,P15,D09,0,1,1
2396,-31.0,4.0,55.0,1645186776.8125,P15,D09,0,1,1
2397,-31.0,4.0,55.0,1645186776.84375,P15,D09,0,1,1
2398,-31.0,4.0,55.0,1645186776.875,P15,D09,0,1,1
2399,-30.0,4.0,55.0,1645186776.90625,P15,D09,0,1,1
2400,-30.0,4.0,55.0,1645186776.9375,P15,D09,0,1,1
2401,-31.0,4.0,55.0,1645186776.96875,P15,D09,0,1,1
2402,-31.0,4.0,55.0,1645186777.0,P15,D09,0,1,1
2403,-30.0,4.0,55.0,1645186777.03125,P15,D09,0,1,1
2404,-31.0,4.0,55.0,1645186777.0625,P15,D09,0,1,1
2405,-30.0,4.0,55.0,1645186777.09375,P15,D09,0,1,1
2406,-30.0,4.0,55.0,1645186777.125,P15,D09,0,1,1
2407,-31.0,4.0,55.0,1645186777.15625,P15,D09,0,1,1
2408,-31.0,4.0,55.0,1645186777.1875,P15,D09,0,1,1
2409,-31.0,4.0,55.0,1645186777.21875,P15,D09,0,1,1
2410,-30.0,4.0,55.0,1645186777.25,P15,D09,0,1,1
2411,-30.0,4.0,55.0,1645186777.28125,P15,D09,0,1,1
2412,-31.0,4.0,55.0,1645186777.3125,P15,D09,0,1,1
2413,-31.0,4.0,55.0,1645186777.34375,P15,D09,0,1,1
