,acc_x,acc_y,acc_z,timestamp,participant,document,val,arou,eng
0,-43.0,1.0,47.0,1645184711.40625,P15,D02,0,0,0
1,-43.0,1.0,46.0,1645184711.4375,P15,D02,0,0,0
2,-43.0,1.0,47.0,1645184711.46875,P15,D02,0,0,0
3,-43.0,2.0,47.0,1645184711.5,P15,D02,0,0,0
4,-43.0,2.0,47.0,1645184711.53125,P15,D02,0,0,0
5,-43.0,2.0,47.0,1645184711.5625,P15,D02,0,0,0
6,-44.0,2.0,46.0,1645184711.59375,P15,D02,0,0,0
7,-44.0,2.0,46.0,1645184711.625,P15,D02,0,0,0
8,-43.0,2.0,47.0,1645184711.65625,P15,D02,0,0,0
9,-44.0,2.0,46.0,1645184711.6875,P15,D02,0,0,0
10,-44.0,2.0,46.0,1645184711.71875,P15,D02,0,0,0
11,-43.0,2.0,46.0,1645184711.75,P15,D02,0,0,0
12,-44.0,2.0,47.0,1645184711.78125,P15,D02,0,0,0
13,-43.0,2.0,47.0,1645184711.8125,P15,D02,0,0,0
14,-44.0,1.0,46.0,1645184711.84375,P15,D02,0,0,0
15,-44.0,1.0,46.0,1645184711.875,P15,D02,0,0,0
16,-43.0,1.0,47.0,1645184711.90625,P15,D02,0,0,0
17,-44.0,1.0,46.0,1645184711.9375,P15,D02,0,0,0
18,-44.0,2.0,46.0,1645184711.96875,P15,D02,0,0,0
19,-43.0,1.0,47.0,1645184712.0,P15,D02,0,0,0
20,-43.0,2.0,47.0,1645184712.03125,P15,D02,0,0,0
21,-44.0,2.0,46.0,1645184712.0625,P15,D02,0,0,0
22,-44.0,1.0,46.0,1645184712.09375,P15,D02,0,0,0
23,-43.0,2.0,47.0,1645184712.125,P15,D02,0,0,0
24,-43.0,2.0,46.0,1645184712.15625,P15,D02,0,0,0
25,-44.0,2.0,47.0,1645184712.1875,P15,D02,0,0,0
26,-44.0,1.0,46.0,1645184712.21875,P15,D02,0,0,0
27,-44.0,2.0,46.0,1645184712.25,P15,D02,0,0,0
28,-44.0,2.0,47.0,1645184712.28125,P15,D02,0,0,0
29,-44.0,2.0,46.0,1645184712.3125,P15,D02,0,0,0
30,-43.0,1.0,46.0,1645184712.34375,P15,D02,0,0,0
31,-44.0,2.0,46.0,1645184712.375,P15,D02,0,0,0
32,-44.0,2.0,46.0,1645184712.40625,P15,D02,0,0,0
33,-44.0,2.0,46.0,1645184712.4375,P15,D02,0,0,0
34,-44.0,1.0,46.0,1645184712.46875,P15,D02,0,0,0
35,-43.0,2.0,47.0,1645184712.5,P15,D02,0,0,0
36,-44.0,2.0,47.0,1645184712.53125,P15,D02,0,0,0
37,-44.0,2.0,46.0,1645184712.5625,P15,D02,0,0,0
38,-44.0,2.0,46.0,1645184712.59375,P15,D02,0,0,0
39,-44.0,1.0,46.0,1645184712.625,P15,D02,0,0,0
40,-44.0,1.0,46.0,1645184712.65625,P15,D02,0,0,0
41,-44.0,1.0,46.0,1645184712.6875,P15,D02,0,0,0
42,-44.0,2.0,46.0,1645184712.71875,P15,D02,0,0,0
43,-44.0,1.0,46.0,1645184712.75,P15,D02,0,0,0
44,-42.0,1.0,47.0,1645184712.78125,P15,D02,0,0,0
45,-44.0,1.0,46.0,1645184712.8125,P15,D02,0,0,0
46,-44.0,1.0,46.0,1645184712.84375,P15,D02,0,0,0
47,-44.0,2.0,46.0,1645184712.875,P15,D02,0,0,0
48,-44.0,1.0,46.0,1645184712.90625,P15,D02,0,0,0
49,-44.0,1.0,47.0,1645184712.9375,P15,D02,0,0,0
50,-43.0,1.0,47.0,1645184712.96875,P15,D02,0,0,0
51,-43.0,1.0,47.0,1645184713.0,P15,D02,0,0,0
52,-43.0,1.0,47.0,1645184713.03125,P15,D02,0,0,0
53,-43.0,1.0,47.0,1645184713.0625,P15,D02,0,0,0
54,-44.0,1.0,46.0,1645184713.09375,P15,D02,0,0,0
55,-43.0,1.0,47.0,1645184713.125,P15,D02,0,0,0
56,-44.0,2.0,46.0,1645184713.15625,P15,D02,0,0,0
57,-43.0,1.0,47.0,1645184713.1875,P15,D02,0,0,0
58,-42.0,1.0,47.0,1645184713.21875,P15,D02,0,0,0
59,-44.0,1.0,46.0,1645184713.25,P15,D02,0,0,0
60,-44.0,2.0,46.0,1645184713.28125,P15,D02,0,0,0
61,-45.0,1.0,46.0,1645184713.3125,P15,D02,0,0,0
62,-44.0,2.0,46.0,1645184713.34375,P15,D02,0,0,0
63,-44.0,2.0,46.0,1645184713.375,P15,D02,0,0,0
64,-45.0,2.0,46.0,1645184713.40625,P15,D02,0,0,0
65,-44.0,1.0,46.0,1645184713.4375,P15,D02,0,0,0
66,-44.0,1.0,47.0,1645184713.46875,P15,D02,0,0,0
67,-43.0,2.0,47.0,1645184713.5,P15,D02,0,0,0
68,-43.0,2.0,47.0,1645184713.53125,P15,D02,0,0,0
69,-44.0,2.0,46.0,1645184713.5625,P15,D02,0,0,0
70,-44.0,2.0,46.0,1645184713.59375,P15,D02,0,0,0
71,-45.0,2.0,45.0,1645184713.625,P15,D02,0,0,0
72,-45.0,2.0,46.0,1645184713.65625,P15,D02,0,0,0
73,-44.0,2.0,46.0,1645184713.6875,P15,D02,0,0,0
74,-43.0,1.0,46.0,1645184713.71875,P15,D02,0,0,0
75,-45.0,2.0,46.0,1645184713.75,P15,D02,0,0,0
76,-44.0,2.0,46.0,1645184713.78125,P15,D02,0,0,0
77,-45.0,2.0,46.0,1645184713.8125,P15,D02,0,0,0
78,-45.0,1.0,45.0,1645184713.84375,P15,D02,0,0,0
79,-43.0,2.0,46.0,1645184713.875,P15,D02,0,0,0
80,-44.0,1.0,46.0,1645184713.90625,P15,D02,0,0,0
81,-44.0,1.0,46.0,1645184713.9375,P15,D02,0,0,0
82,-44.0,2.0,46.0,1645184713.96875,P15,D02,0,0,0
83,-46.0,2.0,45.0,1645184714.0,P15,D02,0,0,0
84,-45.0,1.0,46.0,1645184714.03125,P15,D02,0,0,0
85,-44.0,1.0,46.0,1645184714.0625,P15,D02,0,0,0
86,-45.0,1.0,46.0,1645184714.09375,P15,D02,0,0,0
87,-45.0,2.0,45.0,1645184714.125,P15,D02,0,0,0
88,-44.0,2.0,46.0,1645184714.15625,P15,D02,0,0,0
89,-45.0,2.0,45.0,1645184714.1875,P15,D02,0,0,0
90,-46.0,1.0,44.0,1645184714.21875,P15,D02,0,0,0
91,-45.0,2.0,45.0,1645184714.25,P15,D02,0,0,0
92,-45.0,2.0,46.0,1645184714.28125,P15,D02,0,0,0
93,-45.0,2.0,46.0,1645184714.3125,P15,D02,0,0,0
94,-45.0,1.0,46.0,1645184714.34375,P15,D02,0,0,0
95,-45.0,1.0,46.0,1645184714.375,P15,D02,0,0,0
96,-45.0,1.0,46.0,1645184714.40625,P15,D02,0,0,0
97,-44.0,1.0,46.0,1645184714.4375,P15,D02,0,0,0
98,-44.0,2.0,46.0,1645184714.46875,P15,D02,0,0,0
99,-45.0,2.0,46.0,1645184714.5,P15,D02,0,0,0
100,-45.0,2.0,45.0,1645184714.53125,P15,D02,0,0,0
101,-45.0,2.0,45.0,1645184714.5625,P15,D02,0,0,0
102,-45.0,2.0,46.0,1645184714.59375,P15,D02,0,0,0
103,-45.0,2.0,45.0,1645184714.625,P15,D02,0,0,0
104,-45.0,2.0,45.0,1645184714.65625,P15,D02,0,0,0
105,-45.0,1.0,45.0,1645184714.6875,P15,D02,0,0,0
106,-45.0,2.0,45.0,1645184714.71875,P15,D02,0,0,0
107,-45.0,2.0,45.0,1645184714.75,P15,D02,0,0,0
108,-45.0,2.0,45.0,1645184714.78125,P15,D02,0,0,0
109,-45.0,1.0,45.0,1645184714.8125,P15,D02,0,0,0
110,-44.0,1.0,46.0,1645184714.84375,P15,D02,0,0,0
111,-45.0,1.0,45.0,1645184714.875,P15,D02,0,0,0
112,-45.0,1.0,45.0,1645184714.90625,P15,D02,0,0,0
113,-45.0,1.0,45.0,1645184714.9375,P15,D02,0,0,0
114,-45.0,2.0,46.0,1645184714.96875,P15,D02,0,0,0
115,-45.0,2.0,46.0,1645184715.0,P15,D02,0,0,0
116,-45.0,1.0,45.0,1645184715.03125,P15,D02,0,0,0
117,-45.0,1.0,45.0,1645184715.0625,P15,D02,0,0,0
118,-45.0,2.0,45.0,1645184715.09375,P15,D02,0,0,0
119,-45.0,2.0,46.0,1645184715.125,P15,D02,0,0,0
120,-45.0,2.0,46.0,1645184715.15625,P15,D02,0,0,0
121,-45.0,2.0,46.0,1645184715.1875,P15,D02,0,0,0
122,-45.0,2.0,46.0,1645184715.21875,P15,D02,0,0,0
123,-45.0,1.0,45.0,1645184715.25,P15,D02,0,0,0
124,-46.0,2.0,45.0,1645184715.28125,P15,D02,0,0,0
125,-45.0,1.0,45.0,1645184715.3125,P15,D02,0,0,0
126,-45.0,1.0,45.0,1645184715.34375,P15,D02,0,0,0
127,-44.0,2.0,46.0,1645184715.375,P15,D02,0,0,0
128,-45.0,2.0,45.0,1645184715.40625,P15,D02,0,0,0
129,-45.0,2.0,45.0,1645184715.4375,P15,D02,0,0,0
130,-45.0,2.0,45.0,1645184715.46875,P15,D02,0,0,0
131,-45.0,2.0,45.0,1645184715.5,P15,D02,0,0,0
132,-45.0,2.0,45.0,1645184715.53125,P15,D02,0,0,0
133,-45.0,2.0,45.0,1645184715.5625,P15,D02,0,0,0
134,-45.0,2.0,45.0,1645184715.59375,P15,D02,0,0,0
135,-45.0,2.0,45.0,1645184715.625,P15,D02,0,0,0
136,-45.0,2.0,45.0,1645184715.65625,P15,D02,0,0,0
137,-45.0,2.0,45.0,1645184715.6875,P15,D02,0,0,0
138,-45.0,2.0,45.0,1645184715.71875,P15,D02,0,0,0
139,-45.0,2.0,45.0,1645184715.75,P15,D02,0,0,0
140,-45.0,2.0,45.0,1645184715.78125,P15,D02,0,0,0
141,-45.0,2.0,45.0,1645184715.8125,P15,D02,0,0,0
142,-45.0,2.0,45.0,1645184715.84375,P15,D02,0,0,0
143,-45.0,2.0,45.0,1645184715.875,P15,D02,0,0,0
144,-45.0,1.0,46.0,1645184715.90625,P15,D02,0,0,0
145,-44.0,2.0,46.0,1645184715.9375,P15,D02,0,0,0
146,-45.0,2.0,45.0,1645184715.96875,P15,D02,0,0,0
147,-45.0,2.0,45.0,1645184716.0,P15,D02,0,0,0
148,-45.0,2.0,45.0,1645184716.03125,P15,D02,0,0,0
149,-45.0,2.0,45.0,1645184716.0625,P15,D02,0,0,0
150,-45.0,2.0,45.0,1645184716.09375,P15,D02,0,0,0
151,-45.0,2.0,46.0,1645184716.125,P15,D02,0,0,0
152,-45.0,2.0,45.0,1645184716.15625,P15,D02,0,0,0
153,-45.0,2.0,45.0,1645184716.1875,P15,D02,0,0,0
154,-45.0,2.0,45.0,1645184716.21875,P15,D02,0,0,0
155,-45.0,2.0,45.0,1645184716.25,P15,D02,0,0,0
156,-44.0,2.0,45.0,1645184716.28125,P15,D02,0,0,0
157,-45.0,2.0,45.0,1645184716.3125,P15,D02,0,0,0
158,-45.0,2.0,45.0,1645184716.34375,P15,D02,0,0,0
159,-45.0,2.0,45.0,1645184716.375,P15,D02,0,0,0
160,-46.0,2.0,45.0,1645184716.40625,P15,D02,0,0,0
161,-45.0,2.0,45.0,1645184716.4375,P15,D02,0,0,0
162,-45.0,2.0,46.0,1645184716.46875,P15,D02,0,0,0
163,-45.0,2.0,45.0,1645184716.5,P15,D02,0,0,0
164,-45.0,2.0,45.0,1645184716.53125,P15,D02,0,0,0
165,-45.0,2.0,46.0,1645184716.5625,P15,D02,0,0,0
166,-46.0,2.0,45.0,1645184716.59375,P15,D02,0,0,0
167,-45.0,2.0,45.0,1645184716.625,P15,D02,0,0,0
168,-45.0,1.0,46.0,1645184716.65625,P15,D02,0,0,0
169,-45.0,2.0,45.0,1645184716.6875,P15,D02,0,0,0
170,-45.0,2.0,45.0,1645184716.71875,P15,D02,0,0,0
171,-45.0,1.0,45.0,1645184716.75,P15,D02,0,0,0
172,-46.0,1.0,45.0,1645184716.78125,P15,D02,0,0,0
173,-45.0,2.0,45.0,1645184716.8125,P15,D02,0,0,0
174,-45.0,2.0,45.0,1645184716.84375,P15,D02,0,0,0
175,-45.0,2.0,45.0,1645184716.875,P15,D02,0,0,0
176,-45.0,2.0,45.0,1645184716.90625,P15,D02,0,0,0
177,-45.0,2.0,45.0,1645184716.9375,P15,D02,0,0,0
178,-45.0,2.0,45.0,1645184716.96875,P15,D02,0,0,0
179,-45.0,2.0,45.0,1645184717.0,P15,D02,0,0,0
180,-45.0,2.0,46.0,1645184717.03125,P15,D02,0,0,0
181,-45.0,2.0,45.0,1645184717.0625,P15,D02,0,0,0
182,-45.0,1.0,45.0,1645184717.09375,P15,D02,0,0,0
183,-45.0,1.0,45.0,1645184717.125,P15,D02,0,0,0
184,-45.0,1.0,45.0,1645184717.15625,P15,D02,0,0,0
185,-45.0,1.0,45.0,1645184717.1875,P15,D02,0,0,0
186,-45.0,2.0,45.0,1645184717.21875,P15,D02,0,0,0
187,-45.0,1.0,45.0,1645184717.25,P15,D02,0,0,0
188,-46.0,1.0,44.0,1645184717.28125,P15,D02,0,0,0
189,-47.0,2.0,44.0,1645184717.3125,P15,D02,0,0,0
190,-45.0,3.0,45.0,1645184717.34375,P15,D02,0,0,0
191,-47.0,2.0,44.0,1645184717.375,P15,D02,0,0,0
192,-46.0,2.0,44.0,1645184717.40625,P15,D02,0,0,0
193,-46.0,2.0,44.0,1645184717.4375,P15,D02,0,0,0
194,-46.0,2.0,44.0,1645184717.46875,P15,D02,0,0,0
195,-45.0,1.0,45.0,1645184717.5,P15,D02,0,0,0
196,-45.0,1.0,45.0,1645184717.53125,P15,D02,0,0,0
197,-45.0,1.0,45.0,1645184717.5625,P15,D02,0,0,0
198,-45.0,1.0,45.0,1645184717.59375,P15,D02,0,0,0
199,-46.0,1.0,45.0,1645184717.625,P15,D02,0,0,0
200,-46.0,1.0,45.0,1645184717.65625,P15,D02,0,0,0
201,-46.0,1.0,45.0,1645184717.6875,P15,D02,0,0,0
202,-45.0,1.0,45.0,1645184717.71875,P15,D02,0,0,0
203,-46.0,1.0,45.0,1645184717.75,P15,D02,0,0,0
204,-45.0,1.0,45.0,1645184717.78125,P15,D02,0,0,0
205,-45.0,1.0,46.0,1645184717.8125,P15,D02,0,0,0
206,-45.0,1.0,46.0,1645184717.84375,P15,D02,0,0,0
207,-45.0,1.0,46.0,1645184717.875,P15,D02,0,0,0
208,-45.0,1.0,46.0,1645184717.90625,P15,D02,0,0,0
209,-44.0,1.0,46.0,1645184717.9375,P15,D02,0,0,0
210,-44.0,1.0,46.0,1645184717.96875,P15,D02,0,0,0
211,-45.0,1.0,46.0,1645184718.0,P15,D02,0,0,0
212,-44.0,2.0,46.0,1645184718.03125,P15,D02,0,0,0
213,-45.0,1.0,46.0,1645184718.0625,P15,D02,0,0,0
214,-44.0,1.0,46.0,1645184718.09375,P15,D02,0,0,0
215,-45.0,1.0,46.0,1645184718.125,P15,D02,0,0,0
216,-45.0,1.0,45.0,1645184718.15625,P15,D02,0,0,0
217,-45.0,1.0,45.0,1645184718.1875,P15,D02,0,0,0
218,-45.0,1.0,46.0,1645184718.21875,P15,D02,0,0,0
219,-45.0,1.0,45.0,1645184718.25,P15,D02,0,0,0
220,-45.0,1.0,45.0,1645184718.28125,P15,D02,0,0,0
221,-45.0,1.0,45.0,1645184718.3125,P15,D02,0,0,0
222,-45.0,1.0,45.0,1645184718.34375,P15,D02,0,0,0
223,-45.0,1.0,45.0,1645184718.375,P15,D02,0,0,0
224,-45.0,1.0,45.0,1645184718.40625,P15,D02,0,0,0
225,-45.0,1.0,46.0,1645184718.4375,P15,D02,0,0,0
226,-45.0,1.0,45.0,1645184718.46875,P15,D02,0,0,0
227,-45.0,2.0,46.0,1645184718.5,P15,D02,0,0,0
228,-45.0,1.0,46.0,1645184718.53125,P15,D02,0,0,0
229,-45.0,1.0,45.0,1645184718.5625,P15,D02,0,0,0
230,-45.0,1.0,45.0,1645184718.59375,P15,D02,0,0,0
231,-46.0,2.0,45.0,1645184718.625,P15,D02,0,0,0
232,-44.0,1.0,46.0,1645184718.65625,P15,D02,0,0,0
233,-44.0,2.0,46.0,1645184718.6875,P15,D02,0,0,0
234,-45.0,1.0,45.0,1645184718.71875,P15,D02,0,0,0
235,-45.0,2.0,45.0,1645184718.75,P15,D02,0,0,0
236,-45.0,1.0,45.0,1645184718.78125,P15,D02,0,0,0
237,-45.0,1.0,45.0,1645184718.8125,P15,D02,0,0,0
238,-45.0,1.0,45.0,1645184718.84375,P15,D02,0,0,0
239,-45.0,1.0,45.0,1645184718.875,P15,D02,0,0,0
240,-45.0,1.0,45.0,1645184718.90625,P15,D02,0,0,0
241,-45.0,1.0,45.0,1645184718.9375,P15,D02,0,0,0
242,-45.0,2.0,45.0,1645184718.96875,P15,D02,0,0,0
243,-45.0,1.0,45.0,1645184719.0,P15,D02,0,0,0
244,-45.0,1.0,45.0,1645184719.03125,P15,D02,0,0,0
245,-45.0,1.0,45.0,1645184719.0625,P15,D02,0,0,0
246,-45.0,2.0,45.0,1645184719.09375,P15,D02,0,0,0
247,-45.0,2.0,45.0,1645184719.125,P15,D02,0,0,0
248,-45.0,1.0,45.0,1645184719.15625,P15,D02,0,0,0
249,-45.0,1.0,45.0,1645184719.1875,P15,D02,0,0,0
250,-45.0,1.0,46.0,1645184719.21875,P15,D02,0,0,0
251,-45.0,1.0,46.0,1645184719.25,P15,D02,0,0,0
252,-45.0,1.0,45.0,1645184719.28125,P15,D02,0,0,0
253,-45.0,1.0,45.0,1645184719.3125,P15,D02,0,0,0
254,-44.0,2.0,46.0,1645184719.34375,P15,D02,0,0,0
255,-45.0,1.0,45.0,1645184719.375,P15,D02,0,0,0
256,-45.0,1.0,45.0,1645184719.40625,P15,D02,0,0,0
257,-45.0,1.0,46.0,1645184719.4375,P15,D02,0,0,0
258,-45.0,1.0,45.0,1645184719.46875,P15,D02,0,0,0
259,-45.0,1.0,45.0,1645184719.5,P15,D02,0,0,0
260,-45.0,1.0,45.0,1645184719.53125,P15,D02,0,0,0
261,-45.0,1.0,45.0,1645184719.5625,P15,D02,0,0,0
262,-45.0,1.0,46.0,1645184719.59375,P15,D02,0,0,0
263,-45.0,1.0,46.0,1645184719.625,P15,D02,0,0,0
264,-45.0,2.0,45.0,1645184719.65625,P15,D02,0,0,0
265,-45.0,1.0,45.0,1645184719.6875,P15,D02,0,0,0
266,-45.0,1.0,45.0,1645184719.71875,P15,D02,0,0,0
267,-45.0,1.0,45.0,1645184719.75,P15,D02,0,0,0
268,-44.0,1.0,46.0,1645184719.78125,P15,D02,0,0,0
269,-45.0,2.0,45.0,1645184719.8125,P15,D02,0,0,0
270,-45.0,1.0,45.0,1645184719.84375,P15,D02,0,0,0
271,-45.0,1.0,45.0,1645184719.875,P15,D02,0,0,0
272,-45.0,2.0,45.0,1645184719.90625,P15,D02,0,0,0
273,-45.0,1.0,45.0,1645184719.9375,P15,D02,0,0,0
274,-45.0,1.0,45.0,1645184719.96875,P15,D02,0,0,0
275,-45.0,1.0,45.0,1645184720.0,P15,D02,0,0,0
276,-45.0,1.0,45.0,1645184720.03125,P15,D02,0,0,0
277,-45.0,1.0,45.0,1645184720.0625,P15,D02,0,0,0
278,-45.0,1.0,45.0,1645184720.09375,P15,D02,0,0,0
279,-45.0,1.0,45.0,1645184720.125,P15,D02,0,0,0
280,-45.0,1.0,45.0,1645184720.15625,P15,D02,0,0,0
281,-45.0,2.0,45.0,1645184720.1875,P15,D02,0,0,0
282,-45.0,1.0,45.0,1645184720.21875,P15,D02,0,0,0
283,-45.0,1.0,45.0,1645184720.25,P15,D02,0,0,0
284,-45.0,2.0,45.0,1645184720.28125,P15,D02,0,0,0
285,-45.0,1.0,46.0,1645184720.3125,P15,D02,0,0,0
286,-45.0,2.0,46.0,1645184720.34375,P15,D02,0,0,0
287,-45.0,1.0,45.0,1645184720.375,P15,D02,0,0,0
288,-45.0,1.0,45.0,1645184720.40625,P15,D02,0,0,0
289,-44.0,1.0,46.0,1645184720.4375,P15,D02,0,0,0
290,-45.0,1.0,45.0,1645184720.46875,P15,D02,0,0,0
291,-45.0,2.0,45.0,1645184720.5,P15,D02,0,0,0
292,-45.0,1.0,45.0,1645184720.53125,P15,D02,0,0,0
293,-45.0,1.0,45.0,1645184720.5625,P15,D02,0,0,0
294,-45.0,1.0,45.0,1645184720.59375,P15,D02,0,0,0
295,-45.0,1.0,45.0,1645184720.625,P15,D02,0,0,0
296,-45.0,1.0,45.0,1645184720.65625,P15,D02,0,0,0
297,-45.0,1.0,45.0,1645184720.6875,P15,D02,0,0,0
298,-45.0,1.0,45.0,1645184720.71875,P15,D02,0,0,0
299,-45.0,1.0,45.0,1645184720.75,P15,D02,0,0,0
300,-45.0,2.0,45.0,1645184720.78125,P15,D02,0,0,0
301,-45.0,1.0,45.0,1645184720.8125,P15,D02,0,0,0
302,-45.0,1.0,45.0,1645184720.84375,P15,D02,0,0,0
303,-45.0,1.0,45.0,1645184720.875,P15,D02,0,0,0
304,-45.0,1.0,45.0,1645184720.90625,P15,D02,0,0,0
305,-45.0,2.0,45.0,1645184720.9375,P15,D02,0,0,0
306,-45.0,1.0,45.0,1645184720.96875,P15,D02,0,0,0
307,-45.0,1.0,45.0,1645184721.0,P15,D02,0,0,0
308,-45.0,1.0,45.0,1645184721.03125,P15,D02,0,0,0
309,-45.0,1.0,45.0,1645184721.0625,P15,D02,0,0,0
310,-45.0,1.0,45.0,1645184721.09375,P15,D02,0,0,0
311,-45.0,1.0,45.0,1645184721.125,P15,D02,0,0,0
312,-45.0,1.0,45.0,1645184721.15625,P15,D02,0,0,0
313,-45.0,1.0,45.0,1645184721.1875,P15,D02,0,0,0
314,-45.0,1.0,45.0,1645184721.21875,P15,D02,0,0,0
315,-45.0,1.0,45.0,1645184721.25,P15,D02,0,0,0
316,-45.0,1.0,45.0,1645184721.28125,P15,D02,0,0,0
317,-45.0,2.0,45.0,1645184721.3125,P15,D02,0,0,0
318,-45.0,1.0,45.0,1645184721.34375,P15,D02,0,0,0
319,-45.0,1.0,45.0,1645184721.375,P15,D02,0,0,0
320,-45.0,1.0,45.0,1645184721.40625,P15,D02,0,0,0
321,-45.0,1.0,45.0,1645184721.4375,P15,D02,0,0,0
322,-46.0,1.0,45.0,1645184721.46875,P15,D02,0,0,0
323,-45.0,2.0,45.0,1645184721.5,P15,D02,0,0,0
324,-45.0,1.0,45.0,1645184721.53125,P15,D02,0,0,0
325,-45.0,1.0,45.0,1645184721.5625,P15,D02,0,0,0
326,-45.0,1.0,45.0,1645184721.59375,P15,D02,0,0,0
327,-45.0,1.0,45.0,1645184721.625,P15,D02,0,0,0
328,-45.0,1.0,45.0,1645184721.65625,P15,D02,0,0,0
329,-45.0,1.0,45.0,1645184721.6875,P15,D02,0,0,0
330,-45.0,1.0,45.0,1645184721.71875,P15,D02,0,0,0
331,-45.0,1.0,45.0,1645184721.75,P15,D02,0,0,0
332,-45.0,1.0,45.0,1645184721.78125,P15,D02,0,0,0
333,-45.0,1.0,45.0,1645184721.8125,P15,D02,0,0,0
334,-46.0,1.0,45.0,1645184721.84375,P15,D02,0,0,0
335,-45.0,2.0,45.0,1645184721.875,P15,D02,0,0,0
336,-45.0,1.0,45.0,1645184721.90625,P15,D02,0,0,0
337,-45.0,1.0,45.0,1645184721.9375,P15,D02,0,0,0
338,-45.0,1.0,46.0,1645184721.96875,P15,D02,0,0,0
339,-45.0,1.0,45.0,1645184722.0,P15,D02,0,0,0
340,-45.0,1.0,45.0,1645184722.03125,P15,D02,0,0,0
341,-45.0,1.0,45.0,1645184722.0625,P15,D02,0,0,0
342,-45.0,1.0,45.0,1645184722.09375,P15,D02,0,0,0
343,-45.0,1.0,45.0,1645184722.125,P15,D02,0,0,0
344,-46.0,1.0,45.0,1645184722.15625,P15,D02,0,0,0
345,-45.0,1.0,45.0,1645184722.1875,P15,D02,0,0,0
346,-45.0,1.0,45.0,1645184722.21875,P15,D02,0,0,0
347,-46.0,1.0,45.0,1645184722.25,P15,D02,0,0,0
348,-45.0,1.0,45.0,1645184722.28125,P15,D02,0,0,0
349,-46.0,1.0,45.0,1645184722.3125,P15,D02,0,0,0
350,-46.0,1.0,45.0,1645184722.34375,P15,D02,0,0,0
351,-44.0,1.0,46.0,1645184722.375,P15,D02,0,0,0
352,-45.0,1.0,45.0,1645184722.40625,P15,D02,0,0,0
353,-45.0,1.0,45.0,1645184722.4375,P15,D02,0,0,0
354,-45.0,1.0,45.0,1645184722.46875,P15,D02,0,0,0
355,-45.0,1.0,46.0,1645184722.5,P15,D02,0,0,0
356,-44.0,1.0,45.0,1645184722.53125,P15,D02,0,0,0
357,-45.0,1.0,45.0,1645184722.5625,P15,D02,0,0,0
358,-45.0,1.0,45.0,1645184722.59375,P15,D02,0,0,0
359,-45.0,1.0,45.0,1645184722.625,P15,D02,0,0,0
360,-45.0,1.0,45.0,1645184722.65625,P15,D02,0,0,0
361,-45.0,1.0,45.0,1645184722.6875,P15,D02,0,0,0
362,-45.0,1.0,45.0,1645184722.71875,P15,D02,0,0,0
363,-45.0,1.0,45.0,1645184722.75,P15,D02,0,0,0
364,-45.0,1.0,46.0,1645184722.78125,P15,D02,0,0,0
365,-45.0,1.0,45.0,1645184722.8125,P15,D02,0,0,0
366,-45.0,2.0,45.0,1645184722.84375,P15,D02,0,0,0
367,-45.0,1.0,45.0,1645184722.875,P15,D02,0,0,0
368,-45.0,1.0,46.0,1645184722.90625,P15,D02,0,0,0
369,-45.0,1.0,46.0,1645184722.9375,P15,D02,0,0,0
370,-45.0,1.0,45.0,1645184722.96875,P15,D02,0,0,0
371,-45.0,2.0,45.0,1645184723.0,P15,D02,0,0,0
372,-45.0,1.0,45.0,1645184723.03125,P15,D02,0,0,0
373,-45.0,1.0,46.0,1645184723.0625,P15,D02,0,0,0
374,-44.0,1.0,46.0,1645184723.09375,P15,D02,0,0,0
375,-45.0,1.0,45.0,1645184723.125,P15,D02,0,0,0
376,-45.0,1.0,45.0,1645184723.15625,P15,D02,0,0,0
377,-45.0,1.0,46.0,1645184723.1875,P15,D02,0,0,0
378,-45.0,1.0,45.0,1645184723.21875,P15,D02,0,0,0
379,-45.0,1.0,45.0,1645184723.25,P15,D02,0,0,0
380,-45.0,1.0,46.0,1645184723.28125,P15,D02,0,0,0
381,-45.0,1.0,46.0,1645184723.3125,P15,D02,0,0,0
382,-45.0,1.0,46.0,1645184723.34375,P15,D02,0,0,0
383,-45.0,1.0,46.0,1645184723.375,P15,D02,0,0,0
384,-45.0,2.0,45.0,1645184723.40625,P15,D02,0,0,0
385,-45.0,1.0,45.0,1645184723.4375,P15,D02,0,0,0
386,-45.0,1.0,45.0,1645184723.46875,P15,D02,0,0,0
387,-45.0,1.0,46.0,1645184723.5,P15,D02,0,0,0
388,-45.0,1.0,45.0,1645184723.53125,P15,D02,0,0,0
389,-45.0,1.0,46.0,1645184723.5625,P15,D02,0,0,0
390,-45.0,1.0,45.0,1645184723.59375,P15,D02,0,0,0
391,-45.0,1.0,45.0,1645184723.625,P15,D02,0,0,0
392,-44.0,2.0,46.0,1645184723.65625,P15,D02,0,0,0
393,-45.0,1.0,45.0,1645184723.6875,P15,D02,0,0,0
394,-45.0,1.0,45.0,1645184723.71875,P15,D02,0,0,0
395,-45.0,1.0,46.0,1645184723.75,P15,D02,0,0,0
396,-45.0,1.0,46.0,1645184723.78125,P15,D02,0,0,0
397,-45.0,1.0,45.0,1645184723.8125,P15,D02,0,0,0
398,-45.0,1.0,45.0,1645184723.84375,P15,D02,0,0,0
399,-45.0,1.0,46.0,1645184723.875,P15,D02,0,0,0
400,-45.0,1.0,46.0,1645184723.90625,P15,D02,0,0,0
401,-45.0,1.0,45.0,1645184723.9375,P15,D02,0,0,0
402,-45.0,2.0,45.0,1645184723.96875,P15,D02,0,0,0
403,-45.0,1.0,45.0,1645184724.0,P15,D02,0,0,0
404,-45.0,1.0,45.0,1645184724.03125,P15,D02,0,0,0
405,-45.0,1.0,46.0,1645184724.0625,P15,D02,0,0,0
406,-45.0,1.0,45.0,1645184724.09375,P15,D02,0,0,0
407,-45.0,1.0,45.0,1645184724.125,P15,D02,0,0,0
408,-45.0,1.0,45.0,1645184724.15625,P15,D02,0,0,0
409,-45.0,1.0,45.0,1645184724.1875,P15,D02,0,0,0
410,-45.0,1.0,46.0,1645184724.21875,P15,D02,0,0,0
411,-46.0,2.0,45.0,1645184724.25,P15,D02,0,0,0
412,-45.0,1.0,45.0,1645184724.28125,P15,D02,0,0,0
413,-45.0,1.0,45.0,1645184724.3125,P15,D02,0,0,0
414,-45.0,1.0,45.0,1645184724.34375,P15,D02,0,0,0
415,-45.0,1.0,45.0,1645184724.375,P15,D02,0,0,0
416,-45.0,1.0,45.0,1645184724.40625,P15,D02,0,0,0
417,-45.0,1.0,45.0,1645184724.4375,P15,D02,0,0,0
418,-45.0,1.0,45.0,1645184724.46875,P15,D02,0,0,0
419,-45.0,1.0,45.0,1645184724.5,P15,D02,0,0,0
420,-45.0,1.0,45.0,1645184724.53125,P15,D02,0,0,0
421,-45.0,1.0,45.0,1645184724.5625,P15,D02,0,0,0
422,-45.0,1.0,45.0,1645184724.59375,P15,D02,0,0,0
423,-45.0,1.0,45.0,1645184724.625,P15,D02,0,0,0
424,-45.0,1.0,45.0,1645184724.65625,P15,D02,0,0,0
425,-45.0,1.0,45.0,1645184724.6875,P15,D02,0,0,0
426,-45.0,1.0,45.0,1645184724.71875,P15,D02,0,0,0
427,-44.0,1.0,46.0,1645184724.75,P15,D02,0,0,0
428,-45.0,1.0,45.0,1645184724.78125,P15,D02,0,0,0
429,-45.0,1.0,45.0,1645184724.8125,P15,D02,0,0,0
430,-45.0,1.0,45.0,1645184724.84375,P15,D02,0,0,0
431,-45.0,1.0,45.0,1645184724.875,P15,D02,0,0,0
432,-45.0,1.0,45.0,1645184724.90625,P15,D02,0,0,0
433,-45.0,1.0,45.0,1645184724.9375,P15,D02,0,0,0
434,-45.0,1.0,45.0,1645184724.96875,P15,D02,0,0,0
435,-45.0,1.0,45.0,1645184725.0,P15,D02,0,0,0
436,-45.0,1.0,45.0,1645184725.03125,P15,D02,0,0,0
437,-45.0,1.0,46.0,1645184725.0625,P15,D02,0,0,0
438,-45.0,1.0,45.0,1645184725.09375,P15,D02,0,0,0
439,-45.0,1.0,45.0,1645184725.125,P15,D02,0,0,0
440,-45.0,1.0,45.0,1645184725.15625,P15,D02,0,0,0
441,-45.0,1.0,45.0,1645184725.1875,P15,D02,0,0,0
442,-45.0,1.0,45.0,1645184725.21875,P15,D02,0,0,0
443,-45.0,1.0,45.0,1645184725.25,P15,D02,0,0,0
444,-45.0,1.0,45.0,1645184725.28125,P15,D02,0,0,0
445,-45.0,1.0,46.0,1645184725.3125,P15,D02,0,0,0
446,-44.0,1.0,46.0,1645184725.34375,P15,D02,0,0,0
447,-46.0,1.0,45.0,1645184725.375,P15,D02,0,0,0
448,-45.0,1.0,45.0,1645184725.40625,P15,D02,0,0,0
449,-45.0,1.0,45.0,1645184725.4375,P15,D02,0,0,0
450,-45.0,1.0,45.0,1645184725.46875,P15,D02,0,0,0
451,-45.0,1.0,45.0,1645184725.5,P15,D02,0,0,0
452,-45.0,1.0,45.0,1645184725.53125,P15,D02,0,0,0
453,-45.0,1.0,45.0,1645184725.5625,P15,D02,0,0,0
454,-45.0,1.0,45.0,1645184725.59375,P15,D02,0,0,0
455,-45.0,1.0,45.0,1645184725.625,P15,D02,0,0,0
456,-45.0,2.0,45.0,1645184725.65625,P15,D02,0,0,0
457,-45.0,1.0,45.0,1645184725.6875,P15,D02,0,0,0
458,-46.0,1.0,45.0,1645184725.71875,P15,D02,0,0,0
459,-45.0,1.0,45.0,1645184725.75,P15,D02,0,0,0
460,-45.0,1.0,45.0,1645184725.78125,P15,D02,0,0,0
461,-46.0,1.0,45.0,1645184725.8125,P15,D02,0,0,0
462,-45.0,1.0,45.0,1645184725.84375,P15,D02,0,0,0
463,-45.0,1.0,45.0,1645184725.875,P15,D02,0,0,0
464,-45.0,1.0,45.0,1645184725.90625,P15,D02,0,0,0
465,-45.0,1.0,45.0,1645184725.9375,P15,D02,0,0,0
466,-45.0,1.0,45.0,1645184725.96875,P15,D02,0,0,0
467,-45.0,1.0,45.0,1645184726.0,P15,D02,0,0,0
468,-44.0,1.0,45.0,1645184726.03125,P15,D02,0,0,0
469,-46.0,1.0,45.0,1645184726.0625,P15,D02,0,0,0
470,-45.0,1.0,45.0,1645184726.09375,P15,D02,0,0,0
471,-45.0,1.0,45.0,1645184726.125,P15,D02,0,0,0
472,-45.0,1.0,45.0,1645184726.15625,P15,D02,0,0,0
473,-45.0,1.0,45.0,1645184726.1875,P15,D02,0,0,0
474,-45.0,1.0,45.0,1645184726.21875,P15,D02,0,0,0
475,-45.0,1.0,45.0,1645184726.25,P15,D02,0,0,0
476,-45.0,1.0,45.0,1645184726.28125,P15,D02,0,0,0
477,-45.0,1.0,45.0,1645184726.3125,P15,D02,0,0,0
478,-45.0,1.0,45.0,1645184726.34375,P15,D02,0,0,0
479,-45.0,1.0,45.0,1645184726.375,P15,D02,0,0,0
480,-45.0,1.0,45.0,1645184726.40625,P15,D02,0,0,0
481,-45.0,1.0,45.0,1645184726.4375,P15,D02,0,0,0
482,-45.0,1.0,45.0,1645184726.46875,P15,D02,0,0,0
483,-45.0,1.0,46.0,1645184726.5,P15,D02,0,0,0
484,-45.0,1.0,45.0,1645184726.53125,P15,D02,0,0,0
485,-45.0,1.0,45.0,1645184726.5625,P15,D02,0,0,0
486,-45.0,1.0,45.0,1645184726.59375,P15,D02,0,0,0
487,-45.0,1.0,45.0,1645184726.625,P15,D02,0,0,0
488,-45.0,2.0,45.0,1645184726.65625,P15,D02,0,0,0
489,-45.0,1.0,45.0,1645184726.6875,P15,D02,0,0,0
490,-45.0,1.0,45.0,1645184726.71875,P15,D02,0,0,0
491,-45.0,1.0,45.0,1645184726.75,P15,D02,0,0,0
492,-45.0,2.0,45.0,1645184726.78125,P15,D02,0,0,0
493,-45.0,1.0,45.0,1645184726.8125,P15,D02,0,0,0
494,-45.0,1.0,46.0,1645184726.84375,P15,D02,0,0,0
495,-45.0,1.0,45.0,1645184726.875,P15,D02,0,0,0
496,-45.0,2.0,46.0,1645184726.90625,P15,D02,0,0,0
497,-45.0,1.0,45.0,1645184726.9375,P15,D02,0,0,0
498,-45.0,1.0,46.0,1645184726.96875,P15,D02,0,0,0
499,-44.0,1.0,46.0,1645184727.0,P15,D02,0,0,0
500,-45.0,1.0,46.0,1645184727.03125,P15,D02,0,0,0
501,-45.0,1.0,45.0,1645184727.0625,P15,D02,0,0,0
502,-44.0,1.0,46.0,1645184727.09375,P15,D02,0,0,0
503,-45.0,1.0,46.0,1645184727.125,P15,D02,0,0,0
504,-45.0,2.0,46.0,1645184727.15625,P15,D02,0,0,0
505,-45.0,1.0,46.0,1645184727.1875,P15,D02,0,0,0
506,-45.0,1.0,45.0,1645184727.21875,P15,D02,0,0,0
507,-45.0,1.0,45.0,1645184727.25,P15,D02,0,0,0
508,-45.0,1.0,46.0,1645184727.28125,P15,D02,0,0,0
509,-45.0,1.0,46.0,1645184727.3125,P15,D02,0,0,0
510,-45.0,1.0,46.0,1645184727.34375,P15,D02,0,0,0
511,-45.0,1.0,46.0,1645184727.375,P15,D02,0,0,0
512,-45.0,1.0,46.0,1645184727.40625,P15,D02,0,0,0
513,-45.0,1.0,46.0,1645184727.4375,P15,D02,0,0,0
514,-45.0,1.0,45.0,1645184727.46875,P15,D02,0,0,0
515,-45.0,1.0,45.0,1645184727.5,P15,D02,0,0,0
516,-45.0,2.0,46.0,1645184727.53125,P15,D02,0,0,0
517,-45.0,1.0,46.0,1645184727.5625,P15,D02,0,0,0
518,-44.0,1.0,45.0,1645184727.59375,P15,D02,0,0,0
519,-45.0,2.0,45.0,1645184727.625,P15,D02,0,0,0
520,-44.0,1.0,46.0,1645184727.65625,P15,D02,0,0,0
521,-45.0,1.0,46.0,1645184727.6875,P15,D02,0,0,0
522,-45.0,1.0,45.0,1645184727.71875,P15,D02,0,0,0
523,-45.0,1.0,46.0,1645184727.75,P15,D02,0,0,0
524,-45.0,1.0,45.0,1645184727.78125,P15,D02,0,0,0
525,-45.0,2.0,45.0,1645184727.8125,P15,D02,0,0,0
526,-45.0,1.0,46.0,1645184727.84375,P15,D02,0,0,0
527,-45.0,1.0,46.0,1645184727.875,P15,D02,0,0,0
528,-45.0,2.0,46.0,1645184727.90625,P15,D02,0,0,0
529,-45.0,1.0,46.0,1645184727.9375,P15,D02,0,0,0
530,-45.0,1.0,45.0,1645184727.96875,P15,D02,0,0,0
531,-45.0,1.0,46.0,1645184728.0,P15,D02,0,0,0
532,-45.0,1.0,46.0,1645184728.03125,P15,D02,0,0,0
533,-45.0,1.0,45.0,1645184728.0625,P15,D02,0,0,0
534,-45.0,1.0,45.0,1645184728.09375,P15,D02,0,0,0
535,-45.0,1.0,45.0,1645184728.125,P15,D02,0,0,0
536,-45.0,1.0,45.0,1645184728.15625,P15,D02,0,0,0
537,-45.0,1.0,45.0,1645184728.1875,P15,D02,0,0,0
538,-45.0,1.0,45.0,1645184728.21875,P15,D02,0,0,0
539,-45.0,1.0,46.0,1645184728.25,P15,D02,0,0,0
540,-45.0,1.0,45.0,1645184728.28125,P15,D02,0,0,0
541,-45.0,1.0,45.0,1645184728.3125,P15,D02,0,0,0
542,-45.0,1.0,46.0,1645184728.34375,P15,D02,0,0,0
543,-45.0,1.0,45.0,1645184728.375,P15,D02,0,0,0
544,-45.0,1.0,45.0,1645184728.40625,P15,D02,0,0,0
545,-45.0,1.0,45.0,1645184728.4375,P15,D02,0,0,0
546,-45.0,1.0,46.0,1645184728.46875,P15,D02,0,0,0
547,-44.0,1.0,46.0,1645184728.5,P15,D02,0,0,0
548,-45.0,1.0,45.0,1645184728.53125,P15,D02,0,0,0
549,-45.0,1.0,45.0,1645184728.5625,P15,D02,0,0,0
550,-45.0,2.0,45.0,1645184728.59375,P15,D02,0,0,0
551,-45.0,1.0,45.0,1645184728.625,P15,D02,0,0,0
552,-44.0,1.0,45.0,1645184728.65625,P15,D02,0,0,0
553,-45.0,1.0,45.0,1645184728.6875,P15,D02,0,0,0
554,-45.0,2.0,45.0,1645184728.71875,P15,D02,0,0,0
555,-45.0,1.0,45.0,1645184728.75,P15,D02,0,0,0
556,-45.0,1.0,45.0,1645184728.78125,P15,D02,0,0,0
557,-45.0,1.0,46.0,1645184728.8125,P15,D02,0,0,0
558,-45.0,1.0,46.0,1645184728.84375,P15,D02,0,0,0
559,-45.0,2.0,45.0,1645184728.875,P15,D02,0,0,0
560,-45.0,1.0,45.0,1645184728.90625,P15,D02,0,0,0
561,-45.0,1.0,45.0,1645184728.9375,P15,D02,0,0,0
562,-45.0,1.0,45.0,1645184728.96875,P15,D02,0,0,0
563,-45.0,1.0,45.0,1645184729.0,P15,D02,0,0,0
564,-45.0,1.0,45.0,1645184729.03125,P15,D02,0,0,0
565,-45.0,1.0,45.0,1645184729.0625,P15,D02,0,0,0
566,-45.0,1.0,45.0,1645184729.09375,P15,D02,0,0,0
567,-45.0,1.0,45.0,1645184729.125,P15,D02,0,0,0
568,-45.0,1.0,45.0,1645184729.15625,P15,D02,0,0,0
569,-45.0,1.0,45.0,1645184729.1875,P15,D02,0,0,0
570,-45.0,1.0,45.0,1645184729.21875,P15,D02,0,0,0
571,-45.0,1.0,45.0,1645184729.25,P15,D02,0,0,0
572,-45.0,1.0,45.0,1645184729.28125,P15,D02,0,0,0
573,-45.0,1.0,45.0,1645184729.3125,P15,D02,0,0,0
574,-45.0,1.0,45.0,1645184729.34375,P15,D02,0,0,0
575,-45.0,1.0,45.0,1645184729.375,P15,D02,0,0,0
576,-45.0,1.0,45.0,1645184729.40625,P15,D02,0,0,0
577,-45.0,1.0,45.0,1645184729.4375,P15,D02,0,0,0
578,-45.0,1.0,45.0,1645184729.46875,P15,D02,0,0,0
579,-45.0,2.0,45.0,1645184729.5,P15,D02,0,0,0
580,-45.0,2.0,46.0,1645184729.53125,P15,D02,0,0,0
581,-46.0,1.0,45.0,1645184729.5625,P15,D02,0,0,0
582,-45.0,1.0,45.0,1645184729.59375,P15,D02,0,0,0
583,-45.0,1.0,45.0,1645184729.625,P15,D02,0,0,0
584,-45.0,1.0,45.0,1645184729.65625,P15,D02,0,0,0
585,-45.0,1.0,45.0,1645184729.6875,P15,D02,0,0,0
586,-45.0,1.0,45.0,1645184729.71875,P15,D02,0,0,0
587,-45.0,1.0,45.0,1645184729.75,P15,D02,0,0,0
588,-46.0,1.0,45.0,1645184729.78125,P15,D02,0,0,0
589,-45.0,1.0,45.0,1645184729.8125,P15,D02,0,0,0
590,-45.0,1.0,45.0,1645184729.84375,P15,D02,0,0,0
591,-45.0,1.0,45.0,1645184729.875,P15,D02,0,0,0
592,-45.0,1.0,45.0,1645184729.90625,P15,D02,0,0,0
593,-44.0,1.0,45.0,1645184729.9375,P15,D02,0,0,0
594,-45.0,1.0,45.0,1645184729.96875,P15,D02,0,0,0
595,-45.0,1.0,45.0,1645184730.0,P15,D02,0,0,0
596,-45.0,1.0,45.0,1645184730.03125,P15,D02,0,0,0
597,-46.0,1.0,45.0,1645184730.0625,P15,D02,0,0,0
598,-46.0,1.0,45.0,1645184730.09375,P15,D02,0,0,0
599,-45.0,1.0,45.0,1645184730.125,P15,D02,0,0,0
600,-46.0,1.0,45.0,1645184730.15625,P15,D02,0,0,0
601,-45.0,1.0,45.0,1645184730.1875,P15,D02,0,0,0
602,-45.0,1.0,45.0,1645184730.21875,P15,D02,0,0,0
603,-45.0,1.0,45.0,1645184730.25,P15,D02,0,0,0
604,-45.0,1.0,45.0,1645184730.28125,P15,D02,0,0,0
605,-45.0,1.0,45.0,1645184730.3125,P15,D02,0,0,0
606,-45.0,1.0,45.0,1645184730.34375,P15,D02,0,0,0
607,-45.0,1.0,45.0,1645184730.375,P15,D02,0,0,0
608,-46.0,1.0,45.0,1645184730.40625,P15,D02,0,0,0
609,-45.0,2.0,45.0,1645184730.4375,P15,D02,0,0,0
610,-45.0,1.0,45.0,1645184730.46875,P15,D02,0,0,0
611,-46.0,1.0,45.0,1645184730.5,P15,D02,0,0,0
612,-45.0,1.0,45.0,1645184730.53125,P15,D02,0,0,0
613,-45.0,1.0,45.0,1645184730.5625,P15,D02,0,0,0
614,-46.0,1.0,45.0,1645184730.59375,P15,D02,0,0,0
615,-45.0,1.0,45.0,1645184730.625,P15,D02,0,0,0
616,-46.0,1.0,45.0,1645184730.65625,P15,D02,0,0,0
617,-46.0,1.0,44.0,1645184730.6875,P15,D02,0,0,0
618,-45.0,1.0,45.0,1645184730.71875,P15,D02,0,0,0
619,-45.0,1.0,45.0,1645184730.75,P15,D02,0,0,0
620,-46.0,1.0,45.0,1645184730.78125,P15,D02,0,0,0
621,-46.0,1.0,45.0,1645184730.8125,P15,D02,0,0,0
622,-46.0,1.0,45.0,1645184730.84375,P15,D02,0,0,0
623,-45.0,1.0,45.0,1645184730.875,P15,D02,0,0,0
624,-45.0,1.0,45.0,1645184730.90625,P15,D02,0,0,0
625,-46.0,1.0,45.0,1645184730.9375,P15,D02,0,0,0
626,-45.0,1.0,45.0,1645184730.96875,P15,D02,0,0,0
627,-46.0,1.0,45.0,1645184731.0,P15,D02,0,0,0
628,-46.0,1.0,45.0,1645184731.03125,P15,D02,0,0,0
629,-45.0,1.0,45.0,1645184731.0625,P15,D02,0,0,0
630,-45.0,1.0,45.0,1645184731.09375,P15,D02,0,0,0
631,-46.0,1.0,45.0,1645184731.125,P15,D02,0,0,0
632,-46.0,1.0,45.0,1645184731.15625,P15,D02,0,0,0
633,-46.0,1.0,44.0,1645184731.1875,P15,D02,0,0,0
634,-45.0,1.0,45.0,1645184731.21875,P15,D02,0,0,0
635,-45.0,1.0,45.0,1645184731.25,P15,D02,0,0,0
636,-46.0,1.0,45.0,1645184731.28125,P15,D02,0,0,0
637,-45.0,1.0,45.0,1645184731.3125,P15,D02,0,0,0
638,-46.0,1.0,45.0,1645184731.34375,P15,D02,0,0,0
639,-46.0,1.0,45.0,1645184731.375,P15,D02,0,0,0
640,-45.0,1.0,45.0,1645184731.40625,P15,D02,0,0,0
641,-45.0,1.0,45.0,1645184731.4375,P15,D02,0,0,0
642,-45.0,1.0,45.0,1645184731.46875,P15,D02,0,0,0
643,-45.0,1.0,45.0,1645184731.5,P15,D02,0,0,0
644,-45.0,1.0,45.0,1645184731.53125,P15,D02,0,0,0
645,-45.0,1.0,45.0,1645184731.5625,P15,D02,0,0,0
646,-45.0,1.0,45.0,1645184731.59375,P15,D02,0,0,0
647,-45.0,1.0,45.0,1645184731.625,P15,D02,0,0,0
648,-45.0,1.0,45.0,1645184731.65625,P15,D02,0,0,0
649,-46.0,1.0,45.0,1645184731.6875,P15,D02,0,0,0
650,-45.0,1.0,45.0,1645184731.71875,P15,D02,0,0,0
651,-45.0,1.0,45.0,1645184731.75,P15,D02,0,0,0
652,-46.0,1.0,45.0,1645184731.78125,P15,D02,0,0,0
653,-45.0,1.0,45.0,1645184731.8125,P15,D02,0,0,0
654,-44.0,1.0,45.0,1645184731.84375,P15,D02,0,0,0
655,-46.0,1.0,45.0,1645184731.875,P15,D02,0,0,0
656,-45.0,1.0,45.0,1645184731.90625,P15,D02,0,0,0
657,-45.0,1.0,45.0,1645184731.9375,P15,D02,0,0,0
658,-46.0,1.0,45.0,1645184731.96875,P15,D02,0,0,0
659,-45.0,1.0,45.0,1645184732.0,P15,D02,0,0,0
660,-45.0,1.0,45.0,1645184732.03125,P15,D02,0,0,0
661,-45.0,1.0,45.0,1645184732.0625,P15,D02,0,0,0
662,-46.0,1.0,45.0,1645184732.09375,P15,D02,0,0,0
663,-45.0,2.0,45.0,1645184732.125,P15,D02,0,0,0
664,-45.0,1.0,45.0,1645184732.15625,P15,D02,0,0,0
665,-45.0,1.0,45.0,1645184732.1875,P15,D02,0,0,0
666,-45.0,1.0,45.0,1645184732.21875,P15,D02,0,0,0
667,-45.0,1.0,45.0,1645184732.25,P15,D02,0,0,0
668,-45.0,1.0,45.0,1645184732.28125,P15,D02,0,0,0
669,-45.0,1.0,45.0,1645184732.3125,P15,D02,0,0,0
670,-45.0,1.0,45.0,1645184732.34375,P15,D02,0,0,0
671,-45.0,1.0,45.0,1645184732.375,P15,D02,0,0,0
672,-45.0,1.0,46.0,1645184732.40625,P15,D02,0,0,0
673,-45.0,1.0,45.0,1645184732.4375,P15,D02,0,0,0
674,-45.0,1.0,45.0,1645184732.46875,P15,D02,0,0,0
675,-45.0,1.0,45.0,1645184732.5,P15,D02,0,0,0
676,-45.0,1.0,45.0,1645184732.53125,P15,D02,0,0,0
677,-45.0,1.0,45.0,1645184732.5625,P15,D02,0,0,0
678,-45.0,1.0,45.0,1645184732.59375,P15,D02,0,0,0
679,-45.0,1.0,45.0,1645184732.625,P15,D02,0,0,0
680,-45.0,1.0,45.0,1645184732.65625,P15,D02,0,0,0
681,-45.0,1.0,45.0,1645184732.6875,P15,D02,0,0,0
682,-45.0,1.0,45.0,1645184732.71875,P15,D02,0,0,0
683,-45.0,1.0,45.0,1645184732.75,P15,D02,0,0,0
684,-46.0,1.0,45.0,1645184732.78125,P15,D02,0,0,0
685,-45.0,1.0,45.0,1645184732.8125,P15,D02,0,0,0
686,-45.0,1.0,45.0,1645184732.84375,P15,D02,0,0,0
687,-45.0,1.0,45.0,1645184732.875,P15,D02,0,0,0
688,-45.0,1.0,45.0,1645184732.90625,P15,D02,0,0,0
689,-46.0,1.0,45.0,1645184732.9375,P15,D02,0,0,0
690,-45.0,1.0,45.0,1645184732.96875,P15,D02,0,0,0
691,-45.0,1.0,45.0,1645184733.0,P15,D02,0,0,0
692,-46.0,1.0,45.0,1645184733.03125,P15,D02,0,0,0
693,-45.0,1.0,45.0,1645184733.0625,P15,D02,0,0,0
694,-45.0,1.0,45.0,1645184733.09375,P15,D02,0,0,0
695,-46.0,1.0,45.0,1645184733.125,P15,D02,0,0,0
696,-46.0,2.0,45.0,1645184733.15625,P15,D02,0,0,0
697,-45.0,1.0,45.0,1645184733.1875,P15,D02,0,0,0
698,-45.0,1.0,45.0,1645184733.21875,P15,D02,0,0,0
699,-45.0,1.0,45.0,1645184733.25,P15,D02,0,0,0
700,-45.0,1.0,45.0,1645184733.28125,P15,D02,0,0,0
701,-45.0,1.0,45.0,1645184733.3125,P15,D02,0,0,0
702,-46.0,1.0,45.0,1645184733.34375,P15,D02,0,0,0
703,-45.0,1.0,45.0,1645184733.375,P15,D02,0,0,0
704,-45.0,1.0,45.0,1645184733.40625,P15,D02,0,0,0
705,-46.0,1.0,45.0,1645184733.4375,P15,D02,0,0,0
706,-46.0,1.0,45.0,1645184733.46875,P15,D02,0,0,0
707,-45.0,1.0,45.0,1645184733.5,P15,D02,0,0,0
708,-46.0,1.0,45.0,1645184733.53125,P15,D02,0,0,0
709,-45.0,1.0,45.0,1645184733.5625,P15,D02,0,0,0
710,-45.0,1.0,45.0,1645184733.59375,P15,D02,0,0,0
711,-46.0,1.0,45.0,1645184733.625,P15,D02,0,0,0
712,-45.0,1.0,45.0,1645184733.65625,P15,D02,0,0,0
713,-45.0,1.0,45.0,1645184733.6875,P15,D02,0,0,0
714,-46.0,1.0,45.0,1645184733.71875,P15,D02,0,0,0
715,-45.0,1.0,45.0,1645184733.75,P15,D02,0,0,0
716,-45.0,1.0,45.0,1645184733.78125,P15,D02,0,0,0
717,-46.0,1.0,45.0,1645184733.8125,P15,D02,0,0,0
718,-45.0,1.0,45.0,1645184733.84375,P15,D02,0,0,0
719,-45.0,1.0,45.0,1645184733.875,P15,D02,0,0,0
720,-46.0,1.0,45.0,1645184733.90625,P15,D02,0,0,0
721,-46.0,1.0,45.0,1645184733.9375,P15,D02,0,0,0
722,-45.0,1.0,45.0,1645184733.96875,P15,D02,0,0,0
723,-46.0,1.0,45.0,1645184734.0,P15,D02,0,0,0
724,-45.0,1.0,45.0,1645184734.03125,P15,D02,0,0,0
725,-45.0,1.0,45.0,1645184734.0625,P15,D02,0,0,0
726,-46.0,1.0,45.0,1645184734.09375,P15,D02,0,0,0
727,-45.0,1.0,45.0,1645184734.125,P15,D02,0,0,0
728,-45.0,1.0,45.0,1645184734.15625,P15,D02,0,0,0
729,-46.0,1.0,45.0,1645184734.1875,P15,D02,0,0,0
730,-46.0,1.0,45.0,1645184734.21875,P15,D02,0,0,0
731,-45.0,1.0,45.0,1645184734.25,P15,D02,0,0,0
732,-45.0,1.0,45.0,1645184734.28125,P15,D02,0,0,0
733,-46.0,1.0,45.0,1645184734.3125,P15,D02,0,0,0
734,-45.0,1.0,45.0,1645184734.34375,P15,D02,0,0,0
735,-45.0,1.0,45.0,1645184734.375,P15,D02,0,0,0
736,-45.0,1.0,45.0,1645184734.40625,P15,D02,0,0,0
737,-45.0,1.0,45.0,1645184734.4375,P15,D02,0,0,0
738,-45.0,1.0,45.0,1645184734.46875,P15,D02,0,0,0
739,-46.0,1.0,45.0,1645184734.5,P15,D02,0,0,0
740,-45.0,1.0,45.0,1645184734.53125,P15,D02,0,0,0
741,-46.0,1.0,44.0,1645184734.5625,P15,D02,0,0,0
742,-46.0,2.0,45.0,1645184734.59375,P15,D02,0,0,0
743,-45.0,1.0,46.0,1645184734.625,P15,D02,0,0,0
744,-45.0,0.0,45.0,1645184734.65625,P15,D02,0,0,0
745,-42.0,1.0,46.0,1645184734.6875,P15,D02,0,0,0
746,-47.0,1.0,44.0,1645184734.71875,P15,D02,0,0,0
747,-47.0,0.0,45.0,1645184734.75,P15,D02,0,0,0
748,-44.0,2.0,45.0,1645184734.78125,P15,D02,0,0,0
749,-46.0,3.0,44.0,1645184734.8125,P15,D02,0,0,0
750,-46.0,1.0,45.0,1645184734.84375,P15,D02,0,0,0
751,-44.0,0.0,45.0,1645184734.875,P15,D02,0,0,0
752,-46.0,2.0,44.0,1645184734.90625,P15,D02,0,0,0
753,-46.0,2.0,45.0,1645184734.9375,P15,D02,0,0,0
754,-45.0,1.0,45.0,1645184734.96875,P15,D02,0,0,0
755,-45.0,1.0,45.0,1645184735.0,P15,D02,0,0,0
756,-45.0,1.0,45.0,1645184735.03125,P15,D02,0,0,0
757,-45.0,1.0,45.0,1645184735.0625,P15,D02,0,0,0
758,-45.0,2.0,45.0,1645184735.09375,P15,D02,0,0,0
759,-45.0,1.0,45.0,1645184735.125,P15,D02,0,0,0
760,-46.0,1.0,45.0,1645184735.15625,P15,D02,0,0,0
761,-44.0,2.0,46.0,1645184735.1875,P15,D02,0,0,0
762,-44.0,1.0,46.0,1645184735.21875,P15,D02,0,0,0
763,-44.0,1.0,46.0,1645184735.25,P15,D02,0,0,0
764,-45.0,1.0,46.0,1645184735.28125,P15,D02,0,0,0
765,-44.0,1.0,46.0,1645184735.3125,P15,D02,0,0,0
766,-44.0,1.0,46.0,1645184735.34375,P15,D02,0,0,0
767,-45.0,2.0,45.0,1645184735.375,P15,D02,0,0,0
768,-45.0,2.0,46.0,1645184735.40625,P15,D02,0,0,0
769,-44.0,2.0,46.0,1645184735.4375,P15,D02,0,0,0
770,-45.0,1.0,46.0,1645184735.46875,P15,D02,0,0,0
771,-44.0,1.0,46.0,1645184735.5,P15,D02,0,0,0
772,-44.0,1.0,46.0,1645184735.53125,P15,D02,0,0,0
773,-44.0,1.0,46.0,1645184735.5625,P15,D02,0,0,0
774,-45.0,1.0,46.0,1645184735.59375,P15,D02,0,0,0
775,-45.0,1.0,46.0,1645184735.625,P15,D02,0,0,0
776,-45.0,1.0,46.0,1645184735.65625,P15,D02,0,0,0
777,-45.0,2.0,45.0,1645184735.6875,P15,D02,0,0,0
778,-46.0,1.0,45.0,1645184735.71875,P15,D02,0,0,0
779,-45.0,2.0,45.0,1645184735.75,P15,D02,0,0,0
780,-46.0,1.0,45.0,1645184735.78125,P15,D02,0,0,0
781,-45.0,1.0,45.0,1645184735.8125,P15,D02,0,0,0
782,-45.0,1.0,45.0,1645184735.84375,P15,D02,0,0,0
783,-45.0,2.0,45.0,1645184735.875,P15,D02,0,0,0
784,-45.0,1.0,45.0,1645184735.90625,P15,D02,0,0,0
785,-44.0,1.0,46.0,1645184735.9375,P15,D02,0,0,0
786,-45.0,1.0,45.0,1645184735.96875,P15,D02,0,0,0
787,-45.0,1.0,45.0,1645184736.0,P15,D02,0,0,0
788,-45.0,2.0,45.0,1645184736.03125,P15,D02,0,0,0
789,-45.0,1.0,45.0,1645184736.0625,P15,D02,0,0,0
790,-45.0,1.0,46.0,1645184736.09375,P15,D02,0,0,0
791,-45.0,2.0,46.0,1645184736.125,P15,D02,0,0,0
792,-45.0,1.0,45.0,1645184736.15625,P15,D02,0,0,0
793,-45.0,1.0,46.0,1645184736.1875,P15,D02,0,0,0
794,-45.0,2.0,46.0,1645184736.21875,P15,D02,0,0,0
795,-45.0,1.0,46.0,1645184736.25,P15,D02,0,0,0
796,-45.0,2.0,45.0,1645184736.28125,P15,D02,0,0,0
797,-45.0,2.0,45.0,1645184736.3125,P15,D02,0,0,0
798,-45.0,1.0,45.0,1645184736.34375,P15,D02,0,0,0
799,-45.0,1.0,45.0,1645184736.375,P15,D02,0,0,0
800,-44.0,2.0,46.0,1645184736.40625,P15,D02,0,0,0
801,-44.0,1.0,45.0,1645184736.4375,P15,D02,0,0,0
802,-45.0,1.0,45.0,1645184736.46875,P15,D02,0,0,0
803,-44.0,1.0,46.0,1645184736.5,P15,D02,0,0,0
804,-45.0,1.0,46.0,1645184736.53125,P15,D02,0,0,0
805,-45.0,1.0,46.0,1645184736.5625,P15,D02,0,0,0
806,-45.0,1.0,45.0,1645184736.59375,P15,D02,0,0,0
807,-45.0,2.0,45.0,1645184736.625,P15,D02,0,0,0
808,-45.0,2.0,45.0,1645184736.65625,P15,D02,0,0,0
809,-45.0,1.0,46.0,1645184736.6875,P15,D02,0,0,0
810,-45.0,2.0,46.0,1645184736.71875,P15,D02,0,0,0
811,-45.0,2.0,45.0,1645184736.75,P15,D02,0,0,0
812,-45.0,1.0,46.0,1645184736.78125,P15,D02,0,0,0
813,-45.0,2.0,45.0,1645184736.8125,P15,D02,0,0,0
814,-44.0,1.0,46.0,1645184736.84375,P15,D02,0,0,0
815,-45.0,1.0,46.0,1645184736.875,P15,D02,0,0,0
816,-45.0,1.0,45.0,1645184736.90625,P15,D02,0,0,0
817,-45.0,2.0,45.0,1645184736.9375,P15,D02,0,0,0
818,-45.0,1.0,45.0,1645184736.96875,P15,D02,0,0,0
819,-45.0,2.0,45.0,1645184737.0,P15,D02,0,0,0
820,-45.0,1.0,45.0,1645184737.03125,P15,D02,0,0,0
821,-45.0,1.0,45.0,1645184737.0625,P15,D02,0,0,0
822,-45.0,1.0,46.0,1645184737.09375,P15,D02,0,0,0
823,-45.0,1.0,45.0,1645184737.125,P15,D02,0,0,0
824,-45.0,1.0,46.0,1645184737.15625,P15,D02,0,0,0
825,-45.0,2.0,46.0,1645184737.1875,P15,D02,0,0,0
826,-45.0,1.0,45.0,1645184737.21875,P15,D02,0,0,0
827,-45.0,1.0,45.0,1645184737.25,P15,D02,0,0,0
828,-45.0,1.0,45.0,1645184737.28125,P15,D02,0,0,0
829,-45.0,1.0,45.0,1645184737.3125,P15,D02,0,0,0
830,-45.0,1.0,45.0,1645184737.34375,P15,D02,0,0,0
831,-45.0,2.0,45.0,1645184737.375,P15,D02,0,0,0
832,-45.0,1.0,45.0,1645184737.40625,P15,D02,0,0,0
833,-45.0,1.0,45.0,1645184737.4375,P15,D02,0,0,0
834,-45.0,1.0,46.0,1645184737.46875,P15,D02,0,0,0
835,-45.0,1.0,45.0,1645184737.5,P15,D02,0,0,0
836,-45.0,1.0,45.0,1645184737.53125,P15,D02,0,0,0
837,-45.0,1.0,45.0,1645184737.5625,P15,D02,0,0,0
838,-45.0,1.0,45.0,1645184737.59375,P15,D02,0,0,0
839,-45.0,1.0,45.0,1645184737.625,P15,D02,0,0,0
840,-45.0,2.0,46.0,1645184737.65625,P15,D02,0,0,0
841,-45.0,1.0,45.0,1645184737.6875,P15,D02,0,0,0
842,-45.0,1.0,45.0,1645184737.71875,P15,D02,0,0,0
843,-45.0,1.0,45.0,1645184737.75,P15,D02,0,0,0
844,-45.0,1.0,45.0,1645184737.78125,P15,D02,0,0,0
845,-45.0,1.0,45.0,1645184737.8125,P15,D02,0,0,0
846,-45.0,1.0,45.0,1645184737.84375,P15,D02,0,0,0
847,-45.0,1.0,45.0,1645184737.875,P15,D02,0,0,0
848,-45.0,1.0,45.0,1645184737.90625,P15,D02,0,0,0
849,-45.0,1.0,45.0,1645184737.9375,P15,D02,0,0,0
850,-45.0,1.0,45.0,1645184737.96875,P15,D02,0,0,0
851,-45.0,1.0,45.0,1645184738.0,P15,D02,0,0,0
852,-45.0,1.0,45.0,1645184738.03125,P15,D02,0,0,0
853,-45.0,1.0,45.0,1645184738.0625,P15,D02,0,0,0
854,-45.0,1.0,45.0,1645184738.09375,P15,D02,0,0,0
855,-45.0,1.0,45.0,1645184738.125,P15,D02,0,0,0
856,-45.0,2.0,45.0,1645184738.15625,P15,D02,0,0,0
857,-45.0,1.0,45.0,1645184738.1875,P15,D02,0,0,0
858,-45.0,1.0,45.0,1645184738.21875,P15,D02,0,0,0
859,-44.0,1.0,46.0,1645184738.25,P15,D02,0,0,0
860,-46.0,2.0,45.0,1645184738.28125,P15,D02,0,0,0
861,-45.0,1.0,45.0,1645184738.3125,P15,D02,0,0,0
862,-45.0,1.0,46.0,1645184738.34375,P15,D02,0,0,0
863,-45.0,1.0,46.0,1645184738.375,P15,D02,0,0,0
864,-45.0,1.0,46.0,1645184738.40625,P15,D02,0,0,0
865,-45.0,1.0,45.0,1645184738.4375,P15,D02,0,0,0
866,-45.0,1.0,45.0,1645184738.46875,P15,D02,0,0,0
867,-45.0,1.0,45.0,1645184738.5,P15,D02,0,0,0
868,-45.0,2.0,45.0,1645184738.53125,P15,D02,0,0,0
869,-45.0,1.0,45.0,1645184738.5625,P15,D02,0,0,0
870,-45.0,1.0,45.0,1645184738.59375,P15,D02,0,0,0
871,-45.0,1.0,45.0,1645184738.625,P15,D02,0,0,0
872,-45.0,1.0,45.0,1645184738.65625,P15,D02,0,0,0
873,-45.0,2.0,46.0,1645184738.6875,P15,D02,0,0,0
874,-45.0,1.0,45.0,1645184738.71875,P15,D02,0,0,0
875,-45.0,1.0,45.0,1645184738.75,P15,D02,0,0,0
876,-45.0,1.0,45.0,1645184738.78125,P15,D02,0,0,0
877,-45.0,1.0,45.0,1645184738.8125,P15,D02,0,0,0
878,-45.0,1.0,46.0,1645184738.84375,P15,D02,0,0,0
879,-45.0,2.0,46.0,1645184738.875,P15,D02,0,0,0
880,-45.0,1.0,45.0,1645184738.90625,P15,D02,0,0,0
881,-45.0,1.0,46.0,1645184738.9375,P15,D02,0,0,0
882,-45.0,1.0,45.0,1645184738.96875,P15,D02,0,0,0
883,-45.0,1.0,45.0,1645184739.0,P15,D02,0,0,0
884,-45.0,2.0,46.0,1645184739.03125,P15,D02,0,0,0
885,-45.0,1.0,45.0,1645184739.0625,P15,D02,0,0,0
886,-45.0,1.0,45.0,1645184739.09375,P15,D02,0,0,0
887,-45.0,2.0,46.0,1645184739.125,P15,D02,0,0,0
888,-45.0,1.0,45.0,1645184739.15625,P15,D02,0,0,0
889,-45.0,1.0,45.0,1645184739.1875,P15,D02,0,0,0
890,-45.0,2.0,46.0,1645184739.21875,P15,D02,0,0,0
891,-45.0,1.0,46.0,1645184739.25,P15,D02,0,0,0
892,-45.0,1.0,46.0,1645184739.28125,P15,D02,0,0,0
893,-45.0,1.0,46.0,1645184739.3125,P15,D02,0,0,0
894,-45.0,1.0,45.0,1645184739.34375,P15,D02,0,0,0
895,-45.0,1.0,45.0,1645184739.375,P15,D02,0,0,0
896,-45.0,1.0,46.0,1645184739.40625,P15,D02,0,0,0
897,-45.0,1.0,45.0,1645184739.4375,P15,D02,0,0,0
898,-45.0,1.0,46.0,1645184739.46875,P15,D02,0,0,0
899,-45.0,1.0,45.0,1645184739.5,P15,D02,0,0,0
900,-45.0,1.0,45.0,1645184739.53125,P15,D02,0,0,0
901,-45.0,1.0,46.0,1645184739.5625,P15,D02,0,0,0
902,-45.0,1.0,46.0,1645184739.59375,P15,D02,0,0,0
903,-45.0,1.0,45.0,1645184739.625,P15,D02,0,0,0
904,-45.0,1.0,46.0,1645184739.65625,P15,D02,0,0,0
905,-44.0,1.0,46.0,1645184739.6875,P15,D02,0,0,0
906,-45.0,1.0,45.0,1645184739.71875,P15,D02,0,0,0
907,-45.0,1.0,46.0,1645184739.75,P15,D02,0,0,0
908,-45.0,1.0,46.0,1645184739.78125,P15,D02,0,0,0
909,-45.0,1.0,45.0,1645184739.8125,P15,D02,0,0,0
910,-45.0,1.0,45.0,1645184739.84375,P15,D02,0,0,0
911,-45.0,1.0,45.0,1645184739.875,P15,D02,0,0,0
912,-45.0,1.0,45.0,1645184739.90625,P15,D02,0,0,0
913,-45.0,1.0,45.0,1645184739.9375,P15,D02,0,0,0
914,-45.0,1.0,45.0,1645184739.96875,P15,D02,0,0,0
915,-45.0,1.0,45.0,1645184740.0,P15,D02,0,0,0
916,-45.0,1.0,46.0,1645184740.03125,P15,D02,0,0,0
917,-45.0,1.0,46.0,1645184740.0625,P15,D02,0,0,0
918,-44.0,1.0,46.0,1645184740.09375,P15,D02,0,0,0
919,-45.0,1.0,46.0,1645184740.125,P15,D02,0,0,0
920,-45.0,1.0,45.0,1645184740.15625,P15,D02,0,0,0
921,-45.0,1.0,45.0,1645184740.1875,P15,D02,0,0,0
922,-44.0,1.0,46.0,1645184740.21875,P15,D02,0,0,0
923,-45.0,1.0,45.0,1645184740.25,P15,D02,0,0,0
924,-45.0,1.0,45.0,1645184740.28125,P15,D02,0,0,0
925,-44.0,1.0,45.0,1645184740.3125,P15,D02,0,0,0
926,-45.0,1.0,46.0,1645184740.34375,P15,D02,0,0,0
927,-45.0,1.0,46.0,1645184740.375,P15,D02,0,0,0
928,-45.0,1.0,46.0,1645184740.40625,P15,D02,0,0,0
929,-44.0,1.0,46.0,1645184740.4375,P15,D02,0,0,0
930,-44.0,1.0,46.0,1645184740.46875,P15,D02,0,0,0
931,-45.0,2.0,45.0,1645184740.5,P15,D02,0,0,0
932,-45.0,1.0,46.0,1645184740.53125,P15,D02,0,0,0
933,-45.0,1.0,46.0,1645184740.5625,P15,D02,0,0,0
934,-44.0,1.0,46.0,1645184740.59375,P15,D02,0,0,0
935,-44.0,1.0,46.0,1645184740.625,P15,D02,0,0,0
936,-45.0,1.0,45.0,1645184740.65625,P15,D02,0,0,0
937,-45.0,1.0,46.0,1645184740.6875,P15,D02,0,0,0
938,-45.0,2.0,46.0,1645184740.71875,P15,D02,0,0,0
939,-45.0,1.0,46.0,1645184740.75,P15,D02,0,0,0
940,-45.0,1.0,45.0,1645184740.78125,P15,D02,0,0,0
941,-44.0,1.0,46.0,1645184740.8125,P15,D02,0,0,0
942,-45.0,1.0,46.0,1645184740.84375,P15,D02,0,0,0
943,-45.0,2.0,46.0,1645184740.875,P15,D02,0,0,0
944,-44.0,1.0,46.0,1645184740.90625,P15,D02,0,0,0
945,-45.0,1.0,46.0,1645184740.9375,P15,D02,0,0,0
946,-45.0,1.0,45.0,1645184740.96875,P15,D02,0,0,0
947,-45.0,1.0,46.0,1645184741.0,P15,D02,0,0,0
948,-44.0,1.0,46.0,1645184741.03125,P15,D02,0,0,0
949,-44.0,2.0,46.0,1645184741.0625,P15,D02,0,0,0
950,-44.0,1.0,46.0,1645184741.09375,P15,D02,0,0,0
951,-45.0,1.0,46.0,1645184741.125,P15,D02,0,0,0
952,-45.0,1.0,46.0,1645184741.15625,P15,D02,0,0,0
953,-45.0,1.0,46.0,1645184741.1875,P15,D02,0,0,0
954,-45.0,1.0,46.0,1645184741.21875,P15,D02,0,0,0
955,-45.0,1.0,46.0,1645184741.25,P15,D02,0,0,0
956,-44.0,1.0,46.0,1645184741.28125,P15,D02,0,0,0
957,-45.0,2.0,46.0,1645184741.3125,P15,D02,0,0,0
958,-45.0,1.0,46.0,1645184741.34375,P15,D02,0,0,0
959,-45.0,1.0,46.0,1645184741.375,P15,D02,0,0,0
960,-44.0,1.0,46.0,1645184741.40625,P15,D02,0,0,0
961,-45.0,1.0,46.0,1645184741.4375,P15,D02,0,0,0
962,-44.0,1.0,46.0,1645184741.46875,P15,D02,0,0,0
963,-45.0,1.0,46.0,1645184741.5,P15,D02,0,0,0
964,-45.0,1.0,46.0,1645184741.53125,P15,D02,0,0,0
965,-44.0,2.0,46.0,1645184741.5625,P15,D02,0,0,0
966,-45.0,1.0,46.0,1645184741.59375,P15,D02,0,0,0
967,-45.0,1.0,45.0,1645184741.625,P15,D02,0,0,0
968,-45.0,2.0,45.0,1645184741.65625,P15,D02,0,0,0
969,-45.0,1.0,46.0,1645184741.6875,P15,D02,0,0,0
970,-45.0,1.0,46.0,1645184741.71875,P15,D02,0,0,0
971,-45.0,2.0,45.0,1645184741.75,P15,D02,0,0,0
972,-45.0,1.0,46.0,1645184741.78125,P15,D02,0,0,0
973,-45.0,1.0,45.0,1645184741.8125,P15,D02,0,0,0
974,-44.0,1.0,46.0,1645184741.84375,P15,D02,0,0,0
975,-44.0,1.0,46.0,1645184741.875,P15,D02,0,0,0
976,-45.0,2.0,45.0,1645184741.90625,P15,D02,0,0,0
977,-45.0,1.0,45.0,1645184741.9375,P15,D02,0,0,0
978,-44.0,1.0,46.0,1645184741.96875,P15,D02,0,0,0
979,-45.0,2.0,46.0,1645184742.0,P15,D02,0,0,0
980,-45.0,1.0,45.0,1645184742.03125,P15,D02,0,0,0
981,-45.0,1.0,46.0,1645184742.0625,P15,D02,0,0,0
982,-44.0,1.0,46.0,1645184742.09375,P15,D02,0,0,0
983,-45.0,2.0,45.0,1645184742.125,P15,D02,0,0,0
984,-44.0,1.0,46.0,1645184742.15625,P15,D02,0,0,0
985,-45.0,1.0,45.0,1645184742.1875,P15,D02,0,0,0
986,-45.0,1.0,46.0,1645184742.21875,P15,D02,0,0,0
987,-45.0,1.0,45.0,1645184742.25,P15,D02,0,0,0
988,-45.0,1.0,46.0,1645184742.28125,P15,D02,0,0,0
989,-45.0,1.0,46.0,1645184742.3125,P15,D02,0,0,0
990,-45.0,2.0,45.0,1645184742.34375,P15,D02,0,0,0
991,-45.0,2.0,45.0,1645184742.375,P15,D02,0,0,0
992,-45.0,1.0,45.0,1645184742.40625,P15,D02,0,0,0
993,-44.0,1.0,46.0,1645184742.4375,P15,D02,0,0,0
994,-45.0,1.0,46.0,1645184742.46875,P15,D02,0,0,0
995,-45.0,1.0,45.0,1645184742.5,P15,D02,0,0,0
996,-45.0,2.0,45.0,1645184742.53125,P15,D02,0,0,0
997,-44.0,1.0,46.0,1645184742.5625,P15,D02,0,0,0
998,-45.0,1.0,45.0,1645184742.59375,P15,D02,0,0,0
999,-45.0,1.0,45.0,1645184742.625,P15,D02,0,0,0
1000,-45.0,1.0,45.0,1645184742.65625,P15,D02,0,0,0
1001,-45.0,1.0,45.0,1645184742.6875,P15,D02,0,0,0
1002,-45.0,1.0,46.0,1645184742.71875,P15,D02,0,0,0
1003,-45.0,1.0,45.0,1645184742.75,P15,D02,0,0,0
1004,-45.0,1.0,45.0,1645184742.78125,P15,D02,0,0,0
1005,-45.0,2.0,45.0,1645184742.8125,P15,D02,0,0,0
1006,-45.0,2.0,46.0,1645184742.84375,P15,D02,0,0,0
1007,-45.0,1.0,45.0,1645184742.875,P15,D02,0,0,0
1008,-45.0,1.0,45.0,1645184742.90625,P15,D02,0,0,0
1009,-45.0,1.0,45.0,1645184742.9375,P15,D02,0,0,0
1010,-45.0,1.0,45.0,1645184742.96875,P15,D02,0,0,0
1011,-45.0,1.0,46.0,1645184743.0,P15,D02,0,0,0
1012,-45.0,1.0,46.0,1645184743.03125,P15,D02,0,0,0
1013,-45.0,1.0,46.0,1645184743.0625,P15,D02,0,0,0
1014,-45.0,1.0,46.0,1645184743.09375,P15,D02,0,0,0
1015,-45.0,1.0,45.0,1645184743.125,P15,D02,0,0,0
1016,-45.0,1.0,46.0,1645184743.15625,P15,D02,0,0,0
1017,-45.0,1.0,45.0,1645184743.1875,P15,D02,0,0,0
1018,-45.0,2.0,45.0,1645184743.21875,P15,D02,0,0,0
1019,-45.0,1.0,45.0,1645184743.25,P15,D02,0,0,0
1020,-45.0,1.0,45.0,1645184743.28125,P15,D02,0,0,0
1021,-45.0,1.0,45.0,1645184743.3125,P15,D02,0,0,0
1022,-45.0,1.0,45.0,1645184743.34375,P15,D02,0,0,0
1023,-45.0,1.0,45.0,1645184743.375,P15,D02,0,0,0
1024,-45.0,1.0,45.0,1645184743.40625,P15,D02,0,0,0
1025,-45.0,1.0,45.0,1645184743.4375,P15,D02,0,0,0
1026,-45.0,1.0,45.0,1645184743.46875,P15,D02,0,0,0
1027,-45.0,1.0,45.0,1645184743.5,P15,D02,0,0,0
1028,-45.0,1.0,45.0,1645184743.53125,P15,D02,0,0,0
1029,-45.0,1.0,45.0,1645184743.5625,P15,D02,0,0,0
1030,-45.0,2.0,46.0,1645184743.59375,P15,D02,0,0,0
1031,-44.0,1.0,46.0,1645184743.625,P15,D02,0,0,0
1032,-45.0,1.0,46.0,1645184743.65625,P15,D02,0,0,0
1033,-45.0,1.0,45.0,1645184743.6875,P15,D02,0,0,0
1034,-45.0,1.0,46.0,1645184743.71875,P15,D02,0,0,0
1035,-45.0,1.0,46.0,1645184743.75,P15,D02,0,0,0
1036,-45.0,1.0,45.0,1645184743.78125,P15,D02,0,0,0
1037,-45.0,1.0,45.0,1645184743.8125,P15,D02,0,0,0
1038,-45.0,1.0,45.0,1645184743.84375,P15,D02,0,0,0
1039,-45.0,1.0,46.0,1645184743.875,P15,D02,0,0,0
1040,-45.0,1.0,45.0,1645184743.90625,P15,D02,0,0,0
1041,-45.0,1.0,46.0,1645184743.9375,P15,D02,0,0,0
1042,-44.0,1.0,46.0,1645184743.96875,P15,D02,0,0,0
1043,-45.0,1.0,46.0,1645184744.0,P15,D02,0,0,0
1044,-45.0,2.0,46.0,1645184744.03125,P15,D02,0,0,0
1045,-45.0,2.0,46.0,1645184744.0625,P15,D02,0,0,0
1046,-45.0,1.0,45.0,1645184744.09375,P15,D02,0,0,0
1047,-45.0,1.0,45.0,1645184744.125,P15,D02,0,0,0
1048,-45.0,1.0,46.0,1645184744.15625,P15,D02,0,0,0
1049,-45.0,1.0,45.0,1645184744.1875,P15,D02,0,0,0
1050,-44.0,1.0,46.0,1645184744.21875,P15,D02,0,0,0
1051,-44.0,1.0,46.0,1645184744.25,P15,D02,0,0,0
1052,-45.0,1.0,45.0,1645184744.28125,P15,D02,0,0,0
1053,-45.0,1.0,46.0,1645184744.3125,P15,D02,0,0,0
1054,-44.0,1.0,46.0,1645184744.34375,P15,D02,0,0,0
1055,-45.0,1.0,45.0,1645184744.375,P15,D02,0,0,0
1056,-45.0,1.0,45.0,1645184744.40625,P15,D02,0,0,0
1057,-45.0,1.0,45.0,1645184744.4375,P15,D02,0,0,0
1058,-45.0,1.0,46.0,1645184744.46875,P15,D02,0,0,0
1059,-45.0,1.0,45.0,1645184744.5,P15,D02,0,0,0
1060,-45.0,1.0,45.0,1645184744.53125,P15,D02,0,0,0
1061,-45.0,1.0,46.0,1645184744.5625,P15,D02,0,0,0
1062,-45.0,1.0,45.0,1645184744.59375,P15,D02,0,0,0
1063,-45.0,1.0,45.0,1645184744.625,P15,D02,0,0,0
1064,-44.0,1.0,46.0,1645184744.65625,P15,D02,0,0,0
1065,-45.0,1.0,46.0,1645184744.6875,P15,D02,0,0,0
1066,-44.0,1.0,46.0,1645184744.71875,P15,D02,0,0,0
1067,-44.0,1.0,46.0,1645184744.75,P15,D02,0,0,0
1068,-45.0,1.0,46.0,1645184744.78125,P15,D02,0,0,0
1069,-45.0,1.0,46.0,1645184744.8125,P15,D02,0,0,0
1070,-44.0,1.0,46.0,1645184744.84375,P15,D02,0,0,0
1071,-45.0,1.0,46.0,1645184744.875,P15,D02,0,0,0
1072,-45.0,1.0,45.0,1645184744.90625,P15,D02,0,0,0
1073,-44.0,1.0,46.0,1645184744.9375,P15,D02,0,0,0
1074,-45.0,1.0,46.0,1645184744.96875,P15,D02,0,0,0
1075,-45.0,1.0,45.0,1645184745.0,P15,D02,0,0,0
1076,-44.0,1.0,46.0,1645184745.03125,P15,D02,0,0,0
1077,-45.0,1.0,46.0,1645184745.0625,P15,D02,0,0,0
1078,-45.0,1.0,46.0,1645184745.09375,P15,D02,0,0,0
1079,-44.0,1.0,46.0,1645184745.125,P15,D02,0,0,0
1080,-45.0,1.0,46.0,1645184745.15625,P15,D02,0,0,0
1081,-44.0,1.0,46.0,1645184745.1875,P15,D02,0,0,0
1082,-45.0,2.0,46.0,1645184745.21875,P15,D02,0,0,0
1083,-45.0,1.0,46.0,1645184745.25,P15,D02,0,0,0
1084,-45.0,1.0,46.0,1645184745.28125,P15,D02,0,0,0
1085,-44.0,2.0,46.0,1645184745.3125,P15,D02,0,0,0
1086,-45.0,2.0,45.0,1645184745.34375,P15,D02,0,0,0
1087,-45.0,1.0,46.0,1645184745.375,P15,D02,0,0,0
1088,-44.0,1.0,46.0,1645184745.40625,P15,D02,0,0,0
1089,-45.0,1.0,46.0,1645184745.4375,P15,D02,0,0,0
1090,-44.0,1.0,46.0,1645184745.46875,P15,D02,0,0,0
1091,-44.0,1.0,46.0,1645184745.5,P15,D02,0,0,0
1092,-44.0,1.0,46.0,1645184745.53125,P15,D02,0,0,0
1093,-45.0,2.0,46.0,1645184745.5625,P15,D02,0,0,0
1094,-44.0,1.0,46.0,1645184745.59375,P15,D02,0,0,0
1095,-44.0,1.0,46.0,1645184745.625,P15,D02,0,0,0
1096,-45.0,1.0,46.0,1645184745.65625,P15,D02,0,0,0
1097,-44.0,1.0,46.0,1645184745.6875,P15,D02,0,0,0
1098,-44.0,1.0,46.0,1645184745.71875,P15,D02,0,0,0
1099,-45.0,1.0,46.0,1645184745.75,P15,D02,0,0,0
1100,-44.0,2.0,46.0,1645184745.78125,P15,D02,0,0,0
1101,-44.0,1.0,46.0,1645184745.8125,P15,D02,0,0,0
1102,-45.0,1.0,46.0,1645184745.84375,P15,D02,0,0,0
1103,-45.0,2.0,46.0,1645184745.875,P15,D02,0,0,0
1104,-45.0,1.0,46.0,1645184745.90625,P15,D02,0,0,0
1105,-44.0,1.0,46.0,1645184745.9375,P15,D02,0,0,0
1106,-44.0,1.0,46.0,1645184745.96875,P15,D02,0,0,0
1107,-45.0,1.0,46.0,1645184746.0,P15,D02,0,0,0
1108,-45.0,2.0,46.0,1645184746.03125,P15,D02,0,0,0
1109,-45.0,1.0,46.0,1645184746.0625,P15,D02,0,0,0
1110,-45.0,1.0,46.0,1645184746.09375,P15,D02,0,0,0
1111,-45.0,1.0,46.0,1645184746.125,P15,D02,0,0,0
1112,-45.0,1.0,46.0,1645184746.15625,P15,D02,0,0,0
1113,-45.0,1.0,46.0,1645184746.1875,P15,D02,0,0,0
1114,-45.0,1.0,46.0,1645184746.21875,P15,D02,0,0,0
1115,-45.0,1.0,46.0,1645184746.25,P15,D02,0,0,0
1116,-45.0,1.0,46.0,1645184746.28125,P15,D02,0,0,0
1117,-45.0,1.0,46.0,1645184746.3125,P15,D02,0,0,0
1118,-45.0,2.0,46.0,1645184746.34375,P15,D02,0,0,0
1119,-45.0,1.0,46.0,1645184746.375,P15,D02,0,0,0
1120,-45.0,1.0,46.0,1645184746.40625,P15,D02,0,0,0
1121,-45.0,1.0,46.0,1645184746.4375,P15,D02,0,0,0
1122,-45.0,1.0,46.0,1645184746.46875,P15,D02,0,0,0
1123,-45.0,1.0,45.0,1645184746.5,P15,D02,0,0,0
1124,-44.0,1.0,46.0,1645184746.53125,P15,D02,0,0,0
1125,-44.0,2.0,46.0,1645184746.5625,P15,D02,0,0,0
1126,-45.0,1.0,45.0,1645184746.59375,P15,D02,0,0,0
1127,-44.0,1.0,46.0,1645184746.625,P15,D02,0,0,0
1128,-45.0,1.0,46.0,1645184746.65625,P15,D02,0,0,0
1129,-45.0,1.0,45.0,1645184746.6875,P15,D02,0,0,0
1130,-44.0,1.0,46.0,1645184746.71875,P15,D02,0,0,0
1131,-45.0,1.0,45.0,1645184746.75,P15,D02,0,0,0
1132,-45.0,1.0,46.0,1645184746.78125,P15,D02,0,0,0
1133,-44.0,1.0,46.0,1645184746.8125,P15,D02,0,0,0
1134,-45.0,1.0,46.0,1645184746.84375,P15,D02,0,0,0
1135,-45.0,1.0,45.0,1645184746.875,P15,D02,0,0,0
1136,-44.0,1.0,46.0,1645184746.90625,P15,D02,0,0,0
1137,-45.0,1.0,46.0,1645184746.9375,P15,D02,0,0,0
1138,-45.0,1.0,46.0,1645184746.96875,P15,D02,0,0,0
1139,-45.0,1.0,46.0,1645184747.0,P15,D02,0,0,0
1140,-45.0,1.0,45.0,1645184747.03125,P15,D02,0,0,0
1141,-45.0,1.0,45.0,1645184747.0625,P15,D02,0,0,0
1142,-45.0,1.0,46.0,1645184747.09375,P15,D02,0,0,0
1143,-45.0,1.0,46.0,1645184747.125,P15,D02,0,0,0
1144,-44.0,1.0,45.0,1645184747.15625,P15,D02,0,0,0
1145,-45.0,1.0,45.0,1645184747.1875,P15,D02,0,0,0
1146,-45.0,1.0,46.0,1645184747.21875,P15,D02,0,0,0
1147,-44.0,1.0,45.0,1645184747.25,P15,D02,0,0,0
1148,-45.0,1.0,45.0,1645184747.28125,P15,D02,0,0,0
1149,-45.0,1.0,45.0,1645184747.3125,P15,D02,0,0,0
1150,-45.0,1.0,45.0,1645184747.34375,P15,D02,0,0,0
1151,-45.0,1.0,46.0,1645184747.375,P15,D02,0,0,0
1152,-45.0,1.0,46.0,1645184747.40625,P15,D02,0,0,0
1153,-45.0,1.0,45.0,1645184747.4375,P15,D02,0,0,0
1154,-45.0,1.0,45.0,1645184747.46875,P15,D02,0,0,0
1155,-45.0,1.0,46.0,1645184747.5,P15,D02,0,0,0
1156,-45.0,1.0,45.0,1645184747.53125,P15,D02,0,0,0
1157,-45.0,1.0,45.0,1645184747.5625,P15,D02,0,0,0
1158,-45.0,1.0,45.0,1645184747.59375,P15,D02,0,0,0
1159,-45.0,1.0,45.0,1645184747.625,P15,D02,0,0,0
1160,-45.0,1.0,46.0,1645184747.65625,P15,D02,0,0,0
1161,-45.0,1.0,45.0,1645184747.6875,P15,D02,0,0,0
1162,-44.0,1.0,46.0,1645184747.71875,P15,D02,0,0,0
1163,-45.0,1.0,45.0,1645184747.75,P15,D02,0,0,0
1164,-45.0,1.0,45.0,1645184747.78125,P15,D02,0,0,0
1165,-44.0,1.0,46.0,1645184747.8125,P15,D02,0,0,0
1166,-45.0,1.0,46.0,1645184747.84375,P15,D02,0,0,0
1167,-45.0,1.0,45.0,1645184747.875,P15,D02,0,0,0
1168,-45.0,1.0,45.0,1645184747.90625,P15,D02,0,0,0
1169,-45.0,1.0,45.0,1645184747.9375,P15,D02,0,0,0
1170,-45.0,1.0,45.0,1645184747.96875,P15,D02,0,0,0
1171,-44.0,1.0,46.0,1645184748.0,P15,D02,0,0,0
1172,-45.0,1.0,45.0,1645184748.03125,P15,D02,0,0,0
1173,-45.0,1.0,46.0,1645184748.0625,P15,D02,0,0,0
1174,-45.0,2.0,45.0,1645184748.09375,P15,D02,0,0,0
1175,-45.0,1.0,45.0,1645184748.125,P15,D02,0,0,0
1176,-45.0,1.0,45.0,1645184748.15625,P15,D02,0,0,0
1177,-45.0,1.0,45.0,1645184748.1875,P15,D02,0,0,0
1178,-45.0,1.0,45.0,1645184748.21875,P15,D02,0,0,0
1179,-45.0,1.0,46.0,1645184748.25,P15,D02,0,0,0
1180,-45.0,1.0,45.0,1645184748.28125,P15,D02,0,0,0
1181,-45.0,1.0,46.0,1645184748.3125,P15,D02,0,0,0
1182,-45.0,1.0,46.0,1645184748.34375,P15,D02,0,0,0
1183,-45.0,1.0,45.0,1645184748.375,P15,D02,0,0,0
1184,-45.0,1.0,46.0,1645184748.40625,P15,D02,0,0,0
1185,-44.0,1.0,46.0,1645184748.4375,P15,D02,0,0,0
1186,-45.0,1.0,45.0,1645184748.46875,P15,D02,0,0,0
1187,-45.0,1.0,46.0,1645184748.5,P15,D02,0,0,0
1188,-44.0,1.0,46.0,1645184748.53125,P15,D02,0,0,0
1189,-45.0,1.0,46.0,1645184748.5625,P15,D02,0,0,0
1190,-45.0,1.0,46.0,1645184748.59375,P15,D02,0,0,0
1191,-44.0,1.0,46.0,1645184748.625,P15,D02,0,0,0
1192,-44.0,1.0,46.0,1645184748.65625,P15,D02,0,0,0
1193,-44.0,1.0,46.0,1645184748.6875,P15,D02,0,0,0
1194,-44.0,1.0,46.0,1645184748.71875,P15,D02,0,0,0
1195,-45.0,1.0,46.0,1645184748.75,P15,D02,0,0,0
1196,-45.0,1.0,46.0,1645184748.78125,P15,D02,0,0,0
1197,-44.0,1.0,46.0,1645184748.8125,P15,D02,0,0,0
1198,-45.0,1.0,46.0,1645184748.84375,P15,D02,0,0,0
1199,-45.0,1.0,46.0,1645184748.875,P15,D02,0,0,0
1200,-44.0,1.0,46.0,1645184748.90625,P15,D02,0,0,0
1201,-44.0,1.0,46.0,1645184748.9375,P15,D02,0,0,0
1202,-45.0,2.0,46.0,1645184748.96875,P15,D02,0,0,0
1203,-44.0,1.0,46.0,1645184749.0,P15,D02,0,0,0
1204,-45.0,1.0,46.0,1645184749.03125,P15,D02,0,0,0
1205,-45.0,2.0,46.0,1645184749.0625,P15,D02,0,0,0
1206,-44.0,1.0,46.0,1645184749.09375,P15,D02,0,0,0
1207,-45.0,1.0,46.0,1645184749.125,P15,D02,0,0,0
1208,-44.0,1.0,46.0,1645184749.15625,P15,D02,0,0,0
1209,-44.0,2.0,46.0,1645184749.1875,P15,D02,0,0,0
1210,-44.0,1.0,46.0,1645184749.21875,P15,D02,0,0,0
1211,-45.0,1.0,46.0,1645184749.25,P15,D02,0,0,0
1212,-44.0,1.0,46.0,1645184749.28125,P15,D02,0,0,0
1213,-44.0,2.0,46.0,1645184749.3125,P15,D02,0,0,0
1214,-45.0,1.0,46.0,1645184749.34375,P15,D02,0,0,0
1215,-45.0,1.0,46.0,1645184749.375,P15,D02,0,0,0
1216,-44.0,1.0,46.0,1645184749.40625,P15,D02,0,0,0
1217,-44.0,1.0,46.0,1645184749.4375,P15,D02,0,0,0
1218,-44.0,1.0,46.0,1645184749.46875,P15,D02,0,0,0
1219,-44.0,1.0,46.0,1645184749.5,P15,D02,0,0,0
1220,-44.0,2.0,46.0,1645184749.53125,P15,D02,0,0,0
1221,-45.0,1.0,46.0,1645184749.5625,P15,D02,0,0,0
1222,-44.0,1.0,46.0,1645184749.59375,P15,D02,0,0,0
1223,-44.0,1.0,46.0,1645184749.625,P15,D02,0,0,0
1224,-44.0,1.0,46.0,1645184749.65625,P15,D02,0,0,0
1225,-44.0,1.0,46.0,1645184749.6875,P15,D02,0,0,0
1226,-44.0,1.0,46.0,1645184749.71875,P15,D02,0,0,0
1227,-44.0,1.0,46.0,1645184749.75,P15,D02,0,0,0
1228,-44.0,1.0,46.0,1645184749.78125,P15,D02,0,0,0
1229,-45.0,1.0,46.0,1645184749.8125,P15,D02,0,0,0
1230,-45.0,1.0,46.0,1645184749.84375,P15,D02,0,0,0
1231,-45.0,2.0,46.0,1645184749.875,P15,D02,0,0,0
1232,-44.0,1.0,46.0,1645184749.90625,P15,D02,0,0,0
1233,-45.0,1.0,46.0,1645184749.9375,P15,D02,0,0,0
1234,-45.0,1.0,46.0,1645184749.96875,P15,D02,0,0,0
1235,-45.0,1.0,46.0,1645184750.0,P15,D02,0,0,0
1236,-45.0,2.0,46.0,1645184750.03125,P15,D02,0,0,0
1237,-44.0,1.0,46.0,1645184750.0625,P15,D02,0,0,0
1238,-44.0,1.0,46.0,1645184750.09375,P15,D02,0,0,0
1239,-45.0,1.0,46.0,1645184750.125,P15,D02,0,0,0
1240,-45.0,1.0,46.0,1645184750.15625,P15,D02,0,0,0
1241,-44.0,1.0,46.0,1645184750.1875,P15,D02,0,0,0
1242,-45.0,1.0,46.0,1645184750.21875,P15,D02,0,0,0
1243,-45.0,1.0,46.0,1645184750.25,P15,D02,0,0,0
1244,-44.0,1.0,46.0,1645184750.28125,P15,D02,0,0,0
1245,-44.0,1.0,46.0,1645184750.3125,P15,D02,0,0,0
1246,-44.0,1.0,46.0,1645184750.34375,P15,D02,0,0,0
1247,-45.0,1.0,46.0,1645184750.375,P15,D02,0,0,0
1248,-44.0,1.0,46.0,1645184750.40625,P15,D02,0,0,0
1249,-45.0,1.0,46.0,1645184750.4375,P15,D02,0,0,0
1250,-44.0,1.0,46.0,1645184750.46875,P15,D02,0,0,0
1251,-44.0,1.0,46.0,1645184750.5,P15,D02,0,0,0
1252,-45.0,1.0,45.0,1645184750.53125,P15,D02,0,0,0
1253,-45.0,1.0,46.0,1645184750.5625,P15,D02,0,0,0
1254,-45.0,1.0,46.0,1645184750.59375,P15,D02,0,0,0
1255,-45.0,1.0,46.0,1645184750.625,P15,D02,0,0,0
1256,-44.0,1.0,46.0,1645184750.65625,P15,D02,0,0,0
1257,-45.0,1.0,46.0,1645184750.6875,P15,D02,0,0,0
1258,-45.0,1.0,46.0,1645184750.71875,P15,D02,0,0,0
1259,-44.0,1.0,46.0,1645184750.75,P15,D02,0,0,0
1260,-45.0,1.0,45.0,1645184750.78125,P15,D02,0,0,0
1261,-44.0,1.0,46.0,1645184750.8125,P15,D02,0,0,0
1262,-45.0,1.0,46.0,1645184750.84375,P15,D02,0,0,0
1263,-45.0,1.0,46.0,1645184750.875,P15,D02,0,0,0
1264,-45.0,1.0,46.0,1645184750.90625,P15,D02,0,0,0
1265,-44.0,1.0,45.0,1645184750.9375,P15,D02,0,0,0
1266,-45.0,1.0,46.0,1645184750.96875,P15,D02,0,0,0
1267,-45.0,1.0,46.0,1645184751.0,P15,D02,0,0,0
1268,-45.0,1.0,45.0,1645184751.03125,P15,D02,0,0,0
1269,-45.0,2.0,46.0,1645184751.0625,P15,D02,0,0,0
1270,-45.0,1.0,46.0,1645184751.09375,P15,D02,0,0,0
1271,-45.0,1.0,46.0,1645184751.125,P15,D02,0,0,0
1272,-45.0,1.0,45.0,1645184751.15625,P15,D02,0,0,0
1273,-45.0,1.0,46.0,1645184751.1875,P15,D02,0,0,0
1274,-44.0,1.0,46.0,1645184751.21875,P15,D02,0,0,0
1275,-45.0,1.0,45.0,1645184751.25,P15,D02,0,0,0
1276,-45.0,1.0,45.0,1645184751.28125,P15,D02,0,0,0
1277,-45.0,1.0,46.0,1645184751.3125,P15,D02,0,0,0
1278,-45.0,1.0,46.0,1645184751.34375,P15,D02,0,0,0
1279,-45.0,1.0,45.0,1645184751.375,P15,D02,0,0,0
1280,-44.0,1.0,46.0,1645184751.40625,P15,D02,0,0,0
1281,-45.0,1.0,46.0,1645184751.4375,P15,D02,0,0,0
1282,-45.0,1.0,46.0,1645184751.46875,P15,D02,0,0,0
1283,-44.0,1.0,46.0,1645184751.5,P15,D02,0,0,0
1284,-45.0,1.0,46.0,1645184751.53125,P15,D02,0,0,0
1285,-45.0,1.0,46.0,1645184751.5625,P15,D02,0,0,0
1286,-44.0,1.0,46.0,1645184751.59375,P15,D02,0,0,0
1287,-45.0,1.0,46.0,1645184751.625,P15,D02,0,0,0
1288,-45.0,1.0,45.0,1645184751.65625,P15,D02,0,0,0
1289,-45.0,1.0,46.0,1645184751.6875,P15,D02,0,0,0
1290,-45.0,1.0,46.0,1645184751.71875,P15,D02,0,0,0
1291,-45.0,1.0,45.0,1645184751.75,P15,D02,0,0,0
1292,-44.0,1.0,46.0,1645184751.78125,P15,D02,0,0,0
1293,-44.0,1.0,46.0,1645184751.8125,P15,D02,0,0,0
1294,-45.0,1.0,45.0,1645184751.84375,P15,D02,0,0,0
1295,-44.0,1.0,45.0,1645184751.875,P15,D02,0,0,0
1296,-45.0,1.0,46.0,1645184751.90625,P15,D02,0,0,0
1297,-45.0,1.0,45.0,1645184751.9375,P15,D02,0,0,0
1298,-45.0,1.0,45.0,1645184751.96875,P15,D02,0,0,0
1299,-45.0,1.0,46.0,1645184752.0,P15,D02,0,0,0
1300,-45.0,1.0,45.0,1645184752.03125,P15,D02,0,0,0
1301,-45.0,1.0,45.0,1645184752.0625,P15,D02,0,0,0
1302,-45.0,1.0,46.0,1645184752.09375,P15,D02,0,0,0
1303,-45.0,1.0,46.0,1645184752.125,P15,D02,0,0,0
1304,-45.0,1.0,45.0,1645184752.15625,P15,D02,0,0,0
1305,-45.0,1.0,46.0,1645184752.1875,P15,D02,0,0,0
1306,-45.0,1.0,46.0,1645184752.21875,P15,D02,0,0,0
1307,-45.0,2.0,45.0,1645184752.25,P15,D02,0,0,0
1308,-45.0,1.0,45.0,1645184752.28125,P15,D02,0,0,0
1309,-45.0,1.0,45.0,1645184752.3125,P15,D02,0,0,0
1310,-45.0,1.0,46.0,1645184752.34375,P15,D02,0,0,0
1311,-44.0,1.0,46.0,1645184752.375,P15,D02,0,0,0
1312,-45.0,1.0,45.0,1645184752.40625,P15,D02,0,0,0
1313,-45.0,1.0,46.0,1645184752.4375,P15,D02,0,0,0
1314,-44.0,1.0,46.0,1645184752.46875,P15,D02,0,0,0
1315,-45.0,1.0,46.0,1645184752.5,P15,D02,0,0,0
1316,-45.0,1.0,46.0,1645184752.53125,P15,D02,0,0,0
1317,-45.0,1.0,46.0,1645184752.5625,P15,D02,0,0,0
1318,-44.0,1.0,46.0,1645184752.59375,P15,D02,0,0,0
1319,-44.0,1.0,46.0,1645184752.625,P15,D02,0,0,0
1320,-45.0,2.0,45.0,1645184752.65625,P15,D02,0,0,0
1321,-44.0,1.0,46.0,1645184752.6875,P15,D02,0,0,0
1322,-45.0,1.0,46.0,1645184752.71875,P15,D02,0,0,0
1323,-45.0,1.0,46.0,1645184752.75,P15,D02,0,0,0
1324,-44.0,1.0,46.0,1645184752.78125,P15,D02,0,0,0
1325,-45.0,1.0,46.0,1645184752.8125,P15,D02,0,0,0
1326,-45.0,1.0,46.0,1645184752.84375,P15,D02,0,0,0
1327,-45.0,1.0,46.0,1645184752.875,P15,D02,0,0,0
1328,-45.0,1.0,46.0,1645184752.90625,P15,D02,0,0,0
1329,-44.0,1.0,46.0,1645184752.9375,P15,D02,0,0,0
1330,-45.0,1.0,46.0,1645184752.96875,P15,D02,0,0,0
1331,-44.0,2.0,46.0,1645184753.0,P15,D02,0,0,0
1332,-44.0,1.0,46.0,1645184753.03125,P15,D02,0,0,0
1333,-45.0,1.0,46.0,1645184753.0625,P15,D02,0,0,0
1334,-44.0,1.0,46.0,1645184753.09375,P15,D02,0,0,0
1335,-44.0,1.0,46.0,1645184753.125,P15,D02,0,0,0
1336,-45.0,1.0,46.0,1645184753.15625,P15,D02,0,0,0
1337,-44.0,1.0,46.0,1645184753.1875,P15,D02,0,0,0
1338,-45.0,1.0,46.0,1645184753.21875,P15,D02,0,0,0
1339,-45.0,1.0,46.0,1645184753.25,P15,D02,0,0,0
1340,-44.0,1.0,46.0,1645184753.28125,P15,D02,0,0,0
1341,-45.0,1.0,46.0,1645184753.3125,P15,D02,0,0,0
1342,-45.0,1.0,46.0,1645184753.34375,P15,D02,0,0,0
1343,-45.0,1.0,46.0,1645184753.375,P15,D02,0,0,0
1344,-45.0,1.0,46.0,1645184753.40625,P15,D02,0,0,0
1345,-45.0,1.0,46.0,1645184753.4375,P15,D02,0,0,0
1346,-45.0,1.0,46.0,1645184753.46875,P15,D02,0,0,0
1347,-44.0,1.0,46.0,1645184753.5,P15,D02,0,0,0
1348,-45.0,1.0,46.0,1645184753.53125,P15,D02,0,0,0
1349,-44.0,1.0,46.0,1645184753.5625,P15,D02,0,0,0
1350,-44.0,1.0,46.0,1645184753.59375,P15,D02,0,0,0
1351,-45.0,1.0,46.0,1645184753.625,P15,D02,0,0,0
1352,-44.0,1.0,46.0,1645184753.65625,P15,D02,0,0,0
1353,-44.0,1.0,46.0,1645184753.6875,P15,D02,0,0,0
1354,-44.0,1.0,46.0,1645184753.71875,P15,D02,0,0,0
1355,-44.0,1.0,46.0,1645184753.75,P15,D02,0,0,0
1356,-45.0,1.0,46.0,1645184753.78125,P15,D02,0,0,0
1357,-45.0,1.0,46.0,1645184753.8125,P15,D02,0,0,0
1358,-45.0,1.0,46.0,1645184753.84375,P15,D02,0,0,0
1359,-45.0,1.0,46.0,1645184753.875,P15,D02,0,0,0
1360,-45.0,1.0,46.0,1645184753.90625,P15,D02,0,0,0
1361,-45.0,1.0,45.0,1645184753.9375,P15,D02,0,0,0
1362,-44.0,1.0,46.0,1645184753.96875,P15,D02,0,0,0
1363,-45.0,1.0,46.0,1645184754.0,P15,D02,0,0,0
1364,-44.0,1.0,46.0,1645184754.03125,P15,D02,0,0,0
1365,-44.0,1.0,46.0,1645184754.0625,P15,D02,0,0,0
1366,-45.0,1.0,46.0,1645184754.09375,P15,D02,0,0,0
1367,-45.0,1.0,46.0,1645184754.125,P15,D02,0,0,0
1368,-44.0,1.0,46.0,1645184754.15625,P15,D02,0,0,0
1369,-45.0,1.0,46.0,1645184754.1875,P15,D02,0,0,0
1370,-44.0,1.0,46.0,1645184754.21875,P15,D02,0,0,0
1371,-45.0,1.0,46.0,1645184754.25,P15,D02,0,0,0
1372,-45.0,1.0,46.0,1645184754.28125,P15,D02,0,0,0
1373,-45.0,1.0,46.0,1645184754.3125,P15,D02,0,0,0
1374,-45.0,1.0,46.0,1645184754.34375,P15,D02,0,0,0
1375,-44.0,1.0,46.0,1645184754.375,P15,D02,0,0,0
1376,-45.0,1.0,46.0,1645184754.40625,P15,D02,0,0,0
1377,-45.0,1.0,46.0,1645184754.4375,P15,D02,0,0,0
1378,-45.0,1.0,46.0,1645184754.46875,P15,D02,0,0,0
1379,-45.0,1.0,45.0,1645184754.5,P15,D02,0,0,0
1380,-45.0,1.0,46.0,1645184754.53125,P15,D02,0,0,0
1381,-45.0,1.0,45.0,1645184754.5625,P15,D02,0,0,0
1382,-44.0,1.0,46.0,1645184754.59375,P15,D02,0,0,0
1383,-44.0,1.0,46.0,1645184754.625,P15,D02,0,0,0
1384,-45.0,1.0,45.0,1645184754.65625,P15,D02,0,0,0
1385,-45.0,1.0,45.0,1645184754.6875,P15,D02,0,0,0
1386,-44.0,1.0,46.0,1645184754.71875,P15,D02,0,0,0
1387,-45.0,1.0,45.0,1645184754.75,P15,D02,0,0,0
1388,-45.0,1.0,46.0,1645184754.78125,P15,D02,0,0,0
1389,-45.0,1.0,46.0,1645184754.8125,P15,D02,0,0,0
1390,-45.0,1.0,45.0,1645184754.84375,P15,D02,0,0,0
1391,-45.0,2.0,46.0,1645184754.875,P15,D02,0,0,0
1392,-45.0,1.0,46.0,1645184754.90625,P15,D02,0,0,0
1393,-45.0,1.0,45.0,1645184754.9375,P15,D02,0,0,0
1394,-45.0,1.0,45.0,1645184754.96875,P15,D02,0,0,0
1395,-45.0,1.0,46.0,1645184755.0,P15,D02,0,0,0
1396,-45.0,1.0,45.0,1645184755.03125,P15,D02,0,0,0
1397,-45.0,1.0,46.0,1645184755.0625,P15,D02,0,0,0
1398,-45.0,2.0,46.0,1645184755.09375,P15,D02,0,0,0
1399,-45.0,1.0,45.0,1645184755.125,P15,D02,0,0,0
1400,-45.0,1.0,46.0,1645184755.15625,P15,D02,0,0,0
1401,-44.0,1.0,46.0,1645184755.1875,P15,D02,0,0,0
1402,-44.0,1.0,46.0,1645184755.21875,P15,D02,0,0,0
1403,-45.0,1.0,45.0,1645184755.25,P15,D02,0,0,0
1404,-44.0,1.0,46.0,1645184755.28125,P15,D02,0,0,0
1405,-44.0,1.0,46.0,1645184755.3125,P15,D02,0,0,0
1406,-45.0,1.0,45.0,1645184755.34375,P15,D02,0,0,0
1407,-45.0,1.0,45.0,1645184755.375,P15,D02,0,0,0
1408,-45.0,1.0,45.0,1645184755.40625,P15,D02,0,0,0
1409,-45.0,1.0,46.0,1645184755.4375,P15,D02,0,0,0
1410,-44.0,1.0,46.0,1645184755.46875,P15,D02,0,0,0
1411,-45.0,1.0,46.0,1645184755.5,P15,D02,0,0,0
1412,-45.0,1.0,46.0,1645184755.53125,P15,D02,0,0,0
1413,-45.0,1.0,46.0,1645184755.5625,P15,D02,0,0,0
1414,-45.0,1.0,45.0,1645184755.59375,P15,D02,0,0,0
1415,-45.0,1.0,45.0,1645184755.625,P15,D02,0,0,0
1416,-45.0,1.0,45.0,1645184755.65625,P15,D02,0,0,0
1417,-45.0,1.0,46.0,1645184755.6875,P15,D02,0,0,0
1418,-45.0,1.0,45.0,1645184755.71875,P15,D02,0,0,0
1419,-45.0,1.0,45.0,1645184755.75,P15,D02,0,0,0
1420,-44.0,1.0,46.0,1645184755.78125,P15,D02,0,0,0
1421,-45.0,1.0,46.0,1645184755.8125,P15,D02,0,0,0
1422,-45.0,1.0,46.0,1645184755.84375,P15,D02,0,0,0
1423,-44.0,1.0,46.0,1645184755.875,P15,D02,0,0,0
1424,-44.0,1.0,46.0,1645184755.90625,P15,D02,0,0,0
1425,-45.0,1.0,46.0,1645184755.9375,P15,D02,0,0,0
1426,-45.0,1.0,46.0,1645184755.96875,P15,D02,0,0,0
1427,-45.0,1.0,46.0,1645184756.0,P15,D02,0,0,0
1428,-44.0,1.0,46.0,1645184756.03125,P15,D02,0,0,0
1429,-45.0,1.0,45.0,1645184756.0625,P15,D02,0,0,0
1430,-44.0,1.0,46.0,1645184756.09375,P15,D02,0,0,0
1431,-44.0,1.0,46.0,1645184756.125,P15,D02,0,0,0
1432,-45.0,1.0,46.0,1645184756.15625,P15,D02,0,0,0
1433,-45.0,1.0,46.0,1645184756.1875,P15,D02,0,0,0
1434,-44.0,1.0,46.0,1645184756.21875,P15,D02,0,0,0
1435,-45.0,1.0,46.0,1645184756.25,P15,D02,0,0,0
1436,-45.0,1.0,46.0,1645184756.28125,P15,D02,0,0,0
1437,-45.0,1.0,46.0,1645184756.3125,P15,D02,0,0,0
1438,-44.0,1.0,46.0,1645184756.34375,P15,D02,0,0,0
1439,-45.0,1.0,46.0,1645184756.375,P15,D02,0,0,0
1440,-44.0,1.0,46.0,1645184756.40625,P15,D02,0,0,0
1441,-45.0,1.0,46.0,1645184756.4375,P15,D02,0,0,0
1442,-44.0,1.0,46.0,1645184756.46875,P15,D02,0,0,0
1443,-45.0,1.0,46.0,1645184756.5,P15,D02,0,0,0
1444,-44.0,1.0,46.0,1645184756.53125,P15,D02,0,0,0
1445,-44.0,1.0,46.0,1645184756.5625,P15,D02,0,0,0
1446,-44.0,1.0,46.0,1645184756.59375,P15,D02,0,0,0
1447,-45.0,1.0,46.0,1645184756.625,P15,D02,0,0,0
1448,-45.0,1.0,46.0,1645184756.65625,P15,D02,0,0,0
1449,-45.0,1.0,46.0,1645184756.6875,P15,D02,0,0,0
1450,-44.0,1.0,46.0,1645184756.71875,P15,D02,0,0,0
1451,-45.0,1.0,46.0,1645184756.75,P15,D02,0,0,0
1452,-44.0,1.0,46.0,1645184756.78125,P15,D02,0,0,0
1453,-44.0,1.0,46.0,1645184756.8125,P15,D02,0,0,0
1454,-45.0,1.0,46.0,1645184756.84375,P15,D02,0,0,0
1455,-44.0,1.0,46.0,1645184756.875,P15,D02,0,0,0
1456,-45.0,1.0,46.0,1645184756.90625,P15,D02,0,0,0
1457,-45.0,1.0,46.0,1645184756.9375,P15,D02,0,0,0
1458,-44.0,2.0,46.0,1645184756.96875,P15,D02,0,0,0
1459,-45.0,1.0,46.0,1645184757.0,P15,D02,0,0,0
1460,-44.0,1.0,46.0,1645184757.03125,P15,D02,0,0,0
1461,-44.0,1.0,46.0,1645184757.0625,P15,D02,0,0,0
1462,-45.0,1.0,46.0,1645184757.09375,P15,D02,0,0,0
1463,-45.0,1.0,46.0,1645184757.125,P15,D02,0,0,0
1464,-44.0,1.0,46.0,1645184757.15625,P15,D02,0,0,0
1465,-44.0,1.0,46.0,1645184757.1875,P15,D02,0,0,0
1466,-44.0,1.0,46.0,1645184757.21875,P15,D02,0,0,0
1467,-44.0,1.0,46.0,1645184757.25,P15,D02,0,0,0
1468,-45.0,1.0,46.0,1645184757.28125,P15,D02,0,0,0
1469,-44.0,1.0,46.0,1645184757.3125,P15,D02,0,0,0
1470,-45.0,1.0,46.0,1645184757.34375,P15,D02,0,0,0
1471,-44.0,1.0,46.0,1645184757.375,P15,D02,0,0,0
1472,-45.0,1.0,46.0,1645184757.40625,P15,D02,0,0,0
1473,-45.0,1.0,46.0,1645184757.4375,P15,D02,0,0,0
1474,-44.0,1.0,46.0,1645184757.46875,P15,D02,0,0,0
1475,-45.0,1.0,46.0,1645184757.5,P15,D02,0,0,0
1476,-44.0,1.0,46.0,1645184757.53125,P15,D02,0,0,0
1477,-45.0,2.0,46.0,1645184757.5625,P15,D02,0,0,0
1478,-45.0,1.0,45.0,1645184757.59375,P15,D02,0,0,0
1479,-45.0,1.0,46.0,1645184757.625,P15,D02,0,0,0
1480,-44.0,1.0,46.0,1645184757.65625,P15,D02,0,0,0
1481,-45.0,1.0,46.0,1645184757.6875,P15,D02,0,0,0
1482,-45.0,1.0,45.0,1645184757.71875,P15,D02,0,0,0
1483,-45.0,1.0,46.0,1645184757.75,P15,D02,0,0,0
1484,-45.0,1.0,46.0,1645184757.78125,P15,D02,0,0,0
1485,-45.0,1.0,46.0,1645184757.8125,P15,D02,0,0,0
1486,-45.0,1.0,46.0,1645184757.84375,P15,D02,0,0,0
1487,-45.0,1.0,46.0,1645184757.875,P15,D02,0,0,0
1488,-44.0,1.0,46.0,1645184757.90625,P15,D02,0,0,0
1489,-45.0,2.0,46.0,1645184757.9375,P15,D02,0,0,0
1490,-45.0,2.0,46.0,1645184757.96875,P15,D02,0,0,0
1491,-45.0,1.0,46.0,1645184758.0,P15,D02,0,0,0
1492,-45.0,1.0,46.0,1645184758.03125,P15,D02,0,0,0
1493,-44.0,2.0,46.0,1645184758.0625,P15,D02,0,0,0
1494,-44.0,1.0,46.0,1645184758.09375,P15,D02,0,0,0
1495,-44.0,1.0,46.0,1645184758.125,P15,D02,0,0,0
1496,-45.0,1.0,46.0,1645184758.15625,P15,D02,0,0,0
1497,-45.0,1.0,45.0,1645184758.1875,P15,D02,0,0,0
1498,-44.0,1.0,46.0,1645184758.21875,P15,D02,0,0,0
1499,-44.0,1.0,46.0,1645184758.25,P15,D02,0,0,0
1500,-45.0,1.0,46.0,1645184758.28125,P15,D02,0,0,0
1501,-45.0,1.0,46.0,1645184758.3125,P15,D02,0,0,0
1502,-45.0,1.0,46.0,1645184758.34375,P15,D02,0,0,0
1503,-45.0,1.0,46.0,1645184758.375,P15,D02,0,0,0
1504,-44.0,1.0,46.0,1645184758.40625,P15,D02,0,0,0
1505,-45.0,1.0,46.0,1645184758.4375,P15,D02,0,0,0
1506,-45.0,1.0,46.0,1645184758.46875,P15,D02,0,0,0
1507,-45.0,1.0,46.0,1645184758.5,P15,D02,0,0,0
1508,-44.0,1.0,46.0,1645184758.53125,P15,D02,0,0,0
1509,-45.0,2.0,46.0,1645184758.5625,P15,D02,0,0,0
1510,-45.0,1.0,46.0,1645184758.59375,P15,D02,0,0,0
1511,-45.0,1.0,46.0,1645184758.625,P15,D02,0,0,0
1512,-45.0,1.0,45.0,1645184758.65625,P15,D02,0,0,0
1513,-44.0,1.0,46.0,1645184758.6875,P15,D02,0,0,0
1514,-44.0,1.0,46.0,1645184758.71875,P15,D02,0,0,0
1515,-45.0,1.0,46.0,1645184758.75,P15,D02,0,0,0
1516,-45.0,1.0,46.0,1645184758.78125,P15,D02,0,0,0
1517,-44.0,1.0,46.0,1645184758.8125,P15,D02,0,0,0
1518,-45.0,1.0,46.0,1645184758.84375,P15,D02,0,0,0
1519,-45.0,1.0,46.0,1645184758.875,P15,D02,0,0,0
1520,-45.0,1.0,46.0,1645184758.90625,P15,D02,0,0,0
1521,-45.0,1.0,45.0,1645184758.9375,P15,D02,0,0,0
1522,-45.0,1.0,46.0,1645184758.96875,P15,D02,0,0,0
1523,-45.0,1.0,46.0,1645184759.0,P15,D02,0,0,0
1524,-45.0,1.0,46.0,1645184759.03125,P15,D02,0,0,0
1525,-45.0,1.0,45.0,1645184759.0625,P15,D02,0,0,0
1526,-44.0,1.0,46.0,1645184759.09375,P15,D02,0,0,0
1527,-45.0,1.0,46.0,1645184759.125,P15,D02,0,0,0
1528,-45.0,1.0,46.0,1645184759.15625,P15,D02,0,0,0
1529,-45.0,1.0,46.0,1645184759.1875,P15,D02,0,0,0
1530,-45.0,1.0,46.0,1645184759.21875,P15,D02,0,0,0
1531,-45.0,1.0,46.0,1645184759.25,P15,D02,0,0,0
1532,-44.0,1.0,46.0,1645184759.28125,P15,D02,0,0,0
1533,-45.0,1.0,46.0,1645184759.3125,P15,D02,0,0,0
1534,-45.0,1.0,46.0,1645184759.34375,P15,D02,0,0,0
1535,-44.0,1.0,46.0,1645184759.375,P15,D02,0,0,0
1536,-44.0,1.0,46.0,1645184759.40625,P15,D02,0,0,0
1537,-45.0,1.0,46.0,1645184759.4375,P15,D02,0,0,0
1538,-45.0,1.0,46.0,1645184759.46875,P15,D02,0,0,0
1539,-44.0,1.0,46.0,1645184759.5,P15,D02,0,0,0
1540,-45.0,1.0,45.0,1645184759.53125,P15,D02,0,0,0
1541,-44.0,1.0,46.0,1645184759.5625,P15,D02,0,0,0
1542,-44.0,1.0,46.0,1645184759.59375,P15,D02,0,0,0
1543,-44.0,1.0,46.0,1645184759.625,P15,D02,0,0,0
1544,-45.0,2.0,46.0,1645184759.65625,P15,D02,0,0,0
1545,-44.0,1.0,46.0,1645184759.6875,P15,D02,0,0,0
1546,-45.0,1.0,46.0,1645184759.71875,P15,D02,0,0,0
1547,-44.0,1.0,46.0,1645184759.75,P15,D02,0,0,0
1548,-44.0,2.0,46.0,1645184759.78125,P15,D02,0,0,0
1549,-44.0,1.0,46.0,1645184759.8125,P15,D02,0,0,0
1550,-44.0,1.0,46.0,1645184759.84375,P15,D02,0,0,0
1551,-45.0,1.0,46.0,1645184759.875,P15,D02,0,0,0
1552,-44.0,2.0,46.0,1645184759.90625,P15,D02,0,0,0
1553,-44.0,1.0,46.0,1645184759.9375,P15,D02,0,0,0
1554,-44.0,1.0,46.0,1645184759.96875,P15,D02,0,0,0
1555,-44.0,1.0,46.0,1645184760.0,P15,D02,0,0,0
1556,-44.0,1.0,46.0,1645184760.03125,P15,D02,0,0,0
1557,-44.0,1.0,46.0,1645184760.0625,P15,D02,0,0,0
1558,-44.0,1.0,46.0,1645184760.09375,P15,D02,0,0,0
1559,-44.0,1.0,46.0,1645184760.125,P15,D02,0,0,0
1560,-44.0,1.0,46.0,1645184760.15625,P15,D02,0,0,0
1561,-44.0,1.0,46.0,1645184760.1875,P15,D02,0,0,0
1562,-44.0,1.0,46.0,1645184760.21875,P15,D02,0,0,0
1563,-44.0,1.0,46.0,1645184760.25,P15,D02,0,0,0
1564,-44.0,1.0,46.0,1645184760.28125,P15,D02,0,0,0
1565,-44.0,1.0,46.0,1645184760.3125,P15,D02,0,0,0
1566,-45.0,1.0,46.0,1645184760.34375,P15,D02,0,0,0
1567,-44.0,1.0,46.0,1645184760.375,P15,D02,0,0,0
1568,-44.0,1.0,46.0,1645184760.40625,P15,D02,0,0,0
1569,-44.0,1.0,46.0,1645184760.4375,P15,D02,0,0,0
1570,-45.0,2.0,46.0,1645184760.46875,P15,D02,0,0,0
1571,-44.0,1.0,46.0,1645184760.5,P15,D02,0,0,0
1572,-44.0,1.0,46.0,1645184760.53125,P15,D02,0,0,0
1573,-44.0,1.0,46.0,1645184760.5625,P15,D02,0,0,0
1574,-45.0,2.0,46.0,1645184760.59375,P15,D02,0,0,0
1575,-44.0,1.0,46.0,1645184760.625,P15,D02,0,0,0
1576,-44.0,1.0,46.0,1645184760.65625,P15,D02,0,0,0
1577,-45.0,1.0,46.0,1645184760.6875,P15,D02,0,0,0
1578,-45.0,1.0,46.0,1645184760.71875,P15,D02,0,0,0
1579,-44.0,1.0,46.0,1645184760.75,P15,D02,0,0,0
1580,-45.0,2.0,46.0,1645184760.78125,P15,D02,0,0,0
1581,-44.0,1.0,46.0,1645184760.8125,P15,D02,0,0,0
1582,-45.0,1.0,46.0,1645184760.84375,P15,D02,0,0,0
1583,-45.0,2.0,46.0,1645184760.875,P15,D02,0,0,0
1584,-44.0,1.0,46.0,1645184760.90625,P15,D02,0,0,0
1585,-44.0,1.0,46.0,1645184760.9375,P15,D02,0,0,0
1586,-44.0,1.0,46.0,1645184760.96875,P15,D02,0,0,0
1587,-44.0,1.0,46.0,1645184761.0,P15,D02,0,0,0
1588,-44.0,1.0,46.0,1645184761.03125,P15,D02,0,0,0
1589,-45.0,1.0,46.0,1645184761.0625,P15,D02,0,0,0
1590,-44.0,1.0,46.0,1645184761.09375,P15,D02,0,0,0
1591,-44.0,1.0,46.0,1645184761.125,P15,D02,0,0,0
1592,-45.0,1.0,46.0,1645184761.15625,P15,D02,0,0,0
1593,-44.0,1.0,46.0,1645184761.1875,P15,D02,0,0,0
1594,-44.0,1.0,46.0,1645184761.21875,P15,D02,0,0,0
1595,-45.0,1.0,46.0,1645184761.25,P15,D02,0,0,0
1596,-44.0,1.0,46.0,1645184761.28125,P15,D02,0,0,0
1597,-44.0,1.0,46.0,1645184761.3125,P15,D02,0,0,0
1598,-44.0,1.0,46.0,1645184761.34375,P15,D02,0,0,0
1599,-45.0,1.0,46.0,1645184761.375,P15,D02,0,0,0
1600,-44.0,1.0,46.0,1645184761.40625,P15,D02,0,0,0
1601,-45.0,1.0,45.0,1645184761.4375,P15,D02,0,0,0
1602,-45.0,1.0,46.0,1645184761.46875,P15,D02,0,0,0
1603,-45.0,1.0,45.0,1645184761.5,P15,D02,0,0,0
1604,-44.0,1.0,46.0,1645184761.53125,P15,D02,0,0,0
1605,-45.0,1.0,46.0,1645184761.5625,P15,D02,0,0,0
1606,-45.0,1.0,46.0,1645184761.59375,P15,D02,0,0,0
1607,-44.0,1.0,46.0,1645184761.625,P15,D02,0,0,0
1608,-45.0,1.0,46.0,1645184761.65625,P15,D02,0,0,0
1609,-45.0,1.0,46.0,1645184761.6875,P15,D02,0,0,0
1610,-45.0,2.0,46.0,1645184761.71875,P15,D02,0,0,0
1611,-45.0,1.0,45.0,1645184761.75,P15,D02,0,0,0
1612,-45.0,1.0,46.0,1645184761.78125,P15,D02,0,0,0
1613,-44.0,1.0,46.0,1645184761.8125,P15,D02,0,0,0
1614,-44.0,1.0,46.0,1645184761.84375,P15,D02,0,0,0
1615,-45.0,1.0,45.0,1645184761.875,P15,D02,0,0,0
1616,-44.0,1.0,46.0,1645184761.90625,P15,D02,0,0,0
1617,-45.0,1.0,46.0,1645184761.9375,P15,D02,0,0,0
1618,-45.0,1.0,45.0,1645184761.96875,P15,D02,0,0,0
1619,-45.0,1.0,46.0,1645184762.0,P15,D02,0,0,0
1620,-45.0,2.0,45.0,1645184762.03125,P15,D02,0,0,0
1621,-44.0,1.0,46.0,1645184762.0625,P15,D02,0,0,0
1622,-44.0,1.0,46.0,1645184762.09375,P15,D02,0,0,0
1623,-46.0,1.0,45.0,1645184762.125,P15,D02,0,0,0
1624,-45.0,1.0,46.0,1645184762.15625,P15,D02,0,0,0
1625,-44.0,2.0,46.0,1645184762.1875,P15,D02,0,0,0
1626,-44.0,2.0,46.0,1645184762.21875,P15,D02,0,0,0
1627,-43.0,1.0,47.0,1645184762.25,P15,D02,0,0,0
1628,-40.0,0.0,47.0,1645184762.28125,P15,D02,0,0,0
1629,-44.0,-3.0,46.0,1645184762.3125,P15,D02,0,0,0
1630,-43.0,2.0,47.0,1645184762.34375,P15,D02,0,0,0
1631,-42.0,1.0,47.0,1645184762.375,P15,D02,0,0,0
1632,-44.0,2.0,46.0,1645184762.40625,P15,D02,0,0,0
1633,-44.0,1.0,46.0,1645184762.4375,P15,D02,0,0,0
1634,-42.0,1.0,47.0,1645184762.46875,P15,D02,0,0,0
1635,-43.0,2.0,47.0,1645184762.5,P15,D02,0,0,0
1636,-44.0,2.0,46.0,1645184762.53125,P15,D02,0,0,0
1637,-44.0,1.0,46.0,1645184762.5625,P15,D02,0,0,0
1638,-45.0,2.0,46.0,1645184762.59375,P15,D02,0,0,0
1639,-44.0,2.0,46.0,1645184762.625,P15,D02,0,0,0
1640,-44.0,2.0,46.0,1645184762.65625,P15,D02,0,0,0
1641,-44.0,2.0,46.0,1645184762.6875,P15,D02,0,0,0
1642,-44.0,2.0,46.0,1645184762.71875,P15,D02,0,0,0
1643,-43.0,1.0,47.0,1645184762.75,P15,D02,0,0,0
1644,-43.0,1.0,47.0,1645184762.78125,P15,D02,0,0,0
1645,-43.0,2.0,47.0,1645184762.8125,P15,D02,0,0,0
1646,-43.0,1.0,47.0,1645184762.84375,P15,D02,0,0,0
1647,-43.0,2.0,47.0,1645184762.875,P15,D02,0,0,0
1648,-43.0,2.0,47.0,1645184762.90625,P15,D02,0,0,0
1649,-43.0,2.0,47.0,1645184762.9375,P15,D02,0,0,0
1650,-43.0,2.0,47.0,1645184762.96875,P15,D02,0,0,0
1651,-44.0,2.0,46.0,1645184763.0,P15,D02,0,0,0
1652,-42.0,2.0,47.0,1645184763.03125,P15,D02,0,0,0
1653,-43.0,2.0,47.0,1645184763.0625,P15,D02,0,0,0
1654,-45.0,2.0,46.0,1645184763.09375,P15,D02,0,0,0
1655,-44.0,2.0,46.0,1645184763.125,P15,D02,0,0,0
1656,-43.0,1.0,47.0,1645184763.15625,P15,D02,0,0,0
1657,-42.0,2.0,47.0,1645184763.1875,P15,D02,0,0,0
1658,-43.0,1.0,47.0,1645184763.21875,P15,D02,0,0,0
1659,-43.0,2.0,47.0,1645184763.25,P15,D02,0,0,0
1660,-44.0,2.0,47.0,1645184763.28125,P15,D02,0,0,0
1661,-44.0,2.0,47.0,1645184763.3125,P15,D02,0,0,0
1662,-44.0,2.0,46.0,1645184763.34375,P15,D02,0,0,0
1663,-43.0,2.0,47.0,1645184763.375,P15,D02,0,0,0
1664,-43.0,1.0,47.0,1645184763.40625,P15,D02,0,0,0
1665,-43.0,2.0,47.0,1645184763.4375,P15,D02,0,0,0
1666,-43.0,2.0,47.0,1645184763.46875,P15,D02,0,0,0
1667,-45.0,2.0,46.0,1645184763.5,P15,D02,0,0,0
1668,-44.0,2.0,46.0,1645184763.53125,P15,D02,0,0,0
1669,-43.0,2.0,47.0,1645184763.5625,P15,D02,0,0,0
1670,-44.0,2.0,47.0,1645184763.59375,P15,D02,0,0,0
1671,-44.0,2.0,47.0,1645184763.625,P15,D02,0,0,0
1672,-42.0,2.0,47.0,1645184763.65625,P15,D02,0,0,0
1673,-43.0,2.0,47.0,1645184763.6875,P15,D02,0,0,0
1674,-43.0,3.0,47.0,1645184763.71875,P15,D02,0,0,0
1675,-43.0,1.0,47.0,1645184763.75,P15,D02,0,0,0
1676,-42.0,1.0,48.0,1645184763.78125,P15,D02,0,0,0
1677,-42.0,2.0,47.0,1645184763.8125,P15,D02,0,0,0
1678,-43.0,2.0,47.0,1645184763.84375,P15,D02,0,0,0
1679,-43.0,2.0,47.0,1645184763.875,P15,D02,0,0,0
1680,-43.0,2.0,47.0,1645184763.90625,P15,D02,0,0,0
1681,-44.0,2.0,47.0,1645184763.9375,P15,D02,0,0,0
1682,-41.0,2.0,48.0,1645184763.96875,P15,D02,0,0,0
1683,-42.0,3.0,48.0,1645184764.0,P15,D02,0,0,0
1684,-41.0,2.0,48.0,1645184764.03125,P15,D02,0,0,0
1685,-42.0,3.0,48.0,1645184764.0625,P15,D02,0,0,0
1686,-41.0,3.0,48.0,1645184764.09375,P15,D02,0,0,0
1687,-42.0,3.0,47.0,1645184764.125,P15,D02,0,0,0
1688,-42.0,2.0,48.0,1645184764.15625,P15,D02,0,0,0
1689,-42.0,2.0,48.0,1645184764.1875,P15,D02,0,0,0
1690,-44.0,3.0,47.0,1645184764.21875,P15,D02,0,0,0
1691,-43.0,3.0,47.0,1645184764.25,P15,D02,0,0,0
1692,-42.0,3.0,48.0,1645184764.28125,P15,D02,0,0,0
1693,-42.0,2.0,48.0,1645184764.3125,P15,D02,0,0,0
1694,-41.0,3.0,48.0,1645184764.34375,P15,D02,0,0,0
1695,-42.0,2.0,48.0,1645184764.375,P15,D02,0,0,0
1696,-41.0,3.0,48.0,1645184764.40625,P15,D02,0,0,0
1697,-42.0,3.0,48.0,1645184764.4375,P15,D02,0,0,0
1698,-43.0,3.0,47.0,1645184764.46875,P15,D02,0,0,0
1699,-42.0,3.0,48.0,1645184764.5,P15,D02,0,0,0
1700,-41.0,2.0,48.0,1645184764.53125,P15,D02,0,0,0
1701,-42.0,2.0,47.0,1645184764.5625,P15,D02,0,0,0
1702,-41.0,1.0,48.0,1645184764.59375,P15,D02,0,0,0
1703,-41.0,2.0,48.0,1645184764.625,P15,D02,0,0,0
1704,-44.0,3.0,47.0,1645184764.65625,P15,D02,0,0,0
1705,-44.0,3.0,47.0,1645184764.6875,P15,D02,0,0,0
1706,-42.0,3.0,47.0,1645184764.71875,P15,D02,0,0,0
1707,-42.0,2.0,47.0,1645184764.75,P15,D02,0,0,0
1708,-43.0,3.0,47.0,1645184764.78125,P15,D02,0,0,0
1709,-44.0,2.0,46.0,1645184764.8125,P15,D02,0,0,0
1710,-43.0,3.0,47.0,1645184764.84375,P15,D02,0,0,0
1711,-44.0,2.0,47.0,1645184764.875,P15,D02,0,0,0
1712,-43.0,2.0,47.0,1645184764.90625,P15,D02,0,0,0
1713,-43.0,2.0,47.0,1645184764.9375,P15,D02,0,0,0
1714,-44.0,2.0,47.0,1645184764.96875,P15,D02,0,0,0
1715,-43.0,2.0,47.0,1645184765.0,P15,D02,0,0,0
1716,-44.0,3.0,47.0,1645184765.03125,P15,D02,0,0,0
1717,-44.0,2.0,46.0,1645184765.0625,P15,D02,0,0,0
1718,-44.0,2.0,46.0,1645184765.09375,P15,D02,0,0,0
1719,-42.0,1.0,47.0,1645184765.125,P15,D02,0,0,0
1720,-42.0,2.0,47.0,1645184765.15625,P15,D02,0,0,0
1721,-47.0,3.0,45.0,1645184765.1875,P15,D02,0,0,0
1722,-43.0,3.0,47.0,1645184765.21875,P15,D02,0,0,0
1723,-41.0,2.0,47.0,1645184765.25,P15,D02,0,0,0
1724,-47.0,2.0,44.0,1645184765.28125,P15,D02,0,0,0
1725,-48.0,2.0,44.0,1645184765.3125,P15,D02,0,0,0
1726,-40.0,2.0,49.0,1645184765.34375,P15,D02,0,0,0
1727,-40.0,2.0,48.0,1645184765.375,P15,D02,0,0,0
1728,-46.0,3.0,45.0,1645184765.40625,P15,D02,0,0,0
1729,-45.0,3.0,46.0,1645184765.4375,P15,D02,0,0,0
1730,-45.0,2.0,46.0,1645184765.46875,P15,D02,0,0,0
1731,-43.0,4.0,47.0,1645184765.5,P15,D02,0,0,0
1732,-43.0,3.0,47.0,1645184765.53125,P15,D02,0,0,0
1733,-46.0,3.0,45.0,1645184765.5625,P15,D02,0,0,0
1734,-46.0,4.0,45.0,1645184765.59375,P15,D02,0,0,0
1735,-44.0,1.0,46.0,1645184765.625,P15,D02,0,0,0
1736,-44.0,2.0,46.0,1645184765.65625,P15,D02,0,0,0
1737,-44.0,3.0,46.0,1645184765.6875,P15,D02,0,0,0
1738,-45.0,3.0,46.0,1645184765.71875,P15,D02,0,0,0
1739,-43.0,2.0,46.0,1645184765.75,P15,D02,0,0,0
1740,-43.0,3.0,47.0,1645184765.78125,P15,D02,0,0,0
1741,-45.0,4.0,45.0,1645184765.8125,P15,D02,0,0,0
1742,-43.0,2.0,46.0,1645184765.84375,P15,D02,0,0,0
1743,-43.0,2.0,46.0,1645184765.875,P15,D02,0,0,0
1744,-44.0,2.0,46.0,1645184765.90625,P15,D02,0,0,0
1745,-44.0,3.0,46.0,1645184765.9375,P15,D02,0,0,0
1746,-46.0,4.0,45.0,1645184765.96875,P15,D02,0,0,0
1747,-45.0,3.0,46.0,1645184766.0,P15,D02,0,0,0
1748,-45.0,3.0,46.0,1645184766.03125,P15,D02,0,0,0
1749,-44.0,3.0,46.0,1645184766.0625,P15,D02,0,0,0
1750,-45.0,3.0,45.0,1645184766.09375,P15,D02,0,0,0
1751,-45.0,3.0,45.0,1645184766.125,P15,D02,0,0,0
1752,-45.0,3.0,45.0,1645184766.15625,P15,D02,0,0,0
1753,-45.0,3.0,45.0,1645184766.1875,P15,D02,0,0,0
1754,-44.0,3.0,46.0,1645184766.21875,P15,D02,0,0,0
1755,-45.0,2.0,45.0,1645184766.25,P15,D02,0,0,0
1756,-46.0,3.0,45.0,1645184766.28125,P15,D02,0,0,0
1757,-44.0,3.0,46.0,1645184766.3125,P15,D02,0,0,0
1758,-45.0,3.0,46.0,1645184766.34375,P15,D02,0,0,0
1759,-44.0,4.0,46.0,1645184766.375,P15,D02,0,0,0
1760,-43.0,2.0,46.0,1645184766.40625,P15,D02,0,0,0
1761,-46.0,4.0,45.0,1645184766.4375,P15,D02,0,0,0
1762,-46.0,4.0,45.0,1645184766.46875,P15,D02,0,0,0
1763,-44.0,3.0,46.0,1645184766.5,P15,D02,0,0,0
1764,-44.0,2.0,46.0,1645184766.53125,P15,D02,0,0,0
1765,-45.0,2.0,45.0,1645184766.5625,P15,D02,0,0,0
1766,-44.0,3.0,46.0,1645184766.59375,P15,D02,0,0,0
1767,-45.0,3.0,46.0,1645184766.625,P15,D02,0,0,0
1768,-43.0,2.0,46.0,1645184766.65625,P15,D02,0,0,0
1769,-45.0,3.0,46.0,1645184766.6875,P15,D02,0,0,0
1770,-44.0,2.0,46.0,1645184766.71875,P15,D02,0,0,0
1771,-44.0,3.0,46.0,1645184766.75,P15,D02,0,0,0
1772,-46.0,2.0,45.0,1645184766.78125,P15,D02,0,0,0
1773,-43.0,2.0,46.0,1645184766.8125,P15,D02,0,0,0
1774,-43.0,2.0,47.0,1645184766.84375,P15,D02,0,0,0
1775,-45.0,3.0,45.0,1645184766.875,P15,D02,0,0,0
1776,-45.0,3.0,46.0,1645184766.90625,P15,D02,0,0,0
1777,-45.0,2.0,45.0,1645184766.9375,P15,D02,0,0,0
1778,-44.0,1.0,46.0,1645184766.96875,P15,D02,0,0,0
1779,-45.0,2.0,46.0,1645184767.0,P15,D02,0,0,0
1780,-45.0,2.0,45.0,1645184767.03125,P15,D02,0,0,0
1781,-42.0,2.0,46.0,1645184767.0625,P15,D02,0,0,0
1782,-45.0,3.0,45.0,1645184767.09375,P15,D02,0,0,0
1783,-44.0,1.0,46.0,1645184767.125,P15,D02,0,0,0
1784,-42.0,2.0,47.0,1645184767.15625,P15,D02,0,0,0
1785,-45.0,3.0,46.0,1645184767.1875,P15,D02,0,0,0
1786,-44.0,2.0,46.0,1645184767.21875,P15,D02,0,0,0
1787,-45.0,2.0,45.0,1645184767.25,P15,D02,0,0,0
1788,-47.0,1.0,44.0,1645184767.28125,P15,D02,0,0,0
1789,-44.0,0.0,46.0,1645184767.3125,P15,D02,0,0,0
1790,-44.0,2.0,46.0,1645184767.34375,P15,D02,0,0,0
1791,-45.0,2.0,45.0,1645184767.375,P15,D02,0,0,0
1792,-47.0,2.0,44.0,1645184767.40625,P15,D02,0,0,0
1793,-46.0,2.0,44.0,1645184767.4375,P15,D02,0,0,0
1794,-46.0,2.0,44.0,1645184767.46875,P15,D02,0,0,0
1795,-45.0,1.0,45.0,1645184767.5,P15,D02,0,0,0
1796,-44.0,2.0,46.0,1645184767.53125,P15,D02,0,0,0
1797,-46.0,2.0,44.0,1645184767.5625,P15,D02,0,0,0
1798,-47.0,1.0,44.0,1645184767.59375,P15,D02,0,0,0
1799,-44.0,1.0,46.0,1645184767.625,P15,D02,0,0,0
1800,-45.0,2.0,45.0,1645184767.65625,P15,D02,0,0,0
1801,-46.0,1.0,44.0,1645184767.6875,P15,D02,0,0,0
1802,-44.0,1.0,46.0,1645184767.71875,P15,D02,0,0,0
1803,-44.0,2.0,46.0,1645184767.75,P15,D02,0,0,0
1804,-45.0,2.0,45.0,1645184767.78125,P15,D02,0,0,0
1805,-44.0,1.0,46.0,1645184767.8125,P15,D02,0,0,0
1806,-44.0,2.0,46.0,1645184767.84375,P15,D02,0,0,0
1807,-45.0,1.0,45.0,1645184767.875,P15,D02,0,0,0
1808,-45.0,1.0,46.0,1645184767.90625,P15,D02,0,0,0
1809,-43.0,1.0,46.0,1645184767.9375,P15,D02,0,0,0
1810,-44.0,2.0,46.0,1645184767.96875,P15,D02,0,0,0
1811,-44.0,1.0,47.0,1645184768.0,P15,D02,0,0,0
1812,-44.0,2.0,46.0,1645184768.03125,P15,D02,0,0,0
1813,-44.0,1.0,46.0,1645184768.0625,P15,D02,0,0,0
1814,-45.0,2.0,45.0,1645184768.09375,P15,D02,0,0,0
1815,-45.0,2.0,46.0,1645184768.125,P15,D02,0,0,0
1816,-44.0,2.0,46.0,1645184768.15625,P15,D02,0,0,0
1817,-44.0,1.0,46.0,1645184768.1875,P15,D02,0,0,0
1818,-46.0,2.0,45.0,1645184768.21875,P15,D02,0,0,0
1819,-45.0,1.0,45.0,1645184768.25,P15,D02,0,0,0
1820,-44.0,1.0,46.0,1645184768.28125,P15,D02,0,0,0
1821,-45.0,2.0,45.0,1645184768.3125,P15,D02,0,0,0
1822,-45.0,2.0,46.0,1645184768.34375,P15,D02,0,0,0
1823,-44.0,1.0,46.0,1645184768.375,P15,D02,0,0,0
1824,-45.0,1.0,46.0,1645184768.40625,P15,D02,0,0,0
1825,-44.0,1.0,46.0,1645184768.4375,P15,D02,0,0,0
1826,-44.0,1.0,46.0,1645184768.46875,P15,D02,0,0,0
1827,-45.0,2.0,46.0,1645184768.5,P15,D02,0,0,0
1828,-45.0,2.0,45.0,1645184768.53125,P15,D02,0,0,0
1829,-44.0,1.0,46.0,1645184768.5625,P15,D02,0,0,0
1830,-44.0,1.0,46.0,1645184768.59375,P15,D02,0,0,0
1831,-44.0,2.0,46.0,1645184768.625,P15,D02,0,0,0
1832,-44.0,1.0,46.0,1645184768.65625,P15,D02,0,0,0
1833,-45.0,2.0,46.0,1645184768.6875,P15,D02,0,0,0
1834,-45.0,1.0,45.0,1645184768.71875,P15,D02,0,0,0
1835,-44.0,2.0,45.0,1645184768.75,P15,D02,0,0,0
1836,-45.0,1.0,46.0,1645184768.78125,P15,D02,0,0,0
1837,-45.0,1.0,46.0,1645184768.8125,P15,D02,0,0,0
1838,-45.0,1.0,45.0,1645184768.84375,P15,D02,0,0,0
1839,-45.0,2.0,45.0,1645184768.875,P15,D02,0,0,0
1840,-45.0,1.0,46.0,1645184768.90625,P15,D02,0,0,0
1841,-45.0,1.0,46.0,1645184768.9375,P15,D02,0,0,0
1842,-45.0,1.0,45.0,1645184768.96875,P15,D02,0,0,0
1843,-45.0,2.0,46.0,1645184769.0,P15,D02,0,0,0
1844,-45.0,1.0,46.0,1645184769.03125,P15,D02,0,0,0
1845,-45.0,1.0,45.0,1645184769.0625,P15,D02,0,0,0
1846,-45.0,1.0,45.0,1645184769.09375,P15,D02,0,0,0
1847,-45.0,1.0,46.0,1645184769.125,P15,D02,0,0,0
1848,-45.0,1.0,46.0,1645184769.15625,P15,D02,0,0,0
1849,-44.0,1.0,46.0,1645184769.1875,P15,D02,0,0,0
1850,-44.0,1.0,46.0,1645184769.21875,P15,D02,0,0,0
1851,-45.0,1.0,45.0,1645184769.25,P15,D02,0,0,0
1852,-45.0,1.0,46.0,1645184769.28125,P15,D02,0,0,0
1853,-45.0,1.0,45.0,1645184769.3125,P15,D02,0,0,0
1854,-45.0,1.0,45.0,1645184769.34375,P15,D02,0,0,0
1855,-45.0,2.0,46.0,1645184769.375,P15,D02,0,0,0
1856,-45.0,1.0,45.0,1645184769.40625,P15,D02,0,0,0
1857,-45.0,1.0,45.0,1645184769.4375,P15,D02,0,0,0
1858,-44.0,1.0,46.0,1645184769.46875,P15,D02,0,0,0
1859,-44.0,1.0,46.0,1645184769.5,P15,D02,0,0,0
1860,-45.0,1.0,45.0,1645184769.53125,P15,D02,0,0,0
1861,-45.0,1.0,45.0,1645184769.5625,P15,D02,0,0,0
1862,-45.0,1.0,45.0,1645184769.59375,P15,D02,0,0,0
1863,-45.0,1.0,45.0,1645184769.625,P15,D02,0,0,0
1864,-45.0,1.0,45.0,1645184769.65625,P15,D02,0,0,0
1865,-45.0,1.0,45.0,1645184769.6875,P15,D02,0,0,0
1866,-45.0,1.0,45.0,1645184769.71875,P15,D02,0,0,0
1867,-45.0,1.0,45.0,1645184769.75,P15,D02,0,0,0
1868,-45.0,1.0,45.0,1645184769.78125,P15,D02,0,0,0
1869,-45.0,1.0,45.0,1645184769.8125,P15,D02,0,0,0
1870,-45.0,1.0,45.0,1645184769.84375,P15,D02,0,0,0
1871,-46.0,1.0,44.0,1645184769.875,P15,D02,0,0,0
1872,-46.0,1.0,45.0,1645184769.90625,P15,D02,0,0,0
1873,-46.0,1.0,45.0,1645184769.9375,P15,D02,0,0,0
1874,-46.0,1.0,44.0,1645184769.96875,P15,D02,0,0,0
1875,-46.0,1.0,45.0,1645184770.0,P15,D02,0,0,0
1876,-45.0,1.0,45.0,1645184770.03125,P15,D02,0,0,0
1877,-46.0,1.0,45.0,1645184770.0625,P15,D02,0,0,0
1878,-46.0,1.0,45.0,1645184770.09375,P15,D02,0,0,0
1879,-46.0,1.0,45.0,1645184770.125,P15,D02,0,0,0
1880,-46.0,1.0,45.0,1645184770.15625,P15,D02,0,0,0
1881,-46.0,1.0,45.0,1645184770.1875,P15,D02,0,0,0
1882,-46.0,1.0,45.0,1645184770.21875,P15,D02,0,0,0
1883,-45.0,1.0,45.0,1645184770.25,P15,D02,0,0,0
1884,-45.0,1.0,45.0,1645184770.28125,P15,D02,0,0,0
1885,-46.0,1.0,45.0,1645184770.3125,P15,D02,0,0,0
1886,-46.0,1.0,45.0,1645184770.34375,P15,D02,0,0,0
1887,-46.0,1.0,44.0,1645184770.375,P15,D02,0,0,0
1888,-46.0,1.0,44.0,1645184770.40625,P15,D02,0,0,0
1889,-46.0,1.0,45.0,1645184770.4375,P15,D02,0,0,0
1890,-45.0,1.0,45.0,1645184770.46875,P15,D02,0,0,0
1891,-46.0,1.0,44.0,1645184770.5,P15,D02,0,0,0
1892,-46.0,1.0,45.0,1645184770.53125,P15,D02,0,0,0
1893,-45.0,1.0,45.0,1645184770.5625,P15,D02,0,0,0
1894,-45.0,1.0,45.0,1645184770.59375,P15,D02,0,0,0
1895,-46.0,1.0,45.0,1645184770.625,P15,D02,0,0,0
1896,-46.0,1.0,45.0,1645184770.65625,P15,D02,0,0,0
1897,-46.0,1.0,45.0,1645184770.6875,P15,D02,0,0,0
1898,-46.0,1.0,45.0,1645184770.71875,P15,D02,0,0,0
1899,-46.0,1.0,45.0,1645184770.75,P15,D02,0,0,0
1900,-45.0,1.0,45.0,1645184770.78125,P15,D02,0,0,0
1901,-45.0,1.0,45.0,1645184770.8125,P15,D02,0,0,0
1902,-46.0,1.0,45.0,1645184770.84375,P15,D02,0,0,0
1903,-46.0,1.0,45.0,1645184770.875,P15,D02,0,0,0
1904,-46.0,1.0,45.0,1645184770.90625,P15,D02,0,0,0
1905,-46.0,1.0,44.0,1645184770.9375,P15,D02,0,0,0
1906,-46.0,1.0,44.0,1645184770.96875,P15,D02,0,0,0
1907,-46.0,1.0,44.0,1645184771.0,P15,D02,0,0,0
1908,-45.0,1.0,45.0,1645184771.03125,P15,D02,0,0,0
1909,-46.0,1.0,44.0,1645184771.0625,P15,D02,0,0,0
1910,-46.0,1.0,45.0,1645184771.09375,P15,D02,0,0,0
1911,-45.0,1.0,45.0,1645184771.125,P15,D02,0,0,0
1912,-46.0,1.0,45.0,1645184771.15625,P15,D02,0,0,0
1913,-46.0,1.0,44.0,1645184771.1875,P15,D02,0,0,0
1914,-46.0,1.0,45.0,1645184771.21875,P15,D02,0,0,0
1915,-45.0,1.0,45.0,1645184771.25,P15,D02,0,0,0
1916,-46.0,1.0,44.0,1645184771.28125,P15,D02,0,0,0
1917,-46.0,1.0,44.0,1645184771.3125,P15,D02,0,0,0
1918,-45.0,1.0,45.0,1645184771.34375,P15,D02,0,0,0
1919,-46.0,1.0,45.0,1645184771.375,P15,D02,0,0,0
1920,-46.0,1.0,44.0,1645184771.40625,P15,D02,0,0,0
1921,-45.0,1.0,45.0,1645184771.4375,P15,D02,0,0,0
1922,-45.0,1.0,45.0,1645184771.46875,P15,D02,0,0,0
1923,-46.0,1.0,44.0,1645184771.5,P15,D02,0,0,0
1924,-46.0,1.0,45.0,1645184771.53125,P15,D02,0,0,0
1925,-46.0,1.0,45.0,1645184771.5625,P15,D02,0,0,0
1926,-45.0,1.0,45.0,1645184771.59375,P15,D02,0,0,0
1927,-45.0,1.0,45.0,1645184771.625,P15,D02,0,0,0
1928,-46.0,1.0,45.0,1645184771.65625,P15,D02,0,0,0
1929,-46.0,1.0,45.0,1645184771.6875,P15,D02,0,0,0
1930,-45.0,1.0,45.0,1645184771.71875,P15,D02,0,0,0
1931,-46.0,1.0,45.0,1645184771.75,P15,D02,0,0,0
1932,-45.0,1.0,45.0,1645184771.78125,P15,D02,0,0,0
1933,-45.0,1.0,45.0,1645184771.8125,P15,D02,0,0,0
1934,-46.0,1.0,45.0,1645184771.84375,P15,D02,0,0,0
1935,-45.0,1.0,45.0,1645184771.875,P15,D02,0,0,0
1936,-45.0,1.0,45.0,1645184771.90625,P15,D02,0,0,0
1937,-46.0,1.0,45.0,1645184771.9375,P15,D02,0,0,0
1938,-45.0,1.0,45.0,1645184771.96875,P15,D02,0,0,0
1939,-45.0,1.0,45.0,1645184772.0,P15,D02,0,0,0
1940,-45.0,1.0,45.0,1645184772.03125,P15,D02,0,0,0
1941,-45.0,1.0,45.0,1645184772.0625,P15,D02,0,0,0
1942,-46.0,1.0,45.0,1645184772.09375,P15,D02,0,0,0
1943,-46.0,1.0,45.0,1645184772.125,P15,D02,0,0,0
1944,-45.0,1.0,45.0,1645184772.15625,P15,D02,0,0,0
1945,-45.0,1.0,45.0,1645184772.1875,P15,D02,0,0,0
1946,-45.0,1.0,45.0,1645184772.21875,P15,D02,0,0,0
1947,-45.0,1.0,45.0,1645184772.25,P15,D02,0,0,0
1948,-46.0,1.0,45.0,1645184772.28125,P15,D02,0,0,0
1949,-46.0,1.0,44.0,1645184772.3125,P15,D02,0,0,0
1950,-45.0,1.0,45.0,1645184772.34375,P15,D02,0,0,0
1951,-45.0,1.0,45.0,1645184772.375,P15,D02,0,0,0
1952,-46.0,1.0,45.0,1645184772.40625,P15,D02,0,0,0
1953,-45.0,1.0,45.0,1645184772.4375,P15,D02,0,0,0
1954,-45.0,1.0,45.0,1645184772.46875,P15,D02,0,0,0
1955,-45.0,1.0,45.0,1645184772.5,P15,D02,0,0,0
1956,-45.0,1.0,45.0,1645184772.53125,P15,D02,0,0,0
1957,-46.0,1.0,45.0,1645184772.5625,P15,D02,0,0,0
1958,-46.0,1.0,45.0,1645184772.59375,P15,D02,0,0,0
1959,-45.0,1.0,45.0,1645184772.625,P15,D02,0,0,0
1960,-45.0,1.0,45.0,1645184772.65625,P15,D02,0,0,0
1961,-45.0,1.0,45.0,1645184772.6875,P15,D02,0,0,0
1962,-45.0,1.0,45.0,1645184772.71875,P15,D02,0,0,0
1963,-46.0,1.0,45.0,1645184772.75,P15,D02,0,0,0
1964,-45.0,1.0,45.0,1645184772.78125,P15,D02,0,0,0
1965,-45.0,1.0,45.0,1645184772.8125,P15,D02,0,0,0
1966,-45.0,1.0,45.0,1645184772.84375,P15,D02,0,0,0
1967,-45.0,1.0,45.0,1645184772.875,P15,D02,0,0,0
1968,-45.0,1.0,45.0,1645184772.90625,P15,D02,0,0,0
1969,-46.0,1.0,45.0,1645184772.9375,P15,D02,0,0,0
1970,-45.0,1.0,45.0,1645184772.96875,P15,D02,0,0,0
1971,-45.0,1.0,45.0,1645184773.0,P15,D02,0,0,0
1972,-46.0,1.0,45.0,1645184773.03125,P15,D02,0,0,0
1973,-45.0,1.0,45.0,1645184773.0625,P15,D02,0,0,0
1974,-46.0,1.0,45.0,1645184773.09375,P15,D02,0,0,0
1975,-46.0,1.0,44.0,1645184773.125,P15,D02,0,0,0
1976,-46.0,1.0,45.0,1645184773.15625,P15,D02,0,0,0
1977,-46.0,1.0,45.0,1645184773.1875,P15,D02,0,0,0
1978,-45.0,1.0,45.0,1645184773.21875,P15,D02,0,0,0
1979,-45.0,1.0,45.0,1645184773.25,P15,D02,0,0,0
1980,-46.0,1.0,45.0,1645184773.28125,P15,D02,0,0,0
1981,-45.0,1.0,45.0,1645184773.3125,P15,D02,0,0,0
1982,-45.0,1.0,45.0,1645184773.34375,P15,D02,0,0,0
1983,-46.0,1.0,45.0,1645184773.375,P15,D02,0,0,0
1984,-46.0,1.0,45.0,1645184773.40625,P15,D02,0,0,0
1985,-45.0,1.0,45.0,1645184773.4375,P15,D02,0,0,0
1986,-46.0,1.0,45.0,1645184773.46875,P15,D02,0,0,0
1987,-46.0,1.0,45.0,1645184773.5,P15,D02,0,0,0
1988,-46.0,1.0,45.0,1645184773.53125,P15,D02,0,0,0
1989,-46.0,2.0,45.0,1645184773.5625,P15,D02,0,0,0
1990,-45.0,1.0,45.0,1645184773.59375,P15,D02,0,0,0
1991,-45.0,1.0,45.0,1645184773.625,P15,D02,0,0,0
1992,-46.0,1.0,44.0,1645184773.65625,P15,D02,0,0,0
1993,-46.0,1.0,44.0,1645184773.6875,P15,D02,0,0,0
1994,-46.0,1.0,45.0,1645184773.71875,P15,D02,0,0,0
1995,-46.0,1.0,45.0,1645184773.75,P15,D02,0,0,0
1996,-45.0,1.0,45.0,1645184773.78125,P15,D02,0,0,0
1997,-46.0,1.0,44.0,1645184773.8125,P15,D02,0,0,0
1998,-46.0,1.0,44.0,1645184773.84375,P15,D02,0,0,0
1999,-45.0,1.0,45.0,1645184773.875,P15,D02,0,0,0
2000,-46.0,1.0,44.0,1645184773.90625,P15,D02,0,0,0
2001,-46.0,1.0,44.0,1645184773.9375,P15,D02,0,0,0
2002,-46.0,1.0,45.0,1645184773.96875,P15,D02,0,0,0
2003,-46.0,1.0,45.0,1645184774.0,P15,D02,0,0,0
2004,-46.0,1.0,45.0,1645184774.03125,P15,D02,0,0,0
2005,-46.0,1.0,45.0,1645184774.0625,P15,D02,0,0,0
2006,-46.0,1.0,45.0,1645184774.09375,P15,D02,0,0,0
2007,-45.0,1.0,45.0,1645184774.125,P15,D02,0,0,0
2008,-45.0,1.0,45.0,1645184774.15625,P15,D02,0,0,0
2009,-46.0,1.0,44.0,1645184774.1875,P15,D02,0,0,0
2010,-46.0,1.0,44.0,1645184774.21875,P15,D02,0,0,0
2011,-46.0,1.0,45.0,1645184774.25,P15,D02,0,0,0
2012,-46.0,1.0,44.0,1645184774.28125,P15,D02,0,0,0
2013,-45.0,1.0,45.0,1645184774.3125,P15,D02,0,0,0
2014,-46.0,1.0,45.0,1645184774.34375,P15,D02,0,0,0
2015,-46.0,1.0,45.0,1645184774.375,P15,D02,0,0,0
2016,-45.0,1.0,45.0,1645184774.40625,P15,D02,0,0,0
2017,-45.0,1.0,45.0,1645184774.4375,P15,D02,0,0,0
2018,-46.0,1.0,44.0,1645184774.46875,P15,D02,0,0,0
2019,-45.0,1.0,45.0,1645184774.5,P15,D02,0,0,0
2020,-46.0,1.0,45.0,1645184774.53125,P15,D02,0,0,0
2021,-46.0,1.0,44.0,1645184774.5625,P15,D02,0,0,0
2022,-45.0,1.0,45.0,1645184774.59375,P15,D02,0,0,0
2023,-46.0,1.0,45.0,1645184774.625,P15,D02,0,0,0
2024,-45.0,1.0,45.0,1645184774.65625,P15,D02,0,0,0
2025,-45.0,1.0,45.0,1645184774.6875,P15,D02,0,0,0
2026,-46.0,1.0,45.0,1645184774.71875,P15,D02,0,0,0
2027,-46.0,1.0,45.0,1645184774.75,P15,D02,0,0,0
2028,-46.0,1.0,44.0,1645184774.78125,P15,D02,0,0,0
2029,-46.0,1.0,45.0,1645184774.8125,P15,D02,0,0,0
2030,-45.0,1.0,45.0,1645184774.84375,P15,D02,0,0,0
2031,-46.0,1.0,45.0,1645184774.875,P15,D02,0,0,0
2032,-46.0,1.0,44.0,1645184774.90625,P15,D02,0,0,0
2033,-45.0,1.0,45.0,1645184774.9375,P15,D02,0,0,0
2034,-45.0,1.0,45.0,1645184774.96875,P15,D02,0,0,0
2035,-46.0,1.0,44.0,1645184775.0,P15,D02,0,0,0
2036,-46.0,1.0,45.0,1645184775.03125,P15,D02,0,0,0
2037,-46.0,1.0,45.0,1645184775.0625,P15,D02,0,0,0
2038,-46.0,1.0,45.0,1645184775.09375,P15,D02,0,0,0
2039,-46.0,1.0,45.0,1645184775.125,P15,D02,0,0,0
2040,-46.0,1.0,45.0,1645184775.15625,P15,D02,0,0,0
2041,-45.0,1.0,45.0,1645184775.1875,P15,D02,0,0,0
2042,-46.0,1.0,45.0,1645184775.21875,P15,D02,0,0,0
2043,-46.0,1.0,45.0,1645184775.25,P15,D02,0,0,0
2044,-46.0,1.0,45.0,1645184775.28125,P15,D02,0,0,0
2045,-45.0,1.0,45.0,1645184775.3125,P15,D02,0,0,0
2046,-46.0,1.0,44.0,1645184775.34375,P15,D02,0,0,0
2047,-46.0,1.0,45.0,1645184775.375,P15,D02,0,0,0
2048,-45.0,1.0,45.0,1645184775.40625,P15,D02,0,0,0
2049,-46.0,1.0,44.0,1645184775.4375,P15,D02,0,0,0
2050,-46.0,1.0,44.0,1645184775.46875,P15,D02,0,0,0
2051,-45.0,1.0,45.0,1645184775.5,P15,D02,0,0,0
2052,-45.0,1.0,45.0,1645184775.53125,P15,D02,0,0,0
2053,-46.0,1.0,45.0,1645184775.5625,P15,D02,0,0,0
2054,-46.0,1.0,45.0,1645184775.59375,P15,D02,0,0,0
2055,-45.0,1.0,45.0,1645184775.625,P15,D02,0,0,0
2056,-46.0,1.0,45.0,1645184775.65625,P15,D02,0,0,0
2057,-45.0,1.0,45.0,1645184775.6875,P15,D02,0,0,0
2058,-46.0,1.0,45.0,1645184775.71875,P15,D02,0,0,0
2059,-46.0,1.0,45.0,1645184775.75,P15,D02,0,0,0
2060,-45.0,1.0,45.0,1645184775.78125,P15,D02,0,0,0
2061,-45.0,1.0,45.0,1645184775.8125,P15,D02,0,0,0
2062,-45.0,1.0,45.0,1645184775.84375,P15,D02,0,0,0
2063,-45.0,1.0,45.0,1645184775.875,P15,D02,0,0,0
2064,-46.0,1.0,45.0,1645184775.90625,P15,D02,0,0,0
2065,-45.0,1.0,45.0,1645184775.9375,P15,D02,0,0,0
2066,-45.0,1.0,45.0,1645184775.96875,P15,D02,0,0,0
2067,-46.0,1.0,45.0,1645184776.0,P15,D02,0,0,0
2068,-45.0,1.0,45.0,1645184776.03125,P15,D02,0,0,0
2069,-45.0,1.0,45.0,1645184776.0625,P15,D02,0,0,0
2070,-45.0,1.0,45.0,1645184776.09375,P15,D02,0,0,0
2071,-46.0,1.0,45.0,1645184776.125,P15,D02,0,0,0
2072,-45.0,1.0,45.0,1645184776.15625,P15,D02,0,0,0
2073,-45.0,1.0,45.0,1645184776.1875,P15,D02,0,0,0
2074,-46.0,1.0,45.0,1645184776.21875,P15,D02,0,0,0
2075,-44.0,1.0,46.0,1645184776.25,P15,D02,0,0,0
2076,-44.0,1.0,45.0,1645184776.28125,P15,D02,0,0,0
2077,-47.0,1.0,44.0,1645184776.3125,P15,D02,0,0,0
2078,-47.0,1.0,44.0,1645184776.34375,P15,D02,0,0,0
2079,-44.0,1.0,45.0,1645184776.375,P15,D02,0,0,0
2080,-45.0,1.0,45.0,1645184776.40625,P15,D02,0,0,0
2081,-47.0,1.0,44.0,1645184776.4375,P15,D02,0,0,0
2082,-45.0,1.0,45.0,1645184776.46875,P15,D02,0,0,0
2083,-45.0,2.0,45.0,1645184776.5,P15,D02,0,0,0
2084,-46.0,1.0,45.0,1645184776.53125,P15,D02,0,0,0
2085,-45.0,1.0,45.0,1645184776.5625,P15,D02,0,0,0
2086,-45.0,1.0,45.0,1645184776.59375,P15,D02,0,0,0
2087,-45.0,1.0,45.0,1645184776.625,P15,D02,0,0,0
2088,-46.0,1.0,45.0,1645184776.65625,P15,D02,0,0,0
2089,-45.0,1.0,45.0,1645184776.6875,P15,D02,0,0,0
2090,-45.0,2.0,45.0,1645184776.71875,P15,D02,0,0,0
2091,-46.0,1.0,44.0,1645184776.75,P15,D02,0,0,0
2092,-46.0,1.0,45.0,1645184776.78125,P15,D02,0,0,0
2093,-45.0,1.0,45.0,1645184776.8125,P15,D02,0,0,0
2094,-45.0,1.0,45.0,1645184776.84375,P15,D02,0,0,0
2095,-46.0,1.0,44.0,1645184776.875,P15,D02,0,0,0
2096,-47.0,1.0,44.0,1645184776.90625,P15,D02,0,0,0
2097,-45.0,1.0,45.0,1645184776.9375,P15,D02,0,0,0
2098,-45.0,1.0,45.0,1645184776.96875,P15,D02,0,0,0
2099,-46.0,1.0,44.0,1645184777.0,P15,D02,0,0,0
2100,-46.0,1.0,45.0,1645184777.03125,P15,D02,0,0,0
2101,-46.0,1.0,45.0,1645184777.0625,P15,D02,0,0,0
2102,-45.0,1.0,45.0,1645184777.09375,P15,D02,0,0,0
2103,-46.0,1.0,44.0,1645184777.125,P15,D02,0,0,0
2104,-46.0,1.0,45.0,1645184777.15625,P15,D02,0,0,0
2105,-46.0,1.0,45.0,1645184777.1875,P15,D02,0,0,0
2106,-46.0,1.0,45.0,1645184777.21875,P15,D02,0,0,0
2107,-46.0,1.0,45.0,1645184777.25,P15,D02,0,0,0
2108,-45.0,1.0,45.0,1645184777.28125,P15,D02,0,0,0
2109,-45.0,1.0,45.0,1645184777.3125,P15,D02,0,0,0
2110,-46.0,1.0,45.0,1645184777.34375,P15,D02,0,0,0
2111,-45.0,1.0,45.0,1645184777.375,P15,D02,0,0,0
2112,-46.0,1.0,45.0,1645184777.40625,P15,D02,0,0,0
2113,-46.0,1.0,45.0,1645184777.4375,P15,D02,0,0,0
2114,-45.0,1.0,45.0,1645184777.46875,P15,D02,0,0,0
2115,-46.0,1.0,44.0,1645184777.5,P15,D02,0,0,0
2116,-45.0,1.0,45.0,1645184777.53125,P15,D02,0,0,0
2117,-45.0,1.0,45.0,1645184777.5625,P15,D02,0,0,0
2118,-46.0,1.0,45.0,1645184777.59375,P15,D02,0,0,0
2119,-45.0,1.0,45.0,1645184777.625,P15,D02,0,0,0
2120,-45.0,1.0,45.0,1645184777.65625,P15,D02,0,0,0
2121,-46.0,1.0,45.0,1645184777.6875,P15,D02,0,0,0
2122,-46.0,1.0,45.0,1645184777.71875,P15,D02,0,0,0
2123,-46.0,1.0,45.0,1645184777.75,P15,D02,0,0,0
2124,-46.0,1.0,45.0,1645184777.78125,P15,D02,0,0,0
2125,-45.0,1.0,45.0,1645184777.8125,P15,D02,0,0,0
2126,-45.0,1.0,45.0,1645184777.84375,P15,D02,0,0,0
2127,-46.0,1.0,45.0,1645184777.875,P15,D02,0,0,0
2128,-46.0,1.0,44.0,1645184777.90625,P15,D02,0,0,0
2129,-45.0,1.0,45.0,1645184777.9375,P15,D02,0,0,0
2130,-46.0,1.0,45.0,1645184777.96875,P15,D02,0,0,0
2131,-46.0,1.0,44.0,1645184778.0,P15,D02,0,0,0
2132,-46.0,1.0,44.0,1645184778.03125,P15,D02,0,0,0
2133,-46.0,1.0,45.0,1645184778.0625,P15,D02,0,0,0
2134,-45.0,1.0,45.0,1645184778.09375,P15,D02,0,0,0
2135,-46.0,1.0,44.0,1645184778.125,P15,D02,0,0,0
2136,-46.0,1.0,45.0,1645184778.15625,P15,D02,0,0,0
2137,-45.0,1.0,45.0,1645184778.1875,P15,D02,0,0,0
2138,-46.0,1.0,45.0,1645184778.21875,P15,D02,0,0,0
2139,-46.0,1.0,45.0,1645184778.25,P15,D02,0,0,0
2140,-45.0,1.0,45.0,1645184778.28125,P15,D02,0,0,0
2141,-46.0,1.0,44.0,1645184778.3125,P15,D02,0,0,0
2142,-46.0,1.0,45.0,1645184778.34375,P15,D02,0,0,0
2143,-45.0,1.0,45.0,1645184778.375,P15,D02,0,0,0
2144,-46.0,1.0,45.0,1645184778.40625,P15,D02,0,0,0
2145,-46.0,1.0,45.0,1645184778.4375,P15,D02,0,0,0
2146,-45.0,1.0,45.0,1645184778.46875,P15,D02,0,0,0
2147,-46.0,1.0,44.0,1645184778.5,P15,D02,0,0,0
2148,-46.0,1.0,44.0,1645184778.53125,P15,D02,0,0,0
2149,-46.0,1.0,45.0,1645184778.5625,P15,D02,0,0,0
2150,-46.0,1.0,44.0,1645184778.59375,P15,D02,0,0,0
2151,-45.0,1.0,45.0,1645184778.625,P15,D02,0,0,0
2152,-45.0,1.0,45.0,1645184778.65625,P15,D02,0,0,0
2153,-46.0,1.0,44.0,1645184778.6875,P15,D02,0,0,0
2154,-45.0,1.0,45.0,1645184778.71875,P15,D02,0,0,0
2155,-45.0,1.0,45.0,1645184778.75,P15,D02,0,0,0
2156,-46.0,1.0,44.0,1645184778.78125,P15,D02,0,0,0
2157,-46.0,1.0,45.0,1645184778.8125,P15,D02,0,0,0
2158,-46.0,1.0,44.0,1645184778.84375,P15,D02,0,0,0
2159,-46.0,1.0,44.0,1645184778.875,P15,D02,0,0,0
2160,-46.0,1.0,45.0,1645184778.90625,P15,D02,0,0,0
2161,-46.0,1.0,44.0,1645184778.9375,P15,D02,0,0,0
2162,-46.0,1.0,45.0,1645184778.96875,P15,D02,0,0,0
2163,-46.0,1.0,44.0,1645184779.0,P15,D02,0,0,0
2164,-46.0,1.0,45.0,1645184779.03125,P15,D02,0,0,0
2165,-45.0,1.0,45.0,1645184779.0625,P15,D02,0,0,0
2166,-45.0,1.0,45.0,1645184779.09375,P15,D02,0,0,0
2167,-46.0,1.0,44.0,1645184779.125,P15,D02,0,0,0
2168,-46.0,1.0,45.0,1645184779.15625,P15,D02,0,0,0
2169,-46.0,1.0,45.0,1645184779.1875,P15,D02,0,0,0
2170,-45.0,1.0,45.0,1645184779.21875,P15,D02,0,0,0
2171,-46.0,1.0,45.0,1645184779.25,P15,D02,0,0,0
2172,-46.0,1.0,44.0,1645184779.28125,P15,D02,0,0,0
2173,-46.0,1.0,45.0,1645184779.3125,P15,D02,0,0,0
2174,-46.0,1.0,45.0,1645184779.34375,P15,D02,0,0,0
2175,-46.0,1.0,45.0,1645184779.375,P15,D02,0,0,0
2176,-46.0,1.0,44.0,1645184779.40625,P15,D02,0,0,0
2177,-46.0,1.0,45.0,1645184779.4375,P15,D02,0,0,0
2178,-45.0,1.0,45.0,1645184779.46875,P15,D02,0,0,0
2179,-46.0,1.0,45.0,1645184779.5,P15,D02,0,0,0
2180,-46.0,1.0,45.0,1645184779.53125,P15,D02,0,0,0
2181,-46.0,1.0,45.0,1645184779.5625,P15,D02,0,0,0
2182,-46.0,1.0,44.0,1645184779.59375,P15,D02,0,0,0
2183,-45.0,1.0,45.0,1645184779.625,P15,D02,0,0,0
2184,-45.0,1.0,45.0,1645184779.65625,P15,D02,0,0,0
2185,-46.0,1.0,44.0,1645184779.6875,P15,D02,0,0,0
2186,-46.0,1.0,44.0,1645184779.71875,P15,D02,0,0,0
2187,-45.0,1.0,45.0,1645184779.75,P15,D02,0,0,0
2188,-46.0,1.0,45.0,1645184779.78125,P15,D02,0,0,0
2189,-45.0,1.0,45.0,1645184779.8125,P15,D02,0,0,0
2190,-46.0,1.0,44.0,1645184779.84375,P15,D02,0,0,0
2191,-45.0,1.0,45.0,1645184779.875,P15,D02,0,0,0
2192,-45.0,1.0,45.0,1645184779.90625,P15,D02,0,0,0
2193,-46.0,1.0,45.0,1645184779.9375,P15,D02,0,0,0
2194,-46.0,1.0,45.0,1645184779.96875,P15,D02,0,0,0
2195,-46.0,1.0,44.0,1645184780.0,P15,D02,0,0,0
2196,-45.0,1.0,45.0,1645184780.03125,P15,D02,0,0,0
2197,-46.0,1.0,45.0,1645184780.0625,P15,D02,0,0,0
2198,-46.0,1.0,45.0,1645184780.09375,P15,D02,0,0,0
2199,-45.0,1.0,45.0,1645184780.125,P15,D02,0,0,0
2200,-45.0,1.0,45.0,1645184780.15625,P15,D02,0,0,0
2201,-45.0,1.0,45.0,1645184780.1875,P15,D02,0,0,0
2202,-45.0,1.0,45.0,1645184780.21875,P15,D02,0,0,0
2203,-46.0,1.0,45.0,1645184780.25,P15,D02,0,0,0
2204,-46.0,2.0,45.0,1645184780.28125,P15,D02,0,0,0
2205,-45.0,1.0,45.0,1645184780.3125,P15,D02,0,0,0
2206,-45.0,1.0,45.0,1645184780.34375,P15,D02,0,0,0
2207,-46.0,1.0,45.0,1645184780.375,P15,D02,0,0,0
2208,-45.0,1.0,45.0,1645184780.40625,P15,D02,0,0,0
2209,-46.0,1.0,45.0,1645184780.4375,P15,D02,0,0,0
2210,-45.0,1.0,45.0,1645184780.46875,P15,D02,0,0,0
2211,-45.0,1.0,45.0,1645184780.5,P15,D02,0,0,0
2212,-45.0,1.0,45.0,1645184780.53125,P15,D02,0,0,0
2213,-45.0,1.0,45.0,1645184780.5625,P15,D02,0,0,0
2214,-45.0,1.0,45.0,1645184780.59375,P15,D02,0,0,0
2215,-45.0,1.0,45.0,1645184780.625,P15,D02,0,0,0
2216,-45.0,1.0,45.0,1645184780.65625,P15,D02,0,0,0
2217,-46.0,1.0,45.0,1645184780.6875,P15,D02,0,0,0
2218,-45.0,1.0,45.0,1645184780.71875,P15,D02,0,0,0
2219,-45.0,1.0,45.0,1645184780.75,P15,D02,0,0,0
2220,-46.0,1.0,45.0,1645184780.78125,P15,D02,0,0,0
2221,-46.0,1.0,45.0,1645184780.8125,P15,D02,0,0,0
2222,-45.0,1.0,45.0,1645184780.84375,P15,D02,0,0,0
2223,-45.0,1.0,45.0,1645184780.875,P15,D02,0,0,0
2224,-45.0,1.0,45.0,1645184780.90625,P15,D02,0,0,0
2225,-45.0,1.0,45.0,1645184780.9375,P15,D02,0,0,0
2226,-45.0,1.0,45.0,1645184780.96875,P15,D02,0,0,0
2227,-45.0,2.0,45.0,1645184781.0,P15,D02,0,0,0
2228,-46.0,1.0,45.0,1645184781.03125,P15,D02,0,0,0
2229,-45.0,1.0,45.0,1645184781.0625,P15,D02,0,0,0
2230,-45.0,1.0,45.0,1645184781.09375,P15,D02,0,0,0
2231,-45.0,1.0,45.0,1645184781.125,P15,D02,0,0,0
2232,-45.0,1.0,45.0,1645184781.15625,P15,D02,0,0,0
2233,-45.0,1.0,45.0,1645184781.1875,P15,D02,0,0,0
2234,-45.0,1.0,45.0,1645184781.21875,P15,D02,0,0,0
2235,-45.0,1.0,45.0,1645184781.25,P15,D02,0,0,0
2236,-45.0,1.0,45.0,1645184781.28125,P15,D02,0,0,0
2237,-45.0,1.0,45.0,1645184781.3125,P15,D02,0,0,0
2238,-45.0,1.0,45.0,1645184781.34375,P15,D02,0,0,0
2239,-45.0,1.0,45.0,1645184781.375,P15,D02,0,0,0
2240,-46.0,1.0,45.0,1645184781.40625,P15,D02,0,0,0
2241,-45.0,1.0,45.0,1645184781.4375,P15,D02,0,0,0
2242,-45.0,1.0,45.0,1645184781.46875,P15,D02,0,0,0
2243,-46.0,1.0,45.0,1645184781.5,P15,D02,0,0,0
2244,-45.0,1.0,45.0,1645184781.53125,P15,D02,0,0,0
2245,-45.0,1.0,45.0,1645184781.5625,P15,D02,0,0,0
2246,-46.0,1.0,45.0,1645184781.59375,P15,D02,0,0,0
2247,-45.0,1.0,45.0,1645184781.625,P15,D02,0,0,0
2248,-45.0,1.0,45.0,1645184781.65625,P15,D02,0,0,0
2249,-46.0,1.0,45.0,1645184781.6875,P15,D02,0,0,0
2250,-45.0,1.0,45.0,1645184781.71875,P15,D02,0,0,0
2251,-45.0,1.0,45.0,1645184781.75,P15,D02,0,0,0
2252,-45.0,1.0,45.0,1645184781.78125,P15,D02,0,0,0
2253,-46.0,1.0,45.0,1645184781.8125,P15,D02,0,0,0
2254,-45.0,1.0,45.0,1645184781.84375,P15,D02,0,0,0
2255,-45.0,1.0,45.0,1645184781.875,P15,D02,0,0,0
2256,-45.0,1.0,45.0,1645184781.90625,P15,D02,0,0,0
2257,-46.0,1.0,45.0,1645184781.9375,P15,D02,0,0,0
2258,-45.0,1.0,45.0,1645184781.96875,P15,D02,0,0,0
2259,-45.0,1.0,45.0,1645184782.0,P15,D02,0,0,0
2260,-46.0,1.0,45.0,1645184782.03125,P15,D02,0,0,0
2261,-46.0,1.0,45.0,1645184782.0625,P15,D02,0,0,0
2262,-45.0,1.0,45.0,1645184782.09375,P15,D02,0,0,0
2263,-45.0,1.0,45.0,1645184782.125,P15,D02,0,0,0
2264,-45.0,1.0,45.0,1645184782.15625,P15,D02,0,0,0
2265,-46.0,1.0,45.0,1645184782.1875,P15,D02,0,0,0
2266,-45.0,1.0,45.0,1645184782.21875,P15,D02,0,0,0
2267,-45.0,1.0,45.0,1645184782.25,P15,D02,0,0,0
2268,-45.0,1.0,45.0,1645184782.28125,P15,D02,0,0,0
2269,-45.0,1.0,45.0,1645184782.3125,P15,D02,0,0,0
2270,-45.0,1.0,45.0,1645184782.34375,P15,D02,0,0,0
2271,-45.0,1.0,45.0,1645184782.375,P15,D02,0,0,0
2272,-45.0,1.0,45.0,1645184782.40625,P15,D02,0,0,0
2273,-45.0,1.0,45.0,1645184782.4375,P15,D02,0,0,0
2274,-45.0,1.0,45.0,1645184782.46875,P15,D02,0,0,0
2275,-46.0,1.0,45.0,1645184782.5,P15,D02,0,0,0
2276,-46.0,1.0,45.0,1645184782.53125,P15,D02,0,0,0
2277,-45.0,1.0,45.0,1645184782.5625,P15,D02,0,0,0
2278,-45.0,1.0,45.0,1645184782.59375,P15,D02,0,0,0
2279,-46.0,1.0,45.0,1645184782.625,P15,D02,0,0,0
2280,-45.0,1.0,45.0,1645184782.65625,P15,D02,0,0,0
2281,-46.0,1.0,45.0,1645184782.6875,P15,D02,0,0,0
2282,-45.0,1.0,45.0,1645184782.71875,P15,D02,0,0,0
2283,-45.0,1.0,45.0,1645184782.75,P15,D02,0,0,0
2284,-46.0,1.0,44.0,1645184782.78125,P15,D02,0,0,0
2285,-45.0,1.0,45.0,1645184782.8125,P15,D02,0,0,0
2286,-45.0,1.0,45.0,1645184782.84375,P15,D02,0,0,0
2287,-46.0,1.0,44.0,1645184782.875,P15,D02,0,0,0
2288,-45.0,1.0,45.0,1645184782.90625,P15,D02,0,0,0
2289,-45.0,1.0,45.0,1645184782.9375,P15,D02,0,0,0
2290,-45.0,1.0,45.0,1645184782.96875,P15,D02,0,0,0
2291,-46.0,1.0,45.0,1645184783.0,P15,D02,0,0,0
2292,-46.0,1.0,45.0,1645184783.03125,P15,D02,0,0,0
2293,-45.0,1.0,45.0,1645184783.0625,P15,D02,0,0,0
2294,-45.0,1.0,45.0,1645184783.09375,P15,D02,0,0,0
2295,-45.0,1.0,45.0,1645184783.125,P15,D02,0,0,0
2296,-46.0,1.0,44.0,1645184783.15625,P15,D02,0,0,0
2297,-46.0,1.0,45.0,1645184783.1875,P15,D02,0,0,0
2298,-46.0,1.0,45.0,1645184783.21875,P15,D02,0,0,0
2299,-46.0,1.0,45.0,1645184783.25,P15,D02,0,0,0
2300,-45.0,1.0,45.0,1645184783.28125,P15,D02,0,0,0
2301,-46.0,1.0,45.0,1645184783.3125,P15,D02,0,0,0
2302,-46.0,1.0,45.0,1645184783.34375,P15,D02,0,0,0
2303,-45.0,1.0,45.0,1645184783.375,P15,D02,0,0,0
2304,-45.0,1.0,45.0,1645184783.40625,P15,D02,0,0,0
2305,-45.0,1.0,44.0,1645184783.4375,P15,D02,0,0,0
2306,-46.0,1.0,44.0,1645184783.46875,P15,D02,0,0,0
2307,-46.0,1.0,45.0,1645184783.5,P15,D02,0,0,0
2308,-46.0,1.0,45.0,1645184783.53125,P15,D02,0,0,0
2309,-45.0,1.0,45.0,1645184783.5625,P15,D02,0,0,0
2310,-46.0,1.0,45.0,1645184783.59375,P15,D02,0,0,0
2311,-46.0,1.0,45.0,1645184783.625,P15,D02,0,0,0
2312,-45.0,1.0,45.0,1645184783.65625,P15,D02,0,0,0
2313,-46.0,1.0,45.0,1645184783.6875,P15,D02,0,0,0
2314,-45.0,1.0,45.0,1645184783.71875,P15,D02,0,0,0
2315,-46.0,1.0,45.0,1645184783.75,P15,D02,0,0,0
2316,-46.0,1.0,45.0,1645184783.78125,P15,D02,0,0,0
2317,-46.0,1.0,45.0,1645184783.8125,P15,D02,0,0,0
2318,-45.0,1.0,45.0,1645184783.84375,P15,D02,0,0,0
2319,-45.0,1.0,45.0,1645184783.875,P15,D02,0,0,0
2320,-45.0,1.0,45.0,1645184783.90625,P15,D02,0,0,0
2321,-46.0,1.0,45.0,1645184783.9375,P15,D02,0,0,0
2322,-45.0,1.0,45.0,1645184783.96875,P15,D02,0,0,0
2323,-45.0,1.0,45.0,1645184784.0,P15,D02,0,0,0
2324,-45.0,1.0,45.0,1645184784.03125,P15,D02,0,0,0
2325,-46.0,1.0,45.0,1645184784.0625,P15,D02,0,0,0
2326,-46.0,1.0,45.0,1645184784.09375,P15,D02,0,0,0
2327,-45.0,1.0,45.0,1645184784.125,P15,D02,0,0,0
2328,-46.0,1.0,45.0,1645184784.15625,P15,D02,0,0,0
2329,-45.0,1.0,45.0,1645184784.1875,P15,D02,0,0,0
2330,-45.0,1.0,45.0,1645184784.21875,P15,D02,0,0,0
2331,-46.0,1.0,45.0,1645184784.25,P15,D02,0,0,0
2332,-45.0,1.0,45.0,1645184784.28125,P15,D02,0,0,0
2333,-45.0,1.0,45.0,1645184784.3125,P15,D02,0,0,0
2334,-46.0,1.0,45.0,1645184784.34375,P15,D02,0,0,0
2335,-46.0,1.0,45.0,1645184784.375,P15,D02,0,0,0
2336,-45.0,1.0,45.0,1645184784.40625,P15,D02,0,0,0
2337,-45.0,1.0,45.0,1645184784.4375,P15,D02,0,0,0
2338,-45.0,1.0,45.0,1645184784.46875,P15,D02,0,0,0
2339,-45.0,1.0,45.0,1645184784.5,P15,D02,0,0,0
2340,-46.0,1.0,45.0,1645184784.53125,P15,D02,0,0,0
2341,-46.0,1.0,45.0,1645184784.5625,P15,D02,0,0,0
2342,-45.0,1.0,45.0,1645184784.59375,P15,D02,0,0,0
2343,-45.0,1.0,45.0,1645184784.625,P15,D02,0,0,0
2344,-46.0,1.0,45.0,1645184784.65625,P15,D02,0,0,0
2345,-45.0,1.0,45.0,1645184784.6875,P15,D02,0,0,0
2346,-45.0,1.0,45.0,1645184784.71875,P15,D02,0,0,0
2347,-45.0,1.0,45.0,1645184784.75,P15,D02,0,0,0
2348,-45.0,1.0,45.0,1645184784.78125,P15,D02,0,0,0
2349,-45.0,1.0,45.0,1645184784.8125,P15,D02,0,0,0
2350,-45.0,1.0,45.0,1645184784.84375,P15,D02,0,0,0
2351,-45.0,1.0,45.0,1645184784.875,P15,D02,0,0,0
2352,-46.0,1.0,45.0,1645184784.90625,P15,D02,0,0,0
2353,-45.0,1.0,45.0,1645184784.9375,P15,D02,0,0,0
2354,-45.0,1.0,45.0,1645184784.96875,P15,D02,0,0,0
2355,-45.0,1.0,45.0,1645184785.0,P15,D02,0,0,0
2356,-45.0,1.0,45.0,1645184785.03125,P15,D02,0,0,0
2357,-45.0,1.0,45.0,1645184785.0625,P15,D02,0,0,0
2358,-45.0,1.0,45.0,1645184785.09375,P15,D02,0,0,0
2359,-45.0,1.0,45.0,1645184785.125,P15,D02,0,0,0
2360,-45.0,1.0,45.0,1645184785.15625,P15,D02,0,0,0
2361,-45.0,1.0,45.0,1645184785.1875,P15,D02,0,0,0
2362,-46.0,1.0,45.0,1645184785.21875,P15,D02,0,0,0
2363,-45.0,1.0,45.0,1645184785.25,P15,D02,0,0,0
2364,-45.0,1.0,45.0,1645184785.28125,P15,D02,0,0,0
2365,-45.0,1.0,45.0,1645184785.3125,P15,D02,0,0,0
2366,-45.0,1.0,45.0,1645184785.34375,P15,D02,0,0,0
2367,-45.0,1.0,45.0,1645184785.375,P15,D02,0,0,0
2368,-45.0,1.0,45.0,1645184785.40625,P15,D02,0,0,0
2369,-45.0,1.0,45.0,1645184785.4375,P15,D02,0,0,0
2370,-45.0,1.0,45.0,1645184785.46875,P15,D02,0,0,0
2371,-46.0,1.0,45.0,1645184785.5,P15,D02,0,0,0
2372,-45.0,1.0,45.0,1645184785.53125,P15,D02,0,0,0
2373,-45.0,1.0,45.0,1645184785.5625,P15,D02,0,0,0
2374,-45.0,1.0,45.0,1645184785.59375,P15,D02,0,0,0
2375,-45.0,1.0,45.0,1645184785.625,P15,D02,0,0,0
2376,-46.0,1.0,45.0,1645184785.65625,P15,D02,0,0,0
2377,-46.0,1.0,45.0,1645184785.6875,P15,D02,0,0,0
2378,-45.0,1.0,45.0,1645184785.71875,P15,D02,0,0,0
2379,-45.0,1.0,45.0,1645184785.75,P15,D02,0,0,0
2380,-45.0,1.0,45.0,1645184785.78125,P15,D02,0,0,0
2381,-45.0,1.0,45.0,1645184785.8125,P15,D02,0,0,0
2382,-45.0,1.0,45.0,1645184785.84375,P15,D02,0,0,0
2383,-45.0,1.0,45.0,1645184785.875,P15,D02,0,0,0
2384,-45.0,1.0,45.0,1645184785.90625,P15,D02,0,0,0
2385,-45.0,1.0,45.0,1645184785.9375,P15,D02,0,0,0
2386,-45.0,1.0,45.0,1645184785.96875,P15,D02,0,0,0
2387,-45.0,1.0,45.0,1645184786.0,P15,D02,0,0,0
2388,-45.0,1.0,45.0,1645184786.03125,P15,D02,0,0,0
2389,-46.0,1.0,45.0,1645184786.0625,P15,D02,0,0,0
2390,-46.0,1.0,45.0,1645184786.09375,P15,D02,0,0,0
2391,-45.0,1.0,45.0,1645184786.125,P15,D02,0,0,0
2392,-45.0,1.0,45.0,1645184786.15625,P15,D02,0,0,0
2393,-45.0,1.0,45.0,1645184786.1875,P15,D02,0,0,0
2394,-45.0,1.0,45.0,1645184786.21875,P15,D02,0,0,0
2395,-46.0,1.0,45.0,1645184786.25,P15,D02,0,0,0
2396,-45.0,1.0,45.0,1645184786.28125,P15,D02,0,0,0
2397,-45.0,1.0,45.0,1645184786.3125,P15,D02,0,0,0
2398,-46.0,1.0,45.0,1645184786.34375,P15,D02,0,0,0
2399,-45.0,1.0,45.0,1645184786.375,P15,D02,0,0,0
2400,-45.0,1.0,45.0,1645184786.40625,P15,D02,0,0,0
2401,-45.0,1.0,45.0,1645184786.4375,P15,D02,0,0,0
2402,-45.0,1.0,45.0,1645184786.46875,P15,D02,0,0,0
2403,-45.0,1.0,45.0,1645184786.5,P15,D02,0,0,0
2404,-45.0,1.0,45.0,1645184786.53125,P15,D02,0,0,0
2405,-45.0,1.0,45.0,1645184786.5625,P15,D02,0,0,0
2406,-46.0,1.0,45.0,1645184786.59375,P15,D02,0,0,0
2407,-46.0,1.0,45.0,1645184786.625,P15,D02,0,0,0
2408,-45.0,1.0,45.0,1645184786.65625,P15,D02,0,0,0
2409,-45.0,1.0,45.0,1645184786.6875,P15,D02,0,0,0
2410,-46.0,1.0,45.0,1645184786.71875,P15,D02,0,0,0
2411,-45.0,1.0,45.0,1645184786.75,P15,D02,0,0,0
2412,-45.0,1.0,45.0,1645184786.78125,P15,D02,0,0,0
2413,-45.0,1.0,45.0,1645184786.8125,P15,D02,0,0,0
2414,-45.0,1.0,45.0,1645184786.84375,P15,D02,0,0,0
2415,-45.0,1.0,45.0,1645184786.875,P15,D02,0,0,0
2416,-45.0,1.0,45.0,1645184786.90625,P15,D02,0,0,0
