,acc_x,acc_y,acc_z,timestamp,participant,document,val,arou,eng
0,-46.0,0.0,43.0,1644835654.375,P07,D02,0,0,1
1,-48.0,0.0,41.0,1644835654.40625,P07,D02,0,0,1
2,-48.0,0.0,42.0,1644835654.4375,P07,D02,0,0,1
3,-48.0,0.0,42.0,1644835654.46875,P07,D02,0,0,1
4,-49.0,0.0,42.0,1644835654.5,P07,D02,0,0,1
5,-48.0,0.0,42.0,1644835654.53125,P07,D02,0,0,1
6,-48.0,0.0,42.0,1644835654.5625,P07,D02,0,0,1
7,-48.0,0.0,42.0,1644835654.59375,P07,D02,0,0,1
8,-48.0,0.0,42.0,1644835654.625,P07,D02,0,0,1
9,-48.0,0.0,42.0,1644835654.65625,P07,D02,0,0,1
10,-48.0,0.0,42.0,1644835654.6875,P07,D02,0,0,1
11,-48.0,0.0,42.0,1644835654.71875,P07,D02,0,0,1
12,-48.0,0.0,42.0,1644835654.75,P07,D02,0,0,1
13,-48.0,0.0,42.0,1644835654.78125,P07,D02,0,0,1
14,-48.0,0.0,42.0,1644835654.8125,P07,D02,0,0,1
15,-48.0,1.0,42.0,1644835654.84375,P07,D02,0,0,1
16,-48.0,0.0,42.0,1644835654.875,P07,D02,0,0,1
17,-48.0,0.0,42.0,1644835654.90625,P07,D02,0,0,1
18,-48.0,0.0,42.0,1644835654.9375,P07,D02,0,0,1
19,-48.0,0.0,42.0,1644835654.96875,P07,D02,0,0,1
20,-48.0,0.0,42.0,1644835655.0,P07,D02,0,0,1
21,-48.0,0.0,42.0,1644835655.03125,P07,D02,0,0,1
22,-48.0,0.0,42.0,1644835655.0625,P07,D02,0,0,1
23,-48.0,0.0,42.0,1644835655.09375,P07,D02,0,0,1
24,-48.0,0.0,43.0,1644835655.125,P07,D02,0,0,1
25,-48.0,0.0,42.0,1644835655.15625,P07,D02,0,0,1
26,-48.0,1.0,42.0,1644835655.1875,P07,D02,0,0,1
27,-48.0,0.0,42.0,1644835655.21875,P07,D02,0,0,1
28,-48.0,0.0,42.0,1644835655.25,P07,D02,0,0,1
29,-48.0,0.0,42.0,1644835655.28125,P07,D02,0,0,1
30,-48.0,0.0,42.0,1644835655.3125,P07,D02,0,0,1
31,-48.0,0.0,43.0,1644835655.34375,P07,D02,0,0,1
32,-48.0,0.0,42.0,1644835655.375,P07,D02,0,0,1
33,-47.0,0.0,43.0,1644835655.40625,P07,D02,0,0,1
34,-48.0,0.0,42.0,1644835655.4375,P07,D02,0,0,1
35,-48.0,0.0,42.0,1644835655.46875,P07,D02,0,0,1
36,-48.0,0.0,42.0,1644835655.5,P07,D02,0,0,1
37,-48.0,0.0,43.0,1644835655.53125,P07,D02,0,0,1
38,-48.0,0.0,42.0,1644835655.5625,P07,D02,0,0,1
39,-48.0,0.0,42.0,1644835655.59375,P07,D02,0,0,1
40,-47.0,0.0,43.0,1644835655.625,P07,D02,0,0,1
41,-47.0,1.0,43.0,1644835655.65625,P07,D02,0,0,1
42,-48.0,0.0,42.0,1644835655.6875,P07,D02,0,0,1
43,-47.0,0.0,42.0,1644835655.71875,P07,D02,0,0,1
44,-48.0,0.0,43.0,1644835655.75,P07,D02,0,0,1
45,-48.0,0.0,42.0,1644835655.78125,P07,D02,0,0,1
46,-48.0,0.0,43.0,1644835655.8125,P07,D02,0,0,1
47,-48.0,0.0,42.0,1644835655.84375,P07,D02,0,0,1
48,-48.0,0.0,42.0,1644835655.875,P07,D02,0,0,1
49,-48.0,0.0,43.0,1644835655.90625,P07,D02,0,0,1
50,-48.0,0.0,42.0,1644835655.9375,P07,D02,0,0,1
51,-48.0,0.0,42.0,1644835655.96875,P07,D02,0,0,1
52,-48.0,0.0,42.0,1644835656.0,P07,D02,0,0,1
53,-48.0,0.0,42.0,1644835656.03125,P07,D02,0,0,1
54,-48.0,0.0,42.0,1644835656.0625,P07,D02,0,0,1
55,-48.0,0.0,42.0,1644835656.09375,P07,D02,0,0,1
56,-48.0,0.0,42.0,1644835656.125,P07,D02,0,0,1
57,-48.0,0.0,43.0,1644835656.15625,P07,D02,0,0,1
58,-48.0,0.0,42.0,1644835656.1875,P07,D02,0,0,1
59,-48.0,0.0,42.0,1644835656.21875,P07,D02,0,0,1
60,-48.0,0.0,42.0,1644835656.25,P07,D02,0,0,1
61,-48.0,0.0,42.0,1644835656.28125,P07,D02,0,0,1
62,-48.0,0.0,42.0,1644835656.3125,P07,D02,0,0,1
63,-48.0,0.0,42.0,1644835656.34375,P07,D02,0,0,1
64,-48.0,0.0,43.0,1644835656.375,P07,D02,0,0,1
65,-48.0,0.0,42.0,1644835656.40625,P07,D02,0,0,1
66,-48.0,0.0,43.0,1644835656.4375,P07,D02,0,0,1
67,-47.0,0.0,43.0,1644835656.46875,P07,D02,0,0,1
68,-48.0,0.0,42.0,1644835656.5,P07,D02,0,0,1
69,-48.0,0.0,42.0,1644835656.53125,P07,D02,0,0,1
70,-48.0,0.0,43.0,1644835656.5625,P07,D02,0,0,1
71,-48.0,0.0,43.0,1644835656.59375,P07,D02,0,0,1
72,-48.0,0.0,42.0,1644835656.625,P07,D02,0,0,1
73,-48.0,0.0,42.0,1644835656.65625,P07,D02,0,0,1
74,-48.0,0.0,42.0,1644835656.6875,P07,D02,0,0,1
75,-48.0,0.0,42.0,1644835656.71875,P07,D02,0,0,1
76,-48.0,0.0,42.0,1644835656.75,P07,D02,0,0,1
77,-48.0,0.0,42.0,1644835656.78125,P07,D02,0,0,1
78,-48.0,0.0,42.0,1644835656.8125,P07,D02,0,0,1
79,-48.0,0.0,42.0,1644835656.84375,P07,D02,0,0,1
80,-48.0,0.0,42.0,1644835656.875,P07,D02,0,0,1
81,-48.0,0.0,42.0,1644835656.90625,P07,D02,0,0,1
82,-48.0,0.0,42.0,1644835656.9375,P07,D02,0,0,1
83,-48.0,0.0,42.0,1644835656.96875,P07,D02,0,0,1
84,-48.0,0.0,42.0,1644835657.0,P07,D02,0,0,1
85,-48.0,0.0,42.0,1644835657.03125,P07,D02,0,0,1
86,-48.0,0.0,42.0,1644835657.0625,P07,D02,0,0,1
87,-48.0,0.0,42.0,1644835657.09375,P07,D02,0,0,1
88,-48.0,0.0,42.0,1644835657.125,P07,D02,0,0,1
89,-48.0,0.0,42.0,1644835657.15625,P07,D02,0,0,1
90,-48.0,0.0,42.0,1644835657.1875,P07,D02,0,0,1
91,-48.0,0.0,42.0,1644835657.21875,P07,D02,0,0,1
92,-48.0,0.0,42.0,1644835657.25,P07,D02,0,0,1
93,-48.0,0.0,42.0,1644835657.28125,P07,D02,0,0,1
94,-48.0,0.0,42.0,1644835657.3125,P07,D02,0,0,1
95,-48.0,0.0,42.0,1644835657.34375,P07,D02,0,0,1
96,-48.0,0.0,42.0,1644835657.375,P07,D02,0,0,1
97,-48.0,0.0,43.0,1644835657.40625,P07,D02,0,0,1
98,-48.0,0.0,43.0,1644835657.4375,P07,D02,0,0,1
99,-48.0,0.0,42.0,1644835657.46875,P07,D02,0,0,1
100,-48.0,0.0,42.0,1644835657.5,P07,D02,0,0,1
101,-48.0,0.0,42.0,1644835657.53125,P07,D02,0,0,1
102,-48.0,0.0,42.0,1644835657.5625,P07,D02,0,0,1
103,-48.0,0.0,42.0,1644835657.59375,P07,D02,0,0,1
104,-48.0,0.0,42.0,1644835657.625,P07,D02,0,0,1
105,-48.0,0.0,42.0,1644835657.65625,P07,D02,0,0,1
106,-48.0,0.0,42.0,1644835657.6875,P07,D02,0,0,1
107,-48.0,0.0,42.0,1644835657.71875,P07,D02,0,0,1
108,-48.0,0.0,42.0,1644835657.75,P07,D02,0,0,1
109,-48.0,0.0,42.0,1644835657.78125,P07,D02,0,0,1
110,-48.0,0.0,42.0,1644835657.8125,P07,D02,0,0,1
111,-48.0,0.0,42.0,1644835657.84375,P07,D02,0,0,1
112,-48.0,0.0,42.0,1644835657.875,P07,D02,0,0,1
113,-48.0,0.0,42.0,1644835657.90625,P07,D02,0,0,1
114,-48.0,0.0,42.0,1644835657.9375,P07,D02,0,0,1
115,-48.0,0.0,42.0,1644835657.96875,P07,D02,0,0,1
116,-48.0,0.0,42.0,1644835658.0,P07,D02,0,0,1
117,-48.0,0.0,42.0,1644835658.03125,P07,D02,0,0,1
118,-48.0,0.0,42.0,1644835658.0625,P07,D02,0,0,1
119,-48.0,0.0,42.0,1644835658.09375,P07,D02,0,0,1
120,-48.0,0.0,42.0,1644835658.125,P07,D02,0,0,1
121,-48.0,0.0,42.0,1644835658.15625,P07,D02,0,0,1
122,-48.0,0.0,42.0,1644835658.1875,P07,D02,0,0,1
123,-48.0,0.0,42.0,1644835658.21875,P07,D02,0,0,1
124,-48.0,0.0,42.0,1644835658.25,P07,D02,0,0,1
125,-48.0,0.0,42.0,1644835658.28125,P07,D02,0,0,1
126,-48.0,0.0,43.0,1644835658.3125,P07,D02,0,0,1
127,-48.0,0.0,42.0,1644835658.34375,P07,D02,0,0,1
128,-48.0,0.0,42.0,1644835658.375,P07,D02,0,0,1
129,-48.0,0.0,42.0,1644835658.40625,P07,D02,0,0,1
130,-48.0,0.0,42.0,1644835658.4375,P07,D02,0,0,1
131,-48.0,0.0,42.0,1644835658.46875,P07,D02,0,0,1
132,-48.0,0.0,42.0,1644835658.5,P07,D02,0,0,1
133,-48.0,0.0,42.0,1644835658.53125,P07,D02,0,0,1
134,-47.0,0.0,43.0,1644835658.5625,P07,D02,0,0,1
135,-48.0,0.0,42.0,1644835658.59375,P07,D02,0,0,1
136,-48.0,0.0,43.0,1644835658.625,P07,D02,0,0,1
137,-48.0,0.0,42.0,1644835658.65625,P07,D02,0,0,1
138,-48.0,0.0,42.0,1644835658.6875,P07,D02,0,0,1
139,-48.0,0.0,42.0,1644835658.71875,P07,D02,0,0,1
140,-48.0,0.0,42.0,1644835658.75,P07,D02,0,0,1
141,-48.0,0.0,42.0,1644835658.78125,P07,D02,0,0,1
142,-48.0,0.0,42.0,1644835658.8125,P07,D02,0,0,1
143,-48.0,0.0,42.0,1644835658.84375,P07,D02,0,0,1
144,-48.0,1.0,42.0,1644835658.875,P07,D02,0,0,1
145,-48.0,0.0,42.0,1644835658.90625,P07,D02,0,0,1
146,-48.0,0.0,42.0,1644835658.9375,P07,D02,0,0,1
147,-48.0,0.0,42.0,1644835658.96875,P07,D02,0,0,1
148,-48.0,0.0,42.0,1644835659.0,P07,D02,0,0,1
149,-48.0,0.0,43.0,1644835659.03125,P07,D02,0,0,1
150,-48.0,0.0,42.0,1644835659.0625,P07,D02,0,0,1
151,-48.0,0.0,42.0,1644835659.09375,P07,D02,0,0,1
152,-48.0,0.0,42.0,1644835659.125,P07,D02,0,0,1
153,-48.0,0.0,43.0,1644835659.15625,P07,D02,0,0,1
154,-49.0,0.0,42.0,1644835659.1875,P07,D02,0,0,1
155,-47.0,0.0,43.0,1644835659.21875,P07,D02,0,0,1
156,-48.0,0.0,42.0,1644835659.25,P07,D02,0,0,1
157,-48.0,0.0,42.0,1644835659.28125,P07,D02,0,0,1
158,-48.0,0.0,42.0,1644835659.3125,P07,D02,0,0,1
159,-48.0,0.0,42.0,1644835659.34375,P07,D02,0,0,1
160,-48.0,0.0,42.0,1644835659.375,P07,D02,0,0,1
161,-48.0,0.0,42.0,1644835659.40625,P07,D02,0,0,1
162,-48.0,0.0,42.0,1644835659.4375,P07,D02,0,0,1
163,-48.0,0.0,42.0,1644835659.46875,P07,D02,0,0,1
164,-48.0,0.0,42.0,1644835659.5,P07,D02,0,0,1
165,-48.0,0.0,42.0,1644835659.53125,P07,D02,0,0,1
166,-48.0,0.0,42.0,1644835659.5625,P07,D02,0,0,1
167,-47.0,0.0,42.0,1644835659.59375,P07,D02,0,0,1
168,-47.0,0.0,42.0,1644835659.625,P07,D02,0,0,1
169,-48.0,0.0,42.0,1644835659.65625,P07,D02,0,0,1
170,-48.0,0.0,43.0,1644835659.6875,P07,D02,0,0,1
171,-48.0,0.0,42.0,1644835659.71875,P07,D02,0,0,1
172,-48.0,0.0,42.0,1644835659.75,P07,D02,0,0,1
173,-49.0,0.0,42.0,1644835659.78125,P07,D02,0,0,1
174,-47.0,0.0,43.0,1644835659.8125,P07,D02,0,0,1
175,-48.0,0.0,42.0,1644835659.84375,P07,D02,0,0,1
176,-48.0,0.0,42.0,1644835659.875,P07,D02,0,0,1
177,-48.0,0.0,42.0,1644835659.90625,P07,D02,0,0,1
178,-48.0,0.0,42.0,1644835659.9375,P07,D02,0,0,1
179,-48.0,0.0,42.0,1644835659.96875,P07,D02,0,0,1
180,-48.0,0.0,42.0,1644835660.0,P07,D02,0,0,1
181,-48.0,0.0,42.0,1644835660.03125,P07,D02,0,0,1
182,-47.0,0.0,43.0,1644835660.0625,P07,D02,0,0,1
183,-48.0,0.0,42.0,1644835660.09375,P07,D02,0,0,1
184,-48.0,0.0,42.0,1644835660.125,P07,D02,0,0,1
185,-48.0,0.0,42.0,1644835660.15625,P07,D02,0,0,1
186,-48.0,0.0,42.0,1644835660.1875,P07,D02,0,0,1
187,-47.0,0.0,43.0,1644835660.21875,P07,D02,0,0,1
188,-48.0,0.0,42.0,1644835660.25,P07,D02,0,0,1
189,-48.0,0.0,42.0,1644835660.28125,P07,D02,0,0,1
190,-48.0,0.0,42.0,1644835660.3125,P07,D02,0,0,1
191,-47.0,0.0,43.0,1644835660.34375,P07,D02,0,0,1
192,-48.0,0.0,43.0,1644835660.375,P07,D02,0,0,1
193,-48.0,0.0,42.0,1644835660.40625,P07,D02,0,0,1
194,-48.0,0.0,42.0,1644835660.4375,P07,D02,0,0,1
195,-48.0,0.0,43.0,1644835660.46875,P07,D02,0,0,1
196,-47.0,0.0,43.0,1644835660.5,P07,D02,0,0,1
197,-48.0,0.0,42.0,1644835660.53125,P07,D02,0,0,1
198,-48.0,0.0,43.0,1644835660.5625,P07,D02,0,0,1
199,-47.0,0.0,43.0,1644835660.59375,P07,D02,0,0,1
200,-48.0,0.0,43.0,1644835660.625,P07,D02,0,0,1
201,-48.0,0.0,42.0,1644835660.65625,P07,D02,0,0,1
202,-48.0,0.0,43.0,1644835660.6875,P07,D02,0,0,1
203,-47.0,0.0,43.0,1644835660.71875,P07,D02,0,0,1
204,-47.0,0.0,43.0,1644835660.75,P07,D02,0,0,1
205,-47.0,0.0,42.0,1644835660.78125,P07,D02,0,0,1
206,-48.0,0.0,43.0,1644835660.8125,P07,D02,0,0,1
207,-48.0,0.0,42.0,1644835660.84375,P07,D02,0,0,1
208,-47.0,0.0,43.0,1644835660.875,P07,D02,0,0,1
209,-48.0,0.0,43.0,1644835660.90625,P07,D02,0,0,1
210,-48.0,0.0,42.0,1644835660.9375,P07,D02,0,0,1
211,-47.0,0.0,43.0,1644835660.96875,P07,D02,0,0,1
212,-47.0,0.0,43.0,1644835661.0,P07,D02,0,0,1
213,-48.0,0.0,42.0,1644835661.03125,P07,D02,0,0,1
214,-47.0,0.0,43.0,1644835661.0625,P07,D02,0,0,1
215,-47.0,0.0,42.0,1644835661.09375,P07,D02,0,0,1
216,-48.0,0.0,43.0,1644835661.125,P07,D02,0,0,1
217,-48.0,0.0,43.0,1644835661.15625,P07,D02,0,0,1
218,-47.0,0.0,42.0,1644835661.1875,P07,D02,0,0,1
219,-48.0,0.0,43.0,1644835661.21875,P07,D02,0,0,1
220,-47.0,0.0,42.0,1644835661.25,P07,D02,0,0,1
221,-48.0,0.0,43.0,1644835661.28125,P07,D02,0,0,1
222,-47.0,0.0,43.0,1644835661.3125,P07,D02,0,0,1
223,-47.0,0.0,42.0,1644835661.34375,P07,D02,0,0,1
224,-47.0,0.0,43.0,1644835661.375,P07,D02,0,0,1
225,-47.0,0.0,43.0,1644835661.40625,P07,D02,0,0,1
226,-47.0,0.0,43.0,1644835661.4375,P07,D02,0,0,1
227,-48.0,0.0,43.0,1644835661.46875,P07,D02,0,0,1
228,-47.0,0.0,43.0,1644835661.5,P07,D02,0,0,1
229,-47.0,0.0,43.0,1644835661.53125,P07,D02,0,0,1
230,-48.0,0.0,42.0,1644835661.5625,P07,D02,0,0,1
231,-48.0,0.0,43.0,1644835661.59375,P07,D02,0,0,1
232,-47.0,0.0,43.0,1644835661.625,P07,D02,0,0,1
233,-47.0,1.0,43.0,1644835661.65625,P07,D02,0,0,1
234,-48.0,0.0,42.0,1644835661.6875,P07,D02,0,0,1
235,-48.0,0.0,42.0,1644835661.71875,P07,D02,0,0,1
236,-47.0,0.0,42.0,1644835661.75,P07,D02,0,0,1
237,-47.0,0.0,43.0,1644835661.78125,P07,D02,0,0,1
238,-48.0,0.0,42.0,1644835661.8125,P07,D02,0,0,1
239,-48.0,0.0,43.0,1644835661.84375,P07,D02,0,0,1
240,-48.0,0.0,43.0,1644835661.875,P07,D02,0,0,1
241,-47.0,1.0,43.0,1644835661.90625,P07,D02,0,0,1
242,-47.0,0.0,43.0,1644835661.9375,P07,D02,0,0,1
243,-48.0,0.0,43.0,1644835661.96875,P07,D02,0,0,1
244,-48.0,1.0,43.0,1644835662.0,P07,D02,0,0,1
245,-46.0,0.0,43.0,1644835662.03125,P07,D02,0,0,1
246,-46.0,0.0,44.0,1644835662.0625,P07,D02,0,0,1
247,-47.0,1.0,43.0,1644835662.09375,P07,D02,0,0,1
248,-47.0,1.0,43.0,1644835662.125,P07,D02,0,0,1
249,-47.0,1.0,44.0,1644835662.15625,P07,D02,0,0,1
250,-47.0,1.0,44.0,1644835662.1875,P07,D02,0,0,1
251,-47.0,1.0,44.0,1644835662.21875,P07,D02,0,0,1
252,-47.0,1.0,43.0,1644835662.25,P07,D02,0,0,1
253,-47.0,1.0,43.0,1644835662.28125,P07,D02,0,0,1
254,-47.0,1.0,44.0,1644835662.3125,P07,D02,0,0,1
255,-46.0,1.0,43.0,1644835662.34375,P07,D02,0,0,1
256,-46.0,1.0,44.0,1644835662.375,P07,D02,0,0,1
257,-47.0,1.0,43.0,1644835662.40625,P07,D02,0,0,1
258,-46.0,1.0,44.0,1644835662.4375,P07,D02,0,0,1
259,-46.0,1.0,44.0,1644835662.46875,P07,D02,0,0,1
260,-49.0,0.0,42.0,1644835662.5,P07,D02,0,0,1
261,-47.0,1.0,44.0,1644835662.53125,P07,D02,0,0,1
262,-47.0,0.0,43.0,1644835662.5625,P07,D02,0,0,1
263,-47.0,1.0,43.0,1644835662.59375,P07,D02,0,0,1
264,-47.0,0.0,43.0,1644835662.625,P07,D02,0,0,1
265,-47.0,0.0,43.0,1644835662.65625,P07,D02,0,0,1
266,-47.0,0.0,43.0,1644835662.6875,P07,D02,0,0,1
267,-47.0,0.0,43.0,1644835662.71875,P07,D02,0,0,1
268,-47.0,0.0,44.0,1644835662.75,P07,D02,0,0,1
269,-47.0,0.0,44.0,1644835662.78125,P07,D02,0,0,1
270,-48.0,0.0,43.0,1644835662.8125,P07,D02,0,0,1
271,-49.0,-1.0,42.0,1644835662.84375,P07,D02,0,0,1
272,-48.0,0.0,43.0,1644835662.875,P07,D02,0,0,1
273,-46.0,1.0,44.0,1644835662.90625,P07,D02,0,0,1
274,-47.0,0.0,43.0,1644835662.9375,P07,D02,0,0,1
275,-47.0,0.0,43.0,1644835662.96875,P07,D02,0,0,1
276,-47.0,0.0,44.0,1644835663.0,P07,D02,0,0,1
277,-47.0,0.0,43.0,1644835663.03125,P07,D02,0,0,1
278,-47.0,0.0,43.0,1644835663.0625,P07,D02,0,0,1
279,-47.0,0.0,43.0,1644835663.09375,P07,D02,0,0,1
280,-47.0,0.0,43.0,1644835663.125,P07,D02,0,0,1
281,-48.0,0.0,42.0,1644835663.15625,P07,D02,0,0,1
282,-48.0,-1.0,42.0,1644835663.1875,P07,D02,0,0,1
283,-48.0,0.0,42.0,1644835663.21875,P07,D02,0,0,1
284,-48.0,0.0,42.0,1644835663.25,P07,D02,0,0,1
285,-47.0,0.0,43.0,1644835663.28125,P07,D02,0,0,1
286,-47.0,0.0,42.0,1644835663.3125,P07,D02,0,0,1
287,-47.0,-1.0,43.0,1644835663.34375,P07,D02,0,0,1
288,-47.0,0.0,43.0,1644835663.375,P07,D02,0,0,1
289,-48.0,0.0,42.0,1644835663.40625,P07,D02,0,0,1
290,-48.0,-1.0,42.0,1644835663.4375,P07,D02,0,0,1
291,-47.0,0.0,43.0,1644835663.46875,P07,D02,0,0,1
292,-47.0,0.0,43.0,1644835663.5,P07,D02,0,0,1
293,-47.0,0.0,43.0,1644835663.53125,P07,D02,0,0,1
294,-48.0,-1.0,42.0,1644835663.5625,P07,D02,0,0,1
295,-48.0,0.0,43.0,1644835663.59375,P07,D02,0,0,1
296,-48.0,0.0,42.0,1644835663.625,P07,D02,0,0,1
297,-48.0,-1.0,42.0,1644835663.65625,P07,D02,0,0,1
298,-48.0,0.0,42.0,1644835663.6875,P07,D02,0,0,1
299,-48.0,0.0,42.0,1644835663.71875,P07,D02,0,0,1
300,-48.0,0.0,42.0,1644835663.75,P07,D02,0,0,1
301,-49.0,0.0,42.0,1644835663.78125,P07,D02,0,0,1
302,-48.0,-1.0,42.0,1644835663.8125,P07,D02,0,0,1
303,-48.0,0.0,43.0,1644835663.84375,P07,D02,0,0,1
304,-48.0,0.0,42.0,1644835663.875,P07,D02,0,0,1
305,-48.0,-1.0,42.0,1644835663.90625,P07,D02,0,0,1
306,-48.0,-1.0,42.0,1644835663.9375,P07,D02,0,0,1
307,-48.0,0.0,42.0,1644835663.96875,P07,D02,0,0,1
308,-48.0,-1.0,42.0,1644835664.0,P07,D02,0,0,1
309,-48.0,-1.0,41.0,1644835664.03125,P07,D02,0,0,1
310,-48.0,0.0,42.0,1644835664.0625,P07,D02,0,0,1
311,-47.0,-1.0,42.0,1644835664.09375,P07,D02,0,0,1
312,-48.0,1.0,43.0,1644835664.125,P07,D02,0,0,1
313,-47.0,0.0,43.0,1644835664.15625,P07,D02,0,0,1
314,-47.0,0.0,43.0,1644835664.1875,P07,D02,0,0,1
315,-48.0,0.0,42.0,1644835664.21875,P07,D02,0,0,1
316,-48.0,0.0,42.0,1644835664.25,P07,D02,0,0,1
317,-47.0,0.0,43.0,1644835664.28125,P07,D02,0,0,1
318,-48.0,0.0,42.0,1644835664.3125,P07,D02,0,0,1
319,-48.0,0.0,42.0,1644835664.34375,P07,D02,0,0,1
320,-48.0,0.0,43.0,1644835664.375,P07,D02,0,0,1
321,-48.0,0.0,42.0,1644835664.40625,P07,D02,0,0,1
322,-48.0,-1.0,42.0,1644835664.4375,P07,D02,0,0,1
323,-48.0,0.0,42.0,1644835664.46875,P07,D02,0,0,1
324,-48.0,0.0,42.0,1644835664.5,P07,D02,0,0,1
325,-48.0,0.0,42.0,1644835664.53125,P07,D02,0,0,1
326,-48.0,0.0,42.0,1644835664.5625,P07,D02,0,0,1
327,-47.0,0.0,43.0,1644835664.59375,P07,D02,0,0,1
328,-48.0,0.0,42.0,1644835664.625,P07,D02,0,0,1
329,-48.0,0.0,42.0,1644835664.65625,P07,D02,0,0,1
330,-47.0,0.0,43.0,1644835664.6875,P07,D02,0,0,1
331,-48.0,0.0,42.0,1644835664.71875,P07,D02,0,0,1
332,-48.0,0.0,42.0,1644835664.75,P07,D02,0,0,1
333,-48.0,0.0,42.0,1644835664.78125,P07,D02,0,0,1
334,-48.0,0.0,43.0,1644835664.8125,P07,D02,0,0,1
335,-48.0,0.0,42.0,1644835664.84375,P07,D02,0,0,1
336,-48.0,0.0,42.0,1644835664.875,P07,D02,0,0,1
337,-48.0,0.0,42.0,1644835664.90625,P07,D02,0,0,1
338,-48.0,0.0,42.0,1644835664.9375,P07,D02,0,0,1
339,-47.0,0.0,43.0,1644835664.96875,P07,D02,0,0,1
340,-48.0,0.0,42.0,1644835665.0,P07,D02,0,0,1
341,-48.0,0.0,42.0,1644835665.03125,P07,D02,0,0,1
342,-48.0,0.0,43.0,1644835665.0625,P07,D02,0,0,1
343,-48.0,0.0,42.0,1644835665.09375,P07,D02,0,0,1
344,-47.0,0.0,42.0,1644835665.125,P07,D02,0,0,1
345,-48.0,0.0,42.0,1644835665.15625,P07,D02,0,0,1
346,-48.0,0.0,43.0,1644835665.1875,P07,D02,0,0,1
347,-48.0,0.0,42.0,1644835665.21875,P07,D02,0,0,1
348,-48.0,0.0,42.0,1644835665.25,P07,D02,0,0,1
349,-48.0,0.0,42.0,1644835665.28125,P07,D02,0,0,1
350,-45.0,0.0,43.0,1644835665.3125,P07,D02,0,0,1
351,-47.0,0.0,43.0,1644835665.34375,P07,D02,0,0,1
352,-45.0,0.0,44.0,1644835665.375,P07,D02,0,0,1
353,-47.0,-1.0,42.0,1644835665.40625,P07,D02,0,0,1
354,-47.0,0.0,43.0,1644835665.4375,P07,D02,0,0,1
355,-48.0,0.0,42.0,1644835665.46875,P07,D02,0,0,1
356,-48.0,0.0,42.0,1644835665.5,P07,D02,0,0,1
357,-48.0,0.0,42.0,1644835665.53125,P07,D02,0,0,1
358,-48.0,0.0,42.0,1644835665.5625,P07,D02,0,0,1
359,-48.0,0.0,42.0,1644835665.59375,P07,D02,0,0,1
360,-48.0,0.0,42.0,1644835665.625,P07,D02,0,0,1
361,-48.0,0.0,42.0,1644835665.65625,P07,D02,0,0,1
362,-48.0,0.0,42.0,1644835665.6875,P07,D02,0,0,1
363,-48.0,0.0,42.0,1644835665.71875,P07,D02,0,0,1
364,-48.0,0.0,42.0,1644835665.75,P07,D02,0,0,1
365,-48.0,0.0,42.0,1644835665.78125,P07,D02,0,0,1
366,-48.0,0.0,42.0,1644835665.8125,P07,D02,0,0,1
367,-47.0,0.0,43.0,1644835665.84375,P07,D02,0,0,1
368,-48.0,0.0,42.0,1644835665.875,P07,D02,0,0,1
369,-48.0,0.0,42.0,1644835665.90625,P07,D02,0,0,1
370,-48.0,0.0,43.0,1644835665.9375,P07,D02,0,0,1
371,-47.0,0.0,43.0,1644835665.96875,P07,D02,0,0,1
372,-48.0,0.0,42.0,1644835666.0,P07,D02,0,0,1
373,-48.0,-1.0,42.0,1644835666.03125,P07,D02,0,0,1
374,-47.0,0.0,43.0,1644835666.0625,P07,D02,0,0,1
375,-48.0,0.0,42.0,1644835666.09375,P07,D02,0,0,1
376,-48.0,0.0,42.0,1644835666.125,P07,D02,0,0,1
377,-47.0,0.0,43.0,1644835666.15625,P07,D02,0,0,1
378,-48.0,0.0,42.0,1644835666.1875,P07,D02,0,0,1
379,-48.0,0.0,42.0,1644835666.21875,P07,D02,0,0,1
380,-48.0,0.0,42.0,1644835666.25,P07,D02,0,0,1
381,-48.0,0.0,42.0,1644835666.28125,P07,D02,0,0,1
382,-48.0,0.0,42.0,1644835666.3125,P07,D02,0,0,1
383,-48.0,0.0,42.0,1644835666.34375,P07,D02,0,0,1
384,-48.0,0.0,42.0,1644835666.375,P07,D02,0,0,1
385,-48.0,0.0,42.0,1644835666.40625,P07,D02,0,0,1
386,-48.0,0.0,42.0,1644835666.4375,P07,D02,0,0,1
387,-48.0,0.0,42.0,1644835666.46875,P07,D02,0,0,1
388,-48.0,0.0,42.0,1644835666.5,P07,D02,0,0,1
389,-48.0,0.0,42.0,1644835666.53125,P07,D02,0,0,1
390,-48.0,0.0,42.0,1644835666.5625,P07,D02,0,0,1
391,-48.0,0.0,42.0,1644835666.59375,P07,D02,0,0,1
392,-48.0,0.0,42.0,1644835666.625,P07,D02,0,0,1
393,-48.0,0.0,42.0,1644835666.65625,P07,D02,0,0,1
394,-48.0,0.0,42.0,1644835666.6875,P07,D02,0,0,1
395,-48.0,0.0,42.0,1644835666.71875,P07,D02,0,0,1
396,-48.0,0.0,42.0,1644835666.75,P07,D02,0,0,1
397,-48.0,0.0,42.0,1644835666.78125,P07,D02,0,0,1
398,-48.0,0.0,43.0,1644835666.8125,P07,D02,0,0,1
399,-48.0,0.0,42.0,1644835666.84375,P07,D02,0,0,1
400,-48.0,0.0,42.0,1644835666.875,P07,D02,0,0,1
401,-48.0,0.0,42.0,1644835666.90625,P07,D02,0,0,1
402,-48.0,0.0,42.0,1644835666.9375,P07,D02,0,0,1
403,-48.0,0.0,42.0,1644835666.96875,P07,D02,0,0,1
404,-48.0,0.0,42.0,1644835667.0,P07,D02,0,0,1
405,-48.0,0.0,42.0,1644835667.03125,P07,D02,0,0,1
406,-48.0,0.0,42.0,1644835667.0625,P07,D02,0,0,1
407,-48.0,0.0,42.0,1644835667.09375,P07,D02,0,0,1
408,-48.0,0.0,42.0,1644835667.125,P07,D02,0,0,1
409,-48.0,0.0,43.0,1644835667.15625,P07,D02,0,0,1
410,-48.0,0.0,42.0,1644835667.1875,P07,D02,0,0,1
411,-48.0,0.0,42.0,1644835667.21875,P07,D02,0,0,1
412,-48.0,0.0,42.0,1644835667.25,P07,D02,0,0,1
413,-48.0,0.0,42.0,1644835667.28125,P07,D02,0,0,1
414,-48.0,-1.0,42.0,1644835667.3125,P07,D02,0,0,1
415,-48.0,0.0,42.0,1644835667.34375,P07,D02,0,0,1
416,-48.0,0.0,42.0,1644835667.375,P07,D02,0,0,1
417,-47.0,0.0,42.0,1644835667.40625,P07,D02,0,0,1
418,-48.0,0.0,42.0,1644835667.4375,P07,D02,0,0,1
419,-48.0,0.0,42.0,1644835667.46875,P07,D02,0,0,1
420,-48.0,0.0,42.0,1644835667.5,P07,D02,0,0,1
421,-48.0,0.0,42.0,1644835667.53125,P07,D02,0,0,1
422,-48.0,0.0,42.0,1644835667.5625,P07,D02,0,0,1
423,-48.0,0.0,42.0,1644835667.59375,P07,D02,0,0,1
424,-48.0,0.0,42.0,1644835667.625,P07,D02,0,0,1
425,-48.0,0.0,42.0,1644835667.65625,P07,D02,0,0,1
426,-47.0,0.0,43.0,1644835667.6875,P07,D02,0,0,1
427,-48.0,0.0,42.0,1644835667.71875,P07,D02,0,0,1
428,-47.0,0.0,43.0,1644835667.75,P07,D02,0,0,1
429,-48.0,0.0,41.0,1644835667.78125,P07,D02,0,0,1
430,-48.0,0.0,42.0,1644835667.8125,P07,D02,0,0,1
431,-48.0,0.0,43.0,1644835667.84375,P07,D02,0,0,1
432,-48.0,0.0,42.0,1644835667.875,P07,D02,0,0,1
433,-48.0,0.0,42.0,1644835667.90625,P07,D02,0,0,1
434,-48.0,0.0,42.0,1644835667.9375,P07,D02,0,0,1
435,-48.0,0.0,42.0,1644835667.96875,P07,D02,0,0,1
436,-48.0,0.0,43.0,1644835668.0,P07,D02,0,0,1
437,-48.0,0.0,42.0,1644835668.03125,P07,D02,0,0,1
438,-48.0,0.0,42.0,1644835668.0625,P07,D02,0,0,1
439,-48.0,0.0,43.0,1644835668.09375,P07,D02,0,0,1
440,-48.0,0.0,42.0,1644835668.125,P07,D02,0,0,1
441,-48.0,0.0,42.0,1644835668.15625,P07,D02,0,0,1
442,-47.0,0.0,42.0,1644835668.1875,P07,D02,0,0,1
443,-48.0,0.0,42.0,1644835668.21875,P07,D02,0,0,1
444,-48.0,0.0,42.0,1644835668.25,P07,D02,0,0,1
445,-47.0,0.0,43.0,1644835668.28125,P07,D02,0,0,1
446,-48.0,0.0,43.0,1644835668.3125,P07,D02,0,0,1
447,-48.0,0.0,42.0,1644835668.34375,P07,D02,0,0,1
448,-48.0,0.0,42.0,1644835668.375,P07,D02,0,0,1
449,-48.0,0.0,43.0,1644835668.40625,P07,D02,0,0,1
450,-48.0,0.0,42.0,1644835668.4375,P07,D02,0,0,1
451,-48.0,0.0,42.0,1644835668.46875,P07,D02,0,0,1
452,-47.0,0.0,43.0,1644835668.5,P07,D02,0,0,1
453,-48.0,0.0,43.0,1644835668.53125,P07,D02,0,0,1
454,-48.0,0.0,42.0,1644835668.5625,P07,D02,0,0,1
455,-47.0,0.0,42.0,1644835668.59375,P07,D02,0,0,1
456,-47.0,0.0,43.0,1644835668.625,P07,D02,0,0,1
457,-48.0,0.0,42.0,1644835668.65625,P07,D02,0,0,1
458,-48.0,0.0,43.0,1644835668.6875,P07,D02,0,0,1
459,-48.0,0.0,42.0,1644835668.71875,P07,D02,0,0,1
460,-48.0,0.0,42.0,1644835668.75,P07,D02,0,0,1
461,-48.0,0.0,42.0,1644835668.78125,P07,D02,0,0,1
462,-48.0,0.0,42.0,1644835668.8125,P07,D02,0,0,1
463,-48.0,0.0,42.0,1644835668.84375,P07,D02,0,0,1
464,-48.0,0.0,42.0,1644835668.875,P07,D02,0,0,1
465,-48.0,0.0,43.0,1644835668.90625,P07,D02,0,0,1
466,-48.0,0.0,42.0,1644835668.9375,P07,D02,0,0,1
467,-48.0,0.0,42.0,1644835668.96875,P07,D02,0,0,1
468,-48.0,0.0,42.0,1644835669.0,P07,D02,0,0,1
469,-48.0,0.0,42.0,1644835669.03125,P07,D02,0,0,1
470,-48.0,0.0,42.0,1644835669.0625,P07,D02,0,0,1
471,-48.0,0.0,42.0,1644835669.09375,P07,D02,0,0,1
472,-48.0,0.0,42.0,1644835669.125,P07,D02,0,0,1
473,-48.0,0.0,42.0,1644835669.15625,P07,D02,0,0,1
474,-48.0,0.0,42.0,1644835669.1875,P07,D02,0,0,1
475,-48.0,0.0,42.0,1644835669.21875,P07,D02,0,0,1
476,-48.0,0.0,42.0,1644835669.25,P07,D02,0,0,1
477,-48.0,0.0,42.0,1644835669.28125,P07,D02,0,0,1
478,-48.0,0.0,42.0,1644835669.3125,P07,D02,0,0,1
479,-47.0,0.0,43.0,1644835669.34375,P07,D02,0,0,1
480,-48.0,0.0,42.0,1644835669.375,P07,D02,0,0,1
481,-48.0,0.0,42.0,1644835669.40625,P07,D02,0,0,1
482,-48.0,0.0,42.0,1644835669.4375,P07,D02,0,0,1
483,-48.0,0.0,42.0,1644835669.46875,P07,D02,0,0,1
484,-48.0,0.0,42.0,1644835669.5,P07,D02,0,0,1
485,-48.0,0.0,42.0,1644835669.53125,P07,D02,0,0,1
486,-47.0,0.0,42.0,1644835669.5625,P07,D02,0,0,1
487,-48.0,0.0,42.0,1644835669.59375,P07,D02,0,0,1
488,-48.0,0.0,42.0,1644835669.625,P07,D02,0,0,1
489,-48.0,-1.0,42.0,1644835669.65625,P07,D02,0,0,1
490,-48.0,0.0,42.0,1644835669.6875,P07,D02,0,0,1
491,-48.0,0.0,42.0,1644835669.71875,P07,D02,0,0,1
492,-48.0,0.0,42.0,1644835669.75,P07,D02,0,0,1
493,-48.0,0.0,42.0,1644835669.78125,P07,D02,0,0,1
494,-48.0,0.0,42.0,1644835669.8125,P07,D02,0,0,1
495,-48.0,0.0,42.0,1644835669.84375,P07,D02,0,0,1
496,-48.0,0.0,42.0,1644835669.875,P07,D02,0,0,1
497,-48.0,0.0,42.0,1644835669.90625,P07,D02,0,0,1
498,-49.0,0.0,42.0,1644835669.9375,P07,D02,0,0,1
499,-48.0,0.0,42.0,1644835669.96875,P07,D02,0,0,1
500,-48.0,0.0,42.0,1644835670.0,P07,D02,0,0,1
501,-48.0,0.0,42.0,1644835670.03125,P07,D02,0,0,1
502,-48.0,0.0,42.0,1644835670.0625,P07,D02,0,0,1
503,-49.0,0.0,42.0,1644835670.09375,P07,D02,0,0,1
504,-48.0,0.0,42.0,1644835670.125,P07,D02,0,0,1
505,-45.0,0.0,44.0,1644835670.15625,P07,D02,0,0,1
506,-52.0,3.0,41.0,1644835670.1875,P07,D02,0,0,1
507,-41.0,-3.0,45.0,1644835670.21875,P07,D02,0,0,1
508,-53.0,0.0,40.0,1644835670.25,P07,D02,0,0,1
509,-48.0,-1.0,41.0,1644835670.28125,P07,D02,0,0,1
510,-47.0,0.0,43.0,1644835670.3125,P07,D02,0,0,1
511,-48.0,0.0,42.0,1644835670.34375,P07,D02,0,0,1
512,-48.0,0.0,42.0,1644835670.375,P07,D02,0,0,1
513,-48.0,0.0,42.0,1644835670.40625,P07,D02,0,0,1
514,-48.0,0.0,42.0,1644835670.4375,P07,D02,0,0,1
515,-48.0,0.0,42.0,1644835670.46875,P07,D02,0,0,1
516,-48.0,0.0,42.0,1644835670.5,P07,D02,0,0,1
517,-48.0,0.0,42.0,1644835670.53125,P07,D02,0,0,1
518,-48.0,0.0,42.0,1644835670.5625,P07,D02,0,0,1
519,-48.0,0.0,42.0,1644835670.59375,P07,D02,0,0,1
520,-48.0,0.0,42.0,1644835670.625,P07,D02,0,0,1
521,-48.0,0.0,42.0,1644835670.65625,P07,D02,0,0,1
522,-48.0,0.0,42.0,1644835670.6875,P07,D02,0,0,1
523,-48.0,0.0,43.0,1644835670.71875,P07,D02,0,0,1
524,-48.0,0.0,42.0,1644835670.75,P07,D02,0,0,1
525,-48.0,0.0,42.0,1644835670.78125,P07,D02,0,0,1
526,-48.0,0.0,42.0,1644835670.8125,P07,D02,0,0,1
527,-48.0,0.0,42.0,1644835670.84375,P07,D02,0,0,1
528,-48.0,0.0,42.0,1644835670.875,P07,D02,0,0,1
529,-48.0,0.0,42.0,1644835670.90625,P07,D02,0,0,1
530,-48.0,0.0,42.0,1644835670.9375,P07,D02,0,0,1
531,-48.0,0.0,42.0,1644835670.96875,P07,D02,0,0,1
532,-48.0,-1.0,42.0,1644835671.0,P07,D02,0,0,1
533,-48.0,0.0,42.0,1644835671.03125,P07,D02,0,0,1
534,-48.0,0.0,42.0,1644835671.0625,P07,D02,0,0,1
535,-48.0,0.0,42.0,1644835671.09375,P07,D02,0,0,1
536,-48.0,0.0,42.0,1644835671.125,P07,D02,0,0,1
537,-48.0,0.0,42.0,1644835671.15625,P07,D02,0,0,1
538,-47.0,0.0,42.0,1644835671.1875,P07,D02,0,0,1
539,-48.0,0.0,42.0,1644835671.21875,P07,D02,0,0,1
540,-48.0,-1.0,41.0,1644835671.25,P07,D02,0,0,1
541,-47.0,-1.0,43.0,1644835671.28125,P07,D02,0,0,1
542,-48.0,0.0,42.0,1644835671.3125,P07,D02,0,0,1
543,-48.0,-1.0,42.0,1644835671.34375,P07,D02,0,0,1
544,-48.0,0.0,42.0,1644835671.375,P07,D02,0,0,1
545,-48.0,0.0,42.0,1644835671.40625,P07,D02,0,0,1
546,-48.0,-1.0,42.0,1644835671.4375,P07,D02,0,0,1
547,-48.0,-1.0,42.0,1644835671.46875,P07,D02,0,0,1
548,-48.0,-1.0,42.0,1644835671.5,P07,D02,0,0,1
549,-48.0,-1.0,42.0,1644835671.53125,P07,D02,0,0,1
550,-48.0,0.0,42.0,1644835671.5625,P07,D02,0,0,1
551,-48.0,0.0,42.0,1644835671.59375,P07,D02,0,0,1
552,-48.0,-1.0,42.0,1644835671.625,P07,D02,0,0,1
553,-48.0,-1.0,42.0,1644835671.65625,P07,D02,0,0,1
554,-48.0,0.0,42.0,1644835671.6875,P07,D02,0,0,1
555,-48.0,0.0,42.0,1644835671.71875,P07,D02,0,0,1
556,-48.0,0.0,42.0,1644835671.75,P07,D02,0,0,1
557,-48.0,-1.0,42.0,1644835671.78125,P07,D02,0,0,1
558,-48.0,0.0,42.0,1644835671.8125,P07,D02,0,0,1
559,-48.0,0.0,42.0,1644835671.84375,P07,D02,0,0,1
560,-48.0,0.0,42.0,1644835671.875,P07,D02,0,0,1
561,-48.0,0.0,42.0,1644835671.90625,P07,D02,0,0,1
562,-48.0,0.0,42.0,1644835671.9375,P07,D02,0,0,1
563,-48.0,-1.0,42.0,1644835671.96875,P07,D02,0,0,1
564,-48.0,0.0,42.0,1644835672.0,P07,D02,0,0,1
565,-48.0,0.0,42.0,1644835672.03125,P07,D02,0,0,1
566,-48.0,0.0,42.0,1644835672.0625,P07,D02,0,0,1
567,-48.0,0.0,42.0,1644835672.09375,P07,D02,0,0,1
568,-48.0,0.0,42.0,1644835672.125,P07,D02,0,0,1
569,-48.0,0.0,42.0,1644835672.15625,P07,D02,0,0,1
570,-48.0,0.0,42.0,1644835672.1875,P07,D02,0,0,1
571,-48.0,-1.0,42.0,1644835672.21875,P07,D02,0,0,1
572,-48.0,0.0,42.0,1644835672.25,P07,D02,0,0,1
573,-48.0,0.0,42.0,1644835672.28125,P07,D02,0,0,1
574,-48.0,-1.0,42.0,1644835672.3125,P07,D02,0,0,1
575,-48.0,0.0,42.0,1644835672.34375,P07,D02,0,0,1
576,-48.0,0.0,42.0,1644835672.375,P07,D02,0,0,1
577,-48.0,0.0,42.0,1644835672.40625,P07,D02,0,0,1
578,-48.0,0.0,42.0,1644835672.4375,P07,D02,0,0,1
579,-48.0,0.0,42.0,1644835672.46875,P07,D02,0,0,1
580,-48.0,0.0,42.0,1644835672.5,P07,D02,0,0,1
581,-48.0,0.0,42.0,1644835672.53125,P07,D02,0,0,1
582,-48.0,0.0,42.0,1644835672.5625,P07,D02,0,0,1
583,-48.0,0.0,42.0,1644835672.59375,P07,D02,0,0,1
584,-48.0,0.0,42.0,1644835672.625,P07,D02,0,0,1
585,-48.0,0.0,42.0,1644835672.65625,P07,D02,0,0,1
586,-48.0,0.0,42.0,1644835672.6875,P07,D02,0,0,1
587,-48.0,0.0,42.0,1644835672.71875,P07,D02,0,0,1
588,-48.0,-1.0,42.0,1644835672.75,P07,D02,0,0,1
589,-48.0,0.0,42.0,1644835672.78125,P07,D02,0,0,1
590,-48.0,0.0,42.0,1644835672.8125,P07,D02,0,0,1
591,-48.0,0.0,42.0,1644835672.84375,P07,D02,0,0,1
592,-48.0,-1.0,42.0,1644835672.875,P07,D02,0,0,1
593,-48.0,0.0,42.0,1644835672.90625,P07,D02,0,0,1
594,-47.0,0.0,42.0,1644835672.9375,P07,D02,0,0,1
595,-48.0,0.0,42.0,1644835672.96875,P07,D02,0,0,1
596,-48.0,0.0,43.0,1644835673.0,P07,D02,0,0,1
597,-48.0,0.0,42.0,1644835673.03125,P07,D02,0,0,1
598,-48.0,0.0,42.0,1644835673.0625,P07,D02,0,0,1
599,-48.0,0.0,42.0,1644835673.09375,P07,D02,0,0,1
600,-48.0,0.0,42.0,1644835673.125,P07,D02,0,0,1
601,-47.0,0.0,43.0,1644835673.15625,P07,D02,0,0,1
602,-48.0,0.0,42.0,1644835673.1875,P07,D02,0,0,1
603,-48.0,0.0,43.0,1644835673.21875,P07,D02,0,0,1
604,-48.0,0.0,42.0,1644835673.25,P07,D02,0,0,1
605,-48.0,0.0,42.0,1644835673.28125,P07,D02,0,0,1
606,-48.0,0.0,42.0,1644835673.3125,P07,D02,0,0,1
607,-47.0,0.0,43.0,1644835673.34375,P07,D02,0,0,1
608,-48.0,0.0,42.0,1644835673.375,P07,D02,0,0,1
609,-48.0,0.0,42.0,1644835673.40625,P07,D02,0,0,1
610,-48.0,0.0,42.0,1644835673.4375,P07,D02,0,0,1
611,-48.0,0.0,42.0,1644835673.46875,P07,D02,0,0,1
612,-48.0,0.0,42.0,1644835673.5,P07,D02,0,0,1
613,-49.0,0.0,42.0,1644835673.53125,P07,D02,0,0,1
614,-48.0,0.0,42.0,1644835673.5625,P07,D02,0,0,1
615,-48.0,0.0,42.0,1644835673.59375,P07,D02,0,0,1
616,-48.0,0.0,42.0,1644835673.625,P07,D02,0,0,1
617,-48.0,0.0,42.0,1644835673.65625,P07,D02,0,0,1
618,-48.0,0.0,42.0,1644835673.6875,P07,D02,0,0,1
619,-47.0,0.0,43.0,1644835673.71875,P07,D02,0,0,1
620,-48.0,0.0,42.0,1644835673.75,P07,D02,0,0,1
621,-48.0,0.0,42.0,1644835673.78125,P07,D02,0,0,1
622,-48.0,0.0,42.0,1644835673.8125,P07,D02,0,0,1
623,-48.0,0.0,42.0,1644835673.84375,P07,D02,0,0,1
624,-48.0,1.0,43.0,1644835673.875,P07,D02,0,0,1
625,-47.0,2.0,44.0,1644835673.90625,P07,D02,0,0,1
626,-48.0,1.0,42.0,1644835673.9375,P07,D02,0,0,1
627,-46.0,2.0,44.0,1644835673.96875,P07,D02,0,0,1
628,-48.0,1.0,42.0,1644835674.0,P07,D02,0,0,1
629,-48.0,1.0,42.0,1644835674.03125,P07,D02,0,0,1
630,-48.0,1.0,42.0,1644835674.0625,P07,D02,0,0,1
631,-46.0,1.0,44.0,1644835674.09375,P07,D02,0,0,1
632,-48.0,2.0,43.0,1644835674.125,P07,D02,0,0,1
633,-47.0,2.0,43.0,1644835674.15625,P07,D02,0,0,1
634,-48.0,2.0,43.0,1644835674.1875,P07,D02,0,0,1
635,-47.0,2.0,43.0,1644835674.21875,P07,D02,0,0,1
636,-47.0,2.0,44.0,1644835674.25,P07,D02,0,0,1
637,-48.0,1.0,42.0,1644835674.28125,P07,D02,0,0,1
638,-48.0,1.0,42.0,1644835674.3125,P07,D02,0,0,1
639,-48.0,1.0,42.0,1644835674.34375,P07,D02,0,0,1
640,-48.0,1.0,42.0,1644835674.375,P07,D02,0,0,1
641,-48.0,2.0,42.0,1644835674.40625,P07,D02,0,0,1
642,-47.0,2.0,42.0,1644835674.4375,P07,D02,0,0,1
643,-47.0,1.0,42.0,1644835674.46875,P07,D02,0,0,1
644,-47.0,1.0,43.0,1644835674.5,P07,D02,0,0,1
645,-47.0,2.0,43.0,1644835674.53125,P07,D02,0,0,1
646,-48.0,2.0,42.0,1644835674.5625,P07,D02,0,0,1
647,-48.0,2.0,42.0,1644835674.59375,P07,D02,0,0,1
648,-48.0,2.0,42.0,1644835674.625,P07,D02,0,0,1
649,-48.0,2.0,42.0,1644835674.65625,P07,D02,0,0,1
650,-48.0,2.0,42.0,1644835674.6875,P07,D02,0,0,1
651,-48.0,2.0,42.0,1644835674.71875,P07,D02,0,0,1
652,-47.0,1.0,42.0,1644835674.75,P07,D02,0,0,1
653,-48.0,1.0,42.0,1644835674.78125,P07,D02,0,0,1
654,-49.0,1.0,41.0,1644835674.8125,P07,D02,0,0,1
655,-49.0,1.0,41.0,1644835674.84375,P07,D02,0,0,1
656,-49.0,1.0,41.0,1644835674.875,P07,D02,0,0,1
657,-48.0,1.0,42.0,1644835674.90625,P07,D02,0,0,1
658,-47.0,1.0,42.0,1644835674.9375,P07,D02,0,0,1
659,-48.0,1.0,42.0,1644835674.96875,P07,D02,0,0,1
660,-48.0,1.0,42.0,1644835675.0,P07,D02,0,0,1
661,-49.0,1.0,42.0,1644835675.03125,P07,D02,0,0,1
662,-48.0,1.0,42.0,1644835675.0625,P07,D02,0,0,1
663,-48.0,2.0,43.0,1644835675.09375,P07,D02,0,0,1
664,-48.0,2.0,42.0,1644835675.125,P07,D02,0,0,1
665,-48.0,2.0,42.0,1644835675.15625,P07,D02,0,0,1
666,-48.0,1.0,42.0,1644835675.1875,P07,D02,0,0,1
667,-48.0,1.0,42.0,1644835675.21875,P07,D02,0,0,1
668,-48.0,-1.0,41.0,1644835675.25,P07,D02,0,0,1
669,-49.0,1.0,41.0,1644835675.28125,P07,D02,0,0,1
670,-48.0,2.0,43.0,1644835675.3125,P07,D02,0,0,1
671,-48.0,2.0,43.0,1644835675.34375,P07,D02,0,0,1
672,-49.0,1.0,41.0,1644835675.375,P07,D02,0,0,1
673,-49.0,1.0,41.0,1644835675.40625,P07,D02,0,0,1
674,-48.0,1.0,42.0,1644835675.4375,P07,D02,0,0,1
675,-48.0,1.0,42.0,1644835675.46875,P07,D02,0,0,1
676,-48.0,0.0,42.0,1644835675.5,P07,D02,0,0,1
677,-49.0,0.0,42.0,1644835675.53125,P07,D02,0,0,1
678,-49.0,1.0,42.0,1644835675.5625,P07,D02,0,0,1
679,-48.0,1.0,42.0,1644835675.59375,P07,D02,0,0,1
680,-48.0,1.0,42.0,1644835675.625,P07,D02,0,0,1
681,-48.0,1.0,42.0,1644835675.65625,P07,D02,0,0,1
682,-48.0,1.0,42.0,1644835675.6875,P07,D02,0,0,1
683,-48.0,1.0,42.0,1644835675.71875,P07,D02,0,0,1
684,-48.0,1.0,42.0,1644835675.75,P07,D02,0,0,1
685,-48.0,1.0,42.0,1644835675.78125,P07,D02,0,0,1
686,-49.0,1.0,41.0,1644835675.8125,P07,D02,0,0,1
687,-47.0,1.0,43.0,1644835675.84375,P07,D02,0,0,1
688,-48.0,1.0,42.0,1644835675.875,P07,D02,0,0,1
689,-49.0,0.0,41.0,1644835675.90625,P07,D02,0,0,1
690,-50.0,1.0,41.0,1644835675.9375,P07,D02,0,0,1
691,-49.0,0.0,41.0,1644835675.96875,P07,D02,0,0,1
692,-48.0,1.0,42.0,1644835676.0,P07,D02,0,0,1
693,-48.0,1.0,42.0,1644835676.03125,P07,D02,0,0,1
694,-48.0,0.0,42.0,1644835676.0625,P07,D02,0,0,1
695,-48.0,0.0,42.0,1644835676.09375,P07,D02,0,0,1
696,-49.0,1.0,41.0,1644835676.125,P07,D02,0,0,1
697,-49.0,1.0,42.0,1644835676.15625,P07,D02,0,0,1
698,-48.0,1.0,42.0,1644835676.1875,P07,D02,0,0,1
699,-48.0,1.0,42.0,1644835676.21875,P07,D02,0,0,1
700,-48.0,1.0,42.0,1644835676.25,P07,D02,0,0,1
701,-48.0,1.0,42.0,1644835676.28125,P07,D02,0,0,1
702,-48.0,1.0,42.0,1644835676.3125,P07,D02,0,0,1
703,-48.0,1.0,42.0,1644835676.34375,P07,D02,0,0,1
704,-48.0,1.0,42.0,1644835676.375,P07,D02,0,0,1
705,-48.0,1.0,42.0,1644835676.40625,P07,D02,0,0,1
706,-48.0,1.0,42.0,1644835676.4375,P07,D02,0,0,1
707,-48.0,1.0,42.0,1644835676.46875,P07,D02,0,0,1
708,-48.0,1.0,42.0,1644835676.5,P07,D02,0,0,1
709,-48.0,1.0,42.0,1644835676.53125,P07,D02,0,0,1
710,-48.0,1.0,42.0,1644835676.5625,P07,D02,0,0,1
711,-48.0,1.0,42.0,1644835676.59375,P07,D02,0,0,1
712,-48.0,1.0,42.0,1644835676.625,P07,D02,0,0,1
713,-49.0,1.0,42.0,1644835676.65625,P07,D02,0,0,1
714,-48.0,1.0,42.0,1644835676.6875,P07,D02,0,0,1
715,-48.0,1.0,42.0,1644835676.71875,P07,D02,0,0,1
716,-48.0,1.0,42.0,1644835676.75,P07,D02,0,0,1
717,-48.0,1.0,42.0,1644835676.78125,P07,D02,0,0,1
718,-48.0,1.0,42.0,1644835676.8125,P07,D02,0,0,1
719,-48.0,1.0,42.0,1644835676.84375,P07,D02,0,0,1
720,-48.0,1.0,42.0,1644835676.875,P07,D02,0,0,1
721,-48.0,1.0,42.0,1644835676.90625,P07,D02,0,0,1
722,-48.0,1.0,42.0,1644835676.9375,P07,D02,0,0,1
723,-48.0,1.0,42.0,1644835676.96875,P07,D02,0,0,1
724,-47.0,1.0,42.0,1644835677.0,P07,D02,0,0,1
725,-48.0,1.0,43.0,1644835677.03125,P07,D02,0,0,1
726,-48.0,1.0,42.0,1644835677.0625,P07,D02,0,0,1
727,-48.0,1.0,42.0,1644835677.09375,P07,D02,0,0,1
728,-48.0,1.0,42.0,1644835677.125,P07,D02,0,0,1
729,-48.0,1.0,42.0,1644835677.15625,P07,D02,0,0,1
730,-48.0,1.0,42.0,1644835677.1875,P07,D02,0,0,1
731,-48.0,1.0,42.0,1644835677.21875,P07,D02,0,0,1
732,-48.0,1.0,42.0,1644835677.25,P07,D02,0,0,1
733,-48.0,1.0,42.0,1644835677.28125,P07,D02,0,0,1
734,-47.0,1.0,42.0,1644835677.3125,P07,D02,0,0,1
735,-48.0,1.0,42.0,1644835677.34375,P07,D02,0,0,1
736,-48.0,1.0,42.0,1644835677.375,P07,D02,0,0,1
737,-48.0,1.0,42.0,1644835677.40625,P07,D02,0,0,1
738,-48.0,1.0,42.0,1644835677.4375,P07,D02,0,0,1
739,-48.0,1.0,42.0,1644835677.46875,P07,D02,0,0,1
740,-48.0,1.0,42.0,1644835677.5,P07,D02,0,0,1
741,-48.0,1.0,42.0,1644835677.53125,P07,D02,0,0,1
742,-48.0,1.0,42.0,1644835677.5625,P07,D02,0,0,1
743,-48.0,1.0,42.0,1644835677.59375,P07,D02,0,0,1
744,-48.0,1.0,42.0,1644835677.625,P07,D02,0,0,1
745,-48.0,1.0,42.0,1644835677.65625,P07,D02,0,0,1
746,-48.0,1.0,42.0,1644835677.6875,P07,D02,0,0,1
747,-48.0,1.0,42.0,1644835677.71875,P07,D02,0,0,1
748,-48.0,1.0,42.0,1644835677.75,P07,D02,0,0,1
749,-48.0,1.0,42.0,1644835677.78125,P07,D02,0,0,1
750,-48.0,1.0,42.0,1644835677.8125,P07,D02,0,0,1
751,-48.0,1.0,43.0,1644835677.84375,P07,D02,0,0,1
752,-47.0,1.0,43.0,1644835677.875,P07,D02,0,0,1
753,-48.0,1.0,42.0,1644835677.90625,P07,D02,0,0,1
754,-48.0,1.0,42.0,1644835677.9375,P07,D02,0,0,1
755,-48.0,1.0,43.0,1644835677.96875,P07,D02,0,0,1
756,-48.0,1.0,43.0,1644835678.0,P07,D02,0,0,1
757,-48.0,1.0,42.0,1644835678.03125,P07,D02,0,0,1
758,-48.0,1.0,42.0,1644835678.0625,P07,D02,0,0,1
759,-48.0,1.0,42.0,1644835678.09375,P07,D02,0,0,1
760,-47.0,1.0,43.0,1644835678.125,P07,D02,0,0,1
761,-48.0,1.0,42.0,1644835678.15625,P07,D02,0,0,1
762,-48.0,1.0,42.0,1644835678.1875,P07,D02,0,0,1
763,-48.0,1.0,42.0,1644835678.21875,P07,D02,0,0,1
764,-48.0,1.0,42.0,1644835678.25,P07,D02,0,0,1
765,-48.0,1.0,43.0,1644835678.28125,P07,D02,0,0,1
766,-48.0,1.0,42.0,1644835678.3125,P07,D02,0,0,1
767,-48.0,1.0,42.0,1644835678.34375,P07,D02,0,0,1
768,-48.0,1.0,42.0,1644835678.375,P07,D02,0,0,1
769,-48.0,1.0,42.0,1644835678.40625,P07,D02,0,0,1
770,-48.0,1.0,42.0,1644835678.4375,P07,D02,0,0,1
771,-48.0,1.0,42.0,1644835678.46875,P07,D02,0,0,1
772,-48.0,1.0,42.0,1644835678.5,P07,D02,0,0,1
773,-48.0,1.0,42.0,1644835678.53125,P07,D02,0,0,1
774,-48.0,1.0,42.0,1644835678.5625,P07,D02,0,0,1
775,-48.0,1.0,42.0,1644835678.59375,P07,D02,0,0,1
776,-48.0,1.0,43.0,1644835678.625,P07,D02,0,0,1
777,-48.0,1.0,42.0,1644835678.65625,P07,D02,0,0,1
778,-48.0,1.0,42.0,1644835678.6875,P07,D02,0,0,1
779,-47.0,1.0,43.0,1644835678.71875,P07,D02,0,0,1
780,-47.0,1.0,43.0,1644835678.75,P07,D02,0,0,1
781,-48.0,1.0,42.0,1644835678.78125,P07,D02,0,0,1
782,-48.0,1.0,43.0,1644835678.8125,P07,D02,0,0,1
783,-48.0,1.0,42.0,1644835678.84375,P07,D02,0,0,1
784,-47.0,1.0,43.0,1644835678.875,P07,D02,0,0,1
785,-47.0,1.0,43.0,1644835678.90625,P07,D02,0,0,1
786,-47.0,1.0,43.0,1644835678.9375,P07,D02,0,0,1
787,-48.0,1.0,42.0,1644835678.96875,P07,D02,0,0,1
788,-47.0,1.0,43.0,1644835679.0,P07,D02,0,0,1
789,-47.0,1.0,43.0,1644835679.03125,P07,D02,0,0,1
790,-47.0,1.0,43.0,1644835679.0625,P07,D02,0,0,1
791,-47.0,1.0,43.0,1644835679.09375,P07,D02,0,0,1
792,-46.0,1.0,44.0,1644835679.125,P07,D02,0,0,1
793,-47.0,1.0,44.0,1644835679.15625,P07,D02,0,0,1
794,-47.0,1.0,43.0,1644835679.1875,P07,D02,0,0,1
795,-47.0,1.0,43.0,1644835679.21875,P07,D02,0,0,1
796,-46.0,1.0,44.0,1644835679.25,P07,D02,0,0,1
797,-46.0,1.0,44.0,1644835679.28125,P07,D02,0,0,1
798,-47.0,1.0,44.0,1644835679.3125,P07,D02,0,0,1
799,-47.0,1.0,43.0,1644835679.34375,P07,D02,0,0,1
800,-47.0,1.0,43.0,1644835679.375,P07,D02,0,0,1
801,-46.0,1.0,44.0,1644835679.40625,P07,D02,0,0,1
802,-46.0,1.0,44.0,1644835679.4375,P07,D02,0,0,1
803,-46.0,1.0,44.0,1644835679.46875,P07,D02,0,0,1
804,-47.0,1.0,44.0,1644835679.5,P07,D02,0,0,1
805,-47.0,1.0,44.0,1644835679.53125,P07,D02,0,0,1
806,-46.0,2.0,44.0,1644835679.5625,P07,D02,0,0,1
807,-47.0,1.0,44.0,1644835679.59375,P07,D02,0,0,1
808,-47.0,1.0,43.0,1644835679.625,P07,D02,0,0,1
809,-47.0,1.0,42.0,1644835679.65625,P07,D02,0,0,1
810,-47.0,1.0,43.0,1644835679.6875,P07,D02,0,0,1
811,-47.0,1.0,43.0,1644835679.71875,P07,D02,0,0,1
812,-47.0,1.0,43.0,1644835679.75,P07,D02,0,0,1
813,-47.0,1.0,43.0,1644835679.78125,P07,D02,0,0,1
814,-48.0,1.0,43.0,1644835679.8125,P07,D02,0,0,1
815,-48.0,1.0,43.0,1644835679.84375,P07,D02,0,0,1
816,-46.0,1.0,43.0,1644835679.875,P07,D02,0,0,1
817,-45.0,1.0,42.0,1644835679.90625,P07,D02,0,0,1
818,-44.0,1.0,45.0,1644835679.9375,P07,D02,0,0,1
819,-46.0,-1.0,42.0,1644835679.96875,P07,D02,0,0,1
820,-49.0,1.0,42.0,1644835680.0,P07,D02,0,0,1
821,-48.0,0.0,42.0,1644835680.03125,P07,D02,0,0,1
822,-48.0,0.0,42.0,1644835680.0625,P07,D02,0,0,1
823,-48.0,1.0,42.0,1644835680.09375,P07,D02,0,0,1
824,-48.0,1.0,42.0,1644835680.125,P07,D02,0,0,1
825,-47.0,1.0,43.0,1644835680.15625,P07,D02,0,0,1
826,-48.0,1.0,42.0,1644835680.1875,P07,D02,0,0,1
827,-48.0,1.0,42.0,1644835680.21875,P07,D02,0,0,1
828,-48.0,1.0,42.0,1644835680.25,P07,D02,0,0,1
829,-48.0,0.0,43.0,1644835680.28125,P07,D02,0,0,1
830,-47.0,1.0,42.0,1644835680.3125,P07,D02,0,0,1
831,-48.0,1.0,42.0,1644835680.34375,P07,D02,0,0,1
832,-48.0,1.0,42.0,1644835680.375,P07,D02,0,0,1
833,-48.0,0.0,42.0,1644835680.40625,P07,D02,0,0,1
834,-48.0,1.0,42.0,1644835680.4375,P07,D02,0,0,1
835,-48.0,1.0,42.0,1644835680.46875,P07,D02,0,0,1
836,-48.0,1.0,42.0,1644835680.5,P07,D02,0,0,1
837,-48.0,1.0,42.0,1644835680.53125,P07,D02,0,0,1
838,-49.0,0.0,42.0,1644835680.5625,P07,D02,0,0,1
839,-47.0,1.0,42.0,1644835680.59375,P07,D02,0,0,1
840,-48.0,1.0,42.0,1644835680.625,P07,D02,0,0,1
841,-48.0,0.0,42.0,1644835680.65625,P07,D02,0,0,1
842,-48.0,1.0,42.0,1644835680.6875,P07,D02,0,0,1
843,-48.0,1.0,42.0,1644835680.71875,P07,D02,0,0,1
844,-48.0,1.0,42.0,1644835680.75,P07,D02,0,0,1
845,-48.0,1.0,42.0,1644835680.78125,P07,D02,0,0,1
846,-48.0,1.0,42.0,1644835680.8125,P07,D02,0,0,1
847,-48.0,1.0,42.0,1644835680.84375,P07,D02,0,0,1
848,-48.0,1.0,42.0,1644835680.875,P07,D02,0,0,1
849,-48.0,0.0,42.0,1644835680.90625,P07,D02,0,0,1
850,-48.0,0.0,42.0,1644835680.9375,P07,D02,0,0,1
851,-48.0,1.0,42.0,1644835680.96875,P07,D02,0,0,1
852,-48.0,1.0,42.0,1644835681.0,P07,D02,0,0,1
853,-48.0,1.0,42.0,1644835681.03125,P07,D02,0,0,1
854,-48.0,0.0,42.0,1644835681.0625,P07,D02,0,0,1
855,-48.0,0.0,42.0,1644835681.09375,P07,D02,0,0,1
856,-49.0,0.0,42.0,1644835681.125,P07,D02,0,0,1
857,-48.0,0.0,42.0,1644835681.15625,P07,D02,0,0,1
858,-48.0,1.0,42.0,1644835681.1875,P07,D02,0,0,1
859,-49.0,0.0,42.0,1644835681.21875,P07,D02,0,0,1
860,-49.0,0.0,41.0,1644835681.25,P07,D02,0,0,1
861,-48.0,0.0,42.0,1644835681.28125,P07,D02,0,0,1
862,-48.0,0.0,42.0,1644835681.3125,P07,D02,0,0,1
863,-48.0,0.0,42.0,1644835681.34375,P07,D02,0,0,1
864,-49.0,0.0,41.0,1644835681.375,P07,D02,0,0,1
865,-49.0,1.0,42.0,1644835681.40625,P07,D02,0,0,1
866,-49.0,1.0,42.0,1644835681.4375,P07,D02,0,0,1
867,-48.0,0.0,42.0,1644835681.46875,P07,D02,0,0,1
868,-49.0,0.0,42.0,1644835681.5,P07,D02,0,0,1
869,-49.0,0.0,41.0,1644835681.53125,P07,D02,0,0,1
870,-49.0,0.0,42.0,1644835681.5625,P07,D02,0,0,1
871,-48.0,0.0,42.0,1644835681.59375,P07,D02,0,0,1
872,-49.0,0.0,42.0,1644835681.625,P07,D02,0,0,1
873,-49.0,0.0,41.0,1644835681.65625,P07,D02,0,0,1
874,-49.0,1.0,42.0,1644835681.6875,P07,D02,0,0,1
875,-49.0,0.0,42.0,1644835681.71875,P07,D02,0,0,1
876,-49.0,1.0,42.0,1644835681.75,P07,D02,0,0,1
877,-49.0,0.0,41.0,1644835681.78125,P07,D02,0,0,1
878,-49.0,1.0,42.0,1644835681.8125,P07,D02,0,0,1
879,-49.0,1.0,41.0,1644835681.84375,P07,D02,0,0,1
880,-48.0,0.0,42.0,1644835681.875,P07,D02,0,0,1
881,-49.0,0.0,41.0,1644835681.90625,P07,D02,0,0,1
882,-49.0,0.0,41.0,1644835681.9375,P07,D02,0,0,1
883,-49.0,1.0,41.0,1644835681.96875,P07,D02,0,0,1
884,-48.0,0.0,42.0,1644835682.0,P07,D02,0,0,1
885,-49.0,0.0,42.0,1644835682.03125,P07,D02,0,0,1
886,-49.0,0.0,41.0,1644835682.0625,P07,D02,0,0,1
887,-49.0,0.0,42.0,1644835682.09375,P07,D02,0,0,1
888,-49.0,0.0,42.0,1644835682.125,P07,D02,0,0,1
889,-49.0,0.0,41.0,1644835682.15625,P07,D02,0,0,1
890,-48.0,1.0,41.0,1644835682.1875,P07,D02,0,0,1
891,-49.0,0.0,41.0,1644835682.21875,P07,D02,0,0,1
892,-49.0,0.0,41.0,1644835682.25,P07,D02,0,0,1
893,-49.0,0.0,41.0,1644835682.28125,P07,D02,0,0,1
894,-49.0,1.0,42.0,1644835682.3125,P07,D02,0,0,1
895,-49.0,0.0,41.0,1644835682.34375,P07,D02,0,0,1
896,-49.0,0.0,41.0,1644835682.375,P07,D02,0,0,1
897,-49.0,1.0,41.0,1644835682.40625,P07,D02,0,0,1
898,-48.0,0.0,42.0,1644835682.4375,P07,D02,0,0,1
899,-49.0,0.0,41.0,1644835682.46875,P07,D02,0,0,1
900,-49.0,0.0,41.0,1644835682.5,P07,D02,0,0,1
901,-49.0,0.0,41.0,1644835682.53125,P07,D02,0,0,1
902,-49.0,0.0,42.0,1644835682.5625,P07,D02,0,0,1
903,-49.0,0.0,42.0,1644835682.59375,P07,D02,0,0,1
904,-49.0,0.0,41.0,1644835682.625,P07,D02,0,0,1
905,-49.0,1.0,41.0,1644835682.65625,P07,D02,0,0,1
906,-49.0,0.0,42.0,1644835682.6875,P07,D02,0,0,1
907,-49.0,1.0,41.0,1644835682.71875,P07,D02,0,0,1
908,-49.0,0.0,41.0,1644835682.75,P07,D02,0,0,1
909,-49.0,0.0,42.0,1644835682.78125,P07,D02,0,0,1
910,-49.0,0.0,41.0,1644835682.8125,P07,D02,0,0,1
911,-49.0,0.0,42.0,1644835682.84375,P07,D02,0,0,1
912,-49.0,1.0,42.0,1644835682.875,P07,D02,0,0,1
913,-49.0,0.0,42.0,1644835682.90625,P07,D02,0,0,1
914,-49.0,0.0,42.0,1644835682.9375,P07,D02,0,0,1
915,-49.0,0.0,41.0,1644835682.96875,P07,D02,0,0,1
916,-49.0,0.0,42.0,1644835683.0,P07,D02,0,0,1
917,-49.0,0.0,41.0,1644835683.03125,P07,D02,0,0,1
918,-49.0,0.0,42.0,1644835683.0625,P07,D02,0,0,1
919,-49.0,0.0,41.0,1644835683.09375,P07,D02,0,0,1
920,-49.0,1.0,41.0,1644835683.125,P07,D02,0,0,1
921,-49.0,0.0,42.0,1644835683.15625,P07,D02,0,0,1
922,-49.0,1.0,42.0,1644835683.1875,P07,D02,0,0,1
923,-49.0,0.0,41.0,1644835683.21875,P07,D02,0,0,1
924,-49.0,0.0,41.0,1644835683.25,P07,D02,0,0,1
925,-49.0,0.0,42.0,1644835683.28125,P07,D02,0,0,1
926,-49.0,0.0,42.0,1644835683.3125,P07,D02,0,0,1
927,-49.0,0.0,41.0,1644835683.34375,P07,D02,0,0,1
928,-48.0,0.0,42.0,1644835683.375,P07,D02,0,0,1
929,-48.0,0.0,41.0,1644835683.40625,P07,D02,0,0,1
930,-49.0,0.0,42.0,1644835683.4375,P07,D02,0,0,1
931,-49.0,1.0,42.0,1644835683.46875,P07,D02,0,0,1
932,-49.0,0.0,41.0,1644835683.5,P07,D02,0,0,1
933,-49.0,0.0,41.0,1644835683.53125,P07,D02,0,0,1
934,-49.0,0.0,41.0,1644835683.5625,P07,D02,0,0,1
935,-49.0,0.0,41.0,1644835683.59375,P07,D02,0,0,1
936,-49.0,0.0,41.0,1644835683.625,P07,D02,0,0,1
937,-49.0,0.0,42.0,1644835683.65625,P07,D02,0,0,1
938,-49.0,0.0,42.0,1644835683.6875,P07,D02,0,0,1
939,-49.0,0.0,41.0,1644835683.71875,P07,D02,0,0,1
940,-49.0,0.0,41.0,1644835683.75,P07,D02,0,0,1
941,-49.0,0.0,41.0,1644835683.78125,P07,D02,0,0,1
942,-49.0,1.0,42.0,1644835683.8125,P07,D02,0,0,1
943,-49.0,1.0,42.0,1644835683.84375,P07,D02,0,0,1
944,-49.0,0.0,42.0,1644835683.875,P07,D02,0,0,1
945,-49.0,1.0,41.0,1644835683.90625,P07,D02,0,0,1
946,-49.0,0.0,41.0,1644835683.9375,P07,D02,0,0,1
947,-49.0,1.0,42.0,1644835683.96875,P07,D02,0,0,1
948,-49.0,0.0,41.0,1644835684.0,P07,D02,0,0,1
949,-49.0,0.0,41.0,1644835684.03125,P07,D02,0,0,1
950,-49.0,0.0,42.0,1644835684.0625,P07,D02,0,0,1
951,-49.0,0.0,42.0,1644835684.09375,P07,D02,0,0,1
952,-49.0,1.0,41.0,1644835684.125,P07,D02,0,0,1
953,-49.0,1.0,41.0,1644835684.15625,P07,D02,0,0,1
954,-49.0,0.0,41.0,1644835684.1875,P07,D02,0,0,1
955,-49.0,1.0,42.0,1644835684.21875,P07,D02,0,0,1
956,-49.0,0.0,41.0,1644835684.25,P07,D02,0,0,1
957,-49.0,0.0,41.0,1644835684.28125,P07,D02,0,0,1
958,-49.0,0.0,41.0,1644835684.3125,P07,D02,0,0,1
959,-49.0,0.0,41.0,1644835684.34375,P07,D02,0,0,1
960,-49.0,0.0,41.0,1644835684.375,P07,D02,0,0,1
961,-49.0,1.0,41.0,1644835684.40625,P07,D02,0,0,1
962,-49.0,1.0,41.0,1644835684.4375,P07,D02,0,0,1
963,-49.0,1.0,41.0,1644835684.46875,P07,D02,0,0,1
964,-49.0,1.0,41.0,1644835684.5,P07,D02,0,0,1
965,-49.0,0.0,41.0,1644835684.53125,P07,D02,0,0,1
966,-49.0,0.0,42.0,1644835684.5625,P07,D02,0,0,1
967,-49.0,0.0,41.0,1644835684.59375,P07,D02,0,0,1
968,-49.0,0.0,41.0,1644835684.625,P07,D02,0,0,1
969,-49.0,0.0,41.0,1644835684.65625,P07,D02,0,0,1
970,-49.0,1.0,41.0,1644835684.6875,P07,D02,0,0,1
971,-49.0,0.0,41.0,1644835684.71875,P07,D02,0,0,1
972,-49.0,0.0,41.0,1644835684.75,P07,D02,0,0,1
973,-49.0,0.0,41.0,1644835684.78125,P07,D02,0,0,1
974,-49.0,0.0,41.0,1644835684.8125,P07,D02,0,0,1
975,-49.0,1.0,41.0,1644835684.84375,P07,D02,0,0,1
976,-49.0,0.0,41.0,1644835684.875,P07,D02,0,0,1
977,-49.0,0.0,41.0,1644835684.90625,P07,D02,0,0,1
978,-49.0,0.0,42.0,1644835684.9375,P07,D02,0,0,1
979,-49.0,0.0,41.0,1644835684.96875,P07,D02,0,0,1
980,-49.0,0.0,41.0,1644835685.0,P07,D02,0,0,1
981,-49.0,0.0,41.0,1644835685.03125,P07,D02,0,0,1
982,-49.0,1.0,42.0,1644835685.0625,P07,D02,0,0,1
983,-48.0,0.0,41.0,1644835685.09375,P07,D02,0,0,1
984,-49.0,1.0,42.0,1644835685.125,P07,D02,0,0,1
985,-49.0,0.0,42.0,1644835685.15625,P07,D02,0,0,1
986,-49.0,0.0,41.0,1644835685.1875,P07,D02,0,0,1
987,-49.0,0.0,41.0,1644835685.21875,P07,D02,0,0,1
988,-49.0,0.0,41.0,1644835685.25,P07,D02,0,0,1
989,-49.0,1.0,42.0,1644835685.28125,P07,D02,0,0,1
990,-50.0,1.0,40.0,1644835685.3125,P07,D02,0,0,1
991,-49.0,1.0,42.0,1644835685.34375,P07,D02,0,0,1
992,-49.0,0.0,41.0,1644835685.375,P07,D02,0,0,1
993,-48.0,1.0,42.0,1644835685.40625,P07,D02,0,0,1
994,-48.0,0.0,42.0,1644835685.4375,P07,D02,0,0,1
995,-48.0,1.0,42.0,1644835685.46875,P07,D02,0,0,1
996,-48.0,1.0,42.0,1644835685.5,P07,D02,0,0,1
997,-48.0,0.0,42.0,1644835685.53125,P07,D02,0,0,1
998,-48.0,1.0,42.0,1644835685.5625,P07,D02,0,0,1
999,-48.0,1.0,42.0,1644835685.59375,P07,D02,0,0,1
1000,-48.0,1.0,44.0,1644835685.625,P07,D02,0,0,1
1001,-48.0,1.0,42.0,1644835685.65625,P07,D02,0,0,1
1002,-47.0,1.0,43.0,1644835685.6875,P07,D02,0,0,1
1003,-48.0,1.0,42.0,1644835685.71875,P07,D02,0,0,1
1004,-47.0,1.0,43.0,1644835685.75,P07,D02,0,0,1
1005,-48.0,1.0,42.0,1644835685.78125,P07,D02,0,0,1
1006,-48.0,1.0,42.0,1644835685.8125,P07,D02,0,0,1
1007,-47.0,1.0,43.0,1644835685.84375,P07,D02,0,0,1
1008,-48.0,1.0,42.0,1644835685.875,P07,D02,0,0,1
1009,-48.0,1.0,42.0,1644835685.90625,P07,D02,0,0,1
1010,-48.0,1.0,42.0,1644835685.9375,P07,D02,0,0,1
1011,-48.0,1.0,42.0,1644835685.96875,P07,D02,0,0,1
1012,-48.0,1.0,42.0,1644835686.0,P07,D02,0,0,1
1013,-48.0,1.0,43.0,1644835686.03125,P07,D02,0,0,1
1014,-48.0,1.0,42.0,1644835686.0625,P07,D02,0,0,1
1015,-48.0,1.0,42.0,1644835686.09375,P07,D02,0,0,1
1016,-47.0,1.0,43.0,1644835686.125,P07,D02,0,0,1
1017,-48.0,1.0,42.0,1644835686.15625,P07,D02,0,0,1
1018,-46.0,1.0,43.0,1644835686.1875,P07,D02,0,0,1
1019,-47.0,1.0,42.0,1644835686.21875,P07,D02,0,0,1
1020,-47.0,1.0,43.0,1644835686.25,P07,D02,0,0,1
1021,-48.0,0.0,42.0,1644835686.28125,P07,D02,0,0,1
1022,-48.0,1.0,42.0,1644835686.3125,P07,D02,0,0,1
1023,-48.0,1.0,42.0,1644835686.34375,P07,D02,0,0,1
1024,-48.0,1.0,43.0,1644835686.375,P07,D02,0,0,1
1025,-47.0,1.0,42.0,1644835686.40625,P07,D02,0,0,1
1026,-47.0,1.0,43.0,1644835686.4375,P07,D02,0,0,1
1027,-48.0,0.0,42.0,1644835686.46875,P07,D02,0,0,1
1028,-49.0,0.0,42.0,1644835686.5,P07,D02,0,0,1
1029,-47.0,1.0,43.0,1644835686.53125,P07,D02,0,0,1
1030,-48.0,1.0,42.0,1644835686.5625,P07,D02,0,0,1
1031,-48.0,1.0,42.0,1644835686.59375,P07,D02,0,0,1
1032,-47.0,1.0,43.0,1644835686.625,P07,D02,0,0,1
1033,-48.0,1.0,42.0,1644835686.65625,P07,D02,0,0,1
1034,-48.0,1.0,42.0,1644835686.6875,P07,D02,0,0,1
1035,-48.0,1.0,43.0,1644835686.71875,P07,D02,0,0,1
1036,-48.0,1.0,42.0,1644835686.75,P07,D02,0,0,1
1037,-47.0,0.0,43.0,1644835686.78125,P07,D02,0,0,1
1038,-48.0,0.0,42.0,1644835686.8125,P07,D02,0,0,1
1039,-47.0,1.0,43.0,1644835686.84375,P07,D02,0,0,1
1040,-47.0,0.0,43.0,1644835686.875,P07,D02,0,0,1
1041,-48.0,1.0,42.0,1644835686.90625,P07,D02,0,0,1
1042,-47.0,1.0,43.0,1644835686.9375,P07,D02,0,0,1
1043,-47.0,1.0,43.0,1644835686.96875,P07,D02,0,0,1
1044,-47.0,0.0,43.0,1644835687.0,P07,D02,0,0,1
1045,-47.0,0.0,43.0,1644835687.03125,P07,D02,0,0,1
1046,-47.0,1.0,43.0,1644835687.0625,P07,D02,0,0,1
1047,-47.0,1.0,43.0,1644835687.09375,P07,D02,0,0,1
1048,-48.0,0.0,42.0,1644835687.125,P07,D02,0,0,1
1049,-48.0,0.0,42.0,1644835687.15625,P07,D02,0,0,1
1050,-47.0,0.0,43.0,1644835687.1875,P07,D02,0,0,1
1051,-47.0,1.0,43.0,1644835687.21875,P07,D02,0,0,1
1052,-48.0,0.0,42.0,1644835687.25,P07,D02,0,0,1
1053,-48.0,1.0,42.0,1644835687.28125,P07,D02,0,0,1
1054,-47.0,1.0,43.0,1644835687.3125,P07,D02,0,0,1
1055,-47.0,0.0,43.0,1644835687.34375,P07,D02,0,0,1
1056,-48.0,0.0,42.0,1644835687.375,P07,D02,0,0,1
1057,-48.0,1.0,42.0,1644835687.40625,P07,D02,0,0,1
1058,-48.0,0.0,43.0,1644835687.4375,P07,D02,0,0,1
1059,-48.0,1.0,43.0,1644835687.46875,P07,D02,0,0,1
1060,-48.0,0.0,42.0,1644835687.5,P07,D02,0,0,1
1061,-48.0,1.0,42.0,1644835687.53125,P07,D02,0,0,1
1062,-48.0,1.0,42.0,1644835687.5625,P07,D02,0,0,1
1063,-48.0,1.0,43.0,1644835687.59375,P07,D02,0,0,1
1064,-48.0,0.0,42.0,1644835687.625,P07,D02,0,0,1
1065,-48.0,1.0,42.0,1644835687.65625,P07,D02,0,0,1
1066,-48.0,0.0,43.0,1644835687.6875,P07,D02,0,0,1
1067,-48.0,0.0,42.0,1644835687.71875,P07,D02,0,0,1
1068,-46.0,1.0,43.0,1644835687.75,P07,D02,0,0,1
1069,-51.0,0.0,41.0,1644835687.78125,P07,D02,0,0,1
1070,-46.0,1.0,44.0,1644835687.8125,P07,D02,0,0,1
1071,-50.0,1.0,41.0,1644835687.84375,P07,D02,0,0,1
1072,-48.0,1.0,43.0,1644835687.875,P07,D02,0,0,1
1073,-47.0,0.0,43.0,1644835687.90625,P07,D02,0,0,1
1074,-48.0,1.0,42.0,1644835687.9375,P07,D02,0,0,1
1075,-48.0,0.0,42.0,1644835687.96875,P07,D02,0,0,1
1076,-48.0,0.0,42.0,1644835688.0,P07,D02,0,0,1
1077,-47.0,1.0,42.0,1644835688.03125,P07,D02,0,0,1
1078,-48.0,0.0,42.0,1644835688.0625,P07,D02,0,0,1
1079,-48.0,0.0,42.0,1644835688.09375,P07,D02,0,0,1
1080,-47.0,1.0,42.0,1644835688.125,P07,D02,0,0,1
1081,-47.0,1.0,43.0,1644835688.15625,P07,D02,0,0,1
1082,-48.0,1.0,42.0,1644835688.1875,P07,D02,0,0,1
1083,-48.0,0.0,42.0,1644835688.21875,P07,D02,0,0,1
1084,-48.0,1.0,42.0,1644835688.25,P07,D02,0,0,1
1085,-48.0,1.0,42.0,1644835688.28125,P07,D02,0,0,1
1086,-48.0,0.0,42.0,1644835688.3125,P07,D02,0,0,1
1087,-48.0,0.0,42.0,1644835688.34375,P07,D02,0,0,1
1088,-48.0,0.0,42.0,1644835688.375,P07,D02,0,0,1
1089,-48.0,1.0,42.0,1644835688.40625,P07,D02,0,0,1
1090,-48.0,0.0,42.0,1644835688.4375,P07,D02,0,0,1
1091,-48.0,1.0,42.0,1644835688.46875,P07,D02,0,0,1
1092,-47.0,1.0,43.0,1644835688.5,P07,D02,0,0,1
1093,-50.0,0.0,42.0,1644835688.53125,P07,D02,0,0,1
1094,-48.0,1.0,42.0,1644835688.5625,P07,D02,0,0,1
1095,-49.0,0.0,42.0,1644835688.59375,P07,D02,0,0,1
1096,-48.0,1.0,42.0,1644835688.625,P07,D02,0,0,1
1097,-48.0,0.0,42.0,1644835688.65625,P07,D02,0,0,1
1098,-48.0,0.0,42.0,1644835688.6875,P07,D02,0,0,1
1099,-48.0,0.0,42.0,1644835688.71875,P07,D02,0,0,1
1100,-48.0,0.0,42.0,1644835688.75,P07,D02,0,0,1
1101,-48.0,1.0,42.0,1644835688.78125,P07,D02,0,0,1
1102,-48.0,0.0,42.0,1644835688.8125,P07,D02,0,0,1
1103,-48.0,0.0,42.0,1644835688.84375,P07,D02,0,0,1
1104,-48.0,0.0,42.0,1644835688.875,P07,D02,0,0,1
1105,-48.0,0.0,41.0,1644835688.90625,P07,D02,0,0,1
1106,-47.0,1.0,43.0,1644835688.9375,P07,D02,0,0,1
1107,-48.0,0.0,42.0,1644835688.96875,P07,D02,0,0,1
1108,-48.0,1.0,43.0,1644835689.0,P07,D02,0,0,1
1109,-48.0,0.0,42.0,1644835689.03125,P07,D02,0,0,1
1110,-48.0,1.0,42.0,1644835689.0625,P07,D02,0,0,1
1111,-48.0,1.0,42.0,1644835689.09375,P07,D02,0,0,1
1112,-48.0,0.0,42.0,1644835689.125,P07,D02,0,0,1
1113,-48.0,1.0,42.0,1644835689.15625,P07,D02,0,0,1
1114,-48.0,0.0,42.0,1644835689.1875,P07,D02,0,0,1
1115,-48.0,0.0,42.0,1644835689.21875,P07,D02,0,0,1
1116,-48.0,1.0,42.0,1644835689.25,P07,D02,0,0,1
1117,-48.0,0.0,42.0,1644835689.28125,P07,D02,0,0,1
1118,-48.0,0.0,42.0,1644835689.3125,P07,D02,0,0,1
1119,-48.0,0.0,42.0,1644835689.34375,P07,D02,0,0,1
1120,-48.0,0.0,42.0,1644835689.375,P07,D02,0,0,1
1121,-48.0,0.0,42.0,1644835689.40625,P07,D02,0,0,1
1122,-48.0,0.0,42.0,1644835689.4375,P07,D02,0,0,1
1123,-48.0,0.0,42.0,1644835689.46875,P07,D02,0,0,1
1124,-48.0,1.0,42.0,1644835689.5,P07,D02,0,0,1
1125,-48.0,0.0,42.0,1644835689.53125,P07,D02,0,0,1
1126,-48.0,0.0,42.0,1644835689.5625,P07,D02,0,0,1
1127,-48.0,0.0,42.0,1644835689.59375,P07,D02,0,0,1
1128,-48.0,0.0,42.0,1644835689.625,P07,D02,0,0,1
1129,-48.0,0.0,42.0,1644835689.65625,P07,D02,0,0,1
1130,-48.0,0.0,42.0,1644835689.6875,P07,D02,0,0,1
1131,-47.0,1.0,42.0,1644835689.71875,P07,D02,0,0,1
1132,-48.0,0.0,42.0,1644835689.75,P07,D02,0,0,1
1133,-48.0,0.0,42.0,1644835689.78125,P07,D02,0,0,1
1134,-48.0,1.0,42.0,1644835689.8125,P07,D02,0,0,1
1135,-48.0,1.0,42.0,1644835689.84375,P07,D02,0,0,1
1136,-48.0,0.0,42.0,1644835689.875,P07,D02,0,0,1
1137,-48.0,0.0,42.0,1644835689.90625,P07,D02,0,0,1
1138,-48.0,1.0,42.0,1644835689.9375,P07,D02,0,0,1
1139,-48.0,0.0,42.0,1644835689.96875,P07,D02,0,0,1
1140,-48.0,0.0,42.0,1644835690.0,P07,D02,0,0,1
1141,-48.0,0.0,42.0,1644835690.03125,P07,D02,0,0,1
1142,-48.0,0.0,42.0,1644835690.0625,P07,D02,0,0,1
1143,-48.0,0.0,42.0,1644835690.09375,P07,D02,0,0,1
1144,-48.0,0.0,42.0,1644835690.125,P07,D02,0,0,1
1145,-48.0,0.0,42.0,1644835690.15625,P07,D02,0,0,1
1146,-48.0,0.0,42.0,1644835690.1875,P07,D02,0,0,1
1147,-48.0,0.0,42.0,1644835690.21875,P07,D02,0,0,1
1148,-52.0,1.0,41.0,1644835690.25,P07,D02,0,0,1
1149,-43.0,-2.0,43.0,1644835690.28125,P07,D02,0,0,1
1150,-51.0,2.0,41.0,1644835690.3125,P07,D02,0,0,1
1151,-48.0,0.0,42.0,1644835690.34375,P07,D02,0,0,1
1152,-48.0,1.0,43.0,1644835690.375,P07,D02,0,0,1
1153,-48.0,1.0,42.0,1644835690.40625,P07,D02,0,0,1
1154,-49.0,0.0,41.0,1644835690.4375,P07,D02,0,0,1
1155,-48.0,0.0,42.0,1644835690.46875,P07,D02,0,0,1
1156,-48.0,0.0,42.0,1644835690.5,P07,D02,0,0,1
1157,-48.0,1.0,42.0,1644835690.53125,P07,D02,0,0,1
1158,-48.0,0.0,42.0,1644835690.5625,P07,D02,0,0,1
1159,-48.0,0.0,42.0,1644835690.59375,P07,D02,0,0,1
1160,-48.0,0.0,42.0,1644835690.625,P07,D02,0,0,1
1161,-48.0,0.0,42.0,1644835690.65625,P07,D02,0,0,1
1162,-48.0,0.0,42.0,1644835690.6875,P07,D02,0,0,1
1163,-48.0,0.0,42.0,1644835690.71875,P07,D02,0,0,1
1164,-48.0,0.0,42.0,1644835690.75,P07,D02,0,0,1
1165,-48.0,0.0,42.0,1644835690.78125,P07,D02,0,0,1
1166,-48.0,0.0,42.0,1644835690.8125,P07,D02,0,0,1
1167,-48.0,0.0,42.0,1644835690.84375,P07,D02,0,0,1
1168,-48.0,0.0,42.0,1644835690.875,P07,D02,0,0,1
1169,-48.0,1.0,42.0,1644835690.90625,P07,D02,0,0,1
1170,-48.0,0.0,42.0,1644835690.9375,P07,D02,0,0,1
1171,-48.0,0.0,42.0,1644835690.96875,P07,D02,0,0,1
1172,-48.0,1.0,42.0,1644835691.0,P07,D02,0,0,1
1173,-48.0,1.0,42.0,1644835691.03125,P07,D02,0,0,1
1174,-48.0,1.0,42.0,1644835691.0625,P07,D02,0,0,1
1175,-48.0,1.0,43.0,1644835691.09375,P07,D02,0,0,1
1176,-48.0,0.0,42.0,1644835691.125,P07,D02,0,0,1
1177,-48.0,1.0,43.0,1644835691.15625,P07,D02,0,0,1
1178,-49.0,1.0,42.0,1644835691.1875,P07,D02,0,0,1
1179,-48.0,1.0,43.0,1644835691.21875,P07,D02,0,0,1
1180,-48.0,1.0,42.0,1644835691.25,P07,D02,0,0,1
1181,-48.0,0.0,42.0,1644835691.28125,P07,D02,0,0,1
1182,-48.0,0.0,42.0,1644835691.3125,P07,D02,0,0,1
1183,-48.0,1.0,42.0,1644835691.34375,P07,D02,0,0,1
1184,-48.0,0.0,42.0,1644835691.375,P07,D02,0,0,1
1185,-48.0,0.0,42.0,1644835691.40625,P07,D02,0,0,1
1186,-48.0,0.0,42.0,1644835691.4375,P07,D02,0,0,1
1187,-48.0,0.0,42.0,1644835691.46875,P07,D02,0,0,1
1188,-48.0,0.0,42.0,1644835691.5,P07,D02,0,0,1
1189,-48.0,1.0,42.0,1644835691.53125,P07,D02,0,0,1
1190,-48.0,0.0,42.0,1644835691.5625,P07,D02,0,0,1
1191,-48.0,0.0,42.0,1644835691.59375,P07,D02,0,0,1
1192,-48.0,0.0,42.0,1644835691.625,P07,D02,0,0,1
1193,-48.0,1.0,42.0,1644835691.65625,P07,D02,0,0,1
1194,-48.0,1.0,42.0,1644835691.6875,P07,D02,0,0,1
1195,-48.0,0.0,42.0,1644835691.71875,P07,D02,0,0,1
1196,-48.0,0.0,43.0,1644835691.75,P07,D02,0,0,1
1197,-48.0,0.0,42.0,1644835691.78125,P07,D02,0,0,1
1198,-48.0,1.0,42.0,1644835691.8125,P07,D02,0,0,1
1199,-48.0,1.0,42.0,1644835691.84375,P07,D02,0,0,1
1200,-47.0,0.0,42.0,1644835691.875,P07,D02,0,0,1
1201,-50.0,0.0,41.0,1644835691.90625,P07,D02,0,0,1
1202,-47.0,1.0,43.0,1644835691.9375,P07,D02,0,0,1
1203,-48.0,1.0,42.0,1644835691.96875,P07,D02,0,0,1
1204,-47.0,0.0,43.0,1644835692.0,P07,D02,0,0,1
1205,-48.0,0.0,42.0,1644835692.03125,P07,D02,0,0,1
1206,-48.0,1.0,43.0,1644835692.0625,P07,D02,0,0,1
1207,-48.0,1.0,42.0,1644835692.09375,P07,D02,0,0,1
1208,-48.0,0.0,42.0,1644835692.125,P07,D02,0,0,1
1209,-48.0,1.0,42.0,1644835692.15625,P07,D02,0,0,1
1210,-47.0,1.0,43.0,1644835692.1875,P07,D02,0,0,1
1211,-47.0,0.0,43.0,1644835692.21875,P07,D02,0,0,1
1212,-48.0,1.0,42.0,1644835692.25,P07,D02,0,0,1
1213,-48.0,0.0,42.0,1644835692.28125,P07,D02,0,0,1
1214,-48.0,1.0,42.0,1644835692.3125,P07,D02,0,0,1
1215,-48.0,0.0,42.0,1644835692.34375,P07,D02,0,0,1
1216,-48.0,1.0,42.0,1644835692.375,P07,D02,0,0,1
1217,-47.0,0.0,43.0,1644835692.40625,P07,D02,0,0,1
1218,-48.0,1.0,43.0,1644835692.4375,P07,D02,0,0,1
1219,-48.0,1.0,42.0,1644835692.46875,P07,D02,0,0,1
1220,-48.0,1.0,43.0,1644835692.5,P07,D02,0,0,1
1221,-47.0,0.0,43.0,1644835692.53125,P07,D02,0,0,1
1222,-48.0,0.0,43.0,1644835692.5625,P07,D02,0,0,1
1223,-48.0,0.0,42.0,1644835692.59375,P07,D02,0,0,1
1224,-48.0,1.0,43.0,1644835692.625,P07,D02,0,0,1
1225,-47.0,0.0,42.0,1644835692.65625,P07,D02,0,0,1
1226,-48.0,1.0,43.0,1644835692.6875,P07,D02,0,0,1
1227,-48.0,0.0,42.0,1644835692.71875,P07,D02,0,0,1
1228,-48.0,0.0,42.0,1644835692.75,P07,D02,0,0,1
1229,-47.0,1.0,43.0,1644835692.78125,P07,D02,0,0,1
1230,-48.0,0.0,42.0,1644835692.8125,P07,D02,0,0,1
1231,-48.0,0.0,42.0,1644835692.84375,P07,D02,0,0,1
1232,-48.0,1.0,42.0,1644835692.875,P07,D02,0,0,1
1233,-47.0,0.0,42.0,1644835692.90625,P07,D02,0,0,1
1234,-48.0,0.0,43.0,1644835692.9375,P07,D02,0,0,1
1235,-48.0,0.0,42.0,1644835692.96875,P07,D02,0,0,1
1236,-44.0,1.0,43.0,1644835693.0,P07,D02,0,0,1
1237,-53.0,2.0,42.0,1644835693.03125,P07,D02,0,0,1
1238,-41.0,-3.0,43.0,1644835693.0625,P07,D02,0,0,1
1239,-51.0,2.0,41.0,1644835693.09375,P07,D02,0,0,1
1240,-47.0,0.0,41.0,1644835693.125,P07,D02,0,0,1
1241,-49.0,1.0,42.0,1644835693.15625,P07,D02,0,0,1
1242,-46.0,1.0,43.0,1644835693.1875,P07,D02,0,0,1
1243,-48.0,1.0,42.0,1644835693.21875,P07,D02,0,0,1
1244,-49.0,0.0,42.0,1644835693.25,P07,D02,0,0,1
1245,-47.0,1.0,43.0,1644835693.28125,P07,D02,0,0,1
1246,-47.0,1.0,42.0,1644835693.3125,P07,D02,0,0,1
1247,-47.0,1.0,43.0,1644835693.34375,P07,D02,0,0,1
1248,-48.0,0.0,42.0,1644835693.375,P07,D02,0,0,1
1249,-47.0,1.0,43.0,1644835693.40625,P07,D02,0,0,1
1250,-48.0,1.0,42.0,1644835693.4375,P07,D02,0,0,1
1251,-48.0,0.0,42.0,1644835693.46875,P07,D02,0,0,1
1252,-48.0,1.0,42.0,1644835693.5,P07,D02,0,0,1
1253,-47.0,1.0,43.0,1644835693.53125,P07,D02,0,0,1
1254,-47.0,1.0,43.0,1644835693.5625,P07,D02,0,0,1
1255,-47.0,0.0,42.0,1644835693.59375,P07,D02,0,0,1
1256,-48.0,0.0,42.0,1644835693.625,P07,D02,0,0,1
1257,-48.0,1.0,42.0,1644835693.65625,P07,D02,0,0,1
1258,-47.0,1.0,43.0,1644835693.6875,P07,D02,0,0,1
1259,-47.0,1.0,42.0,1644835693.71875,P07,D02,0,0,1
1260,-47.0,0.0,43.0,1644835693.75,P07,D02,0,0,1
1261,-48.0,0.0,42.0,1644835693.78125,P07,D02,0,0,1
1262,-48.0,0.0,43.0,1644835693.8125,P07,D02,0,0,1
1263,-47.0,0.0,43.0,1644835693.84375,P07,D02,0,0,1
1264,-47.0,0.0,43.0,1644835693.875,P07,D02,0,0,1
1265,-48.0,0.0,42.0,1644835693.90625,P07,D02,0,0,1
1266,-48.0,0.0,43.0,1644835693.9375,P07,D02,0,0,1
1267,-47.0,0.0,43.0,1644835693.96875,P07,D02,0,0,1
1268,-47.0,0.0,42.0,1644835694.0,P07,D02,0,0,1
1269,-47.0,0.0,43.0,1644835694.03125,P07,D02,0,0,1
1270,-47.0,0.0,43.0,1644835694.0625,P07,D02,0,0,1
1271,-48.0,0.0,42.0,1644835694.09375,P07,D02,0,0,1
1272,-48.0,0.0,42.0,1644835694.125,P07,D02,0,0,1
1273,-47.0,0.0,43.0,1644835694.15625,P07,D02,0,0,1
1274,-47.0,0.0,43.0,1644835694.1875,P07,D02,0,0,1
1275,-47.0,-1.0,42.0,1644835694.21875,P07,D02,0,0,1
1276,-47.0,0.0,43.0,1644835694.25,P07,D02,0,0,1
1277,-47.0,0.0,43.0,1644835694.28125,P07,D02,0,0,1
1278,-47.0,0.0,43.0,1644835694.3125,P07,D02,0,0,1
1279,-48.0,0.0,42.0,1644835694.34375,P07,D02,0,0,1
1280,-48.0,0.0,43.0,1644835694.375,P07,D02,0,0,1
1281,-47.0,0.0,42.0,1644835694.40625,P07,D02,0,0,1
1282,-47.0,0.0,43.0,1644835694.4375,P07,D02,0,0,1
1283,-47.0,0.0,43.0,1644835694.46875,P07,D02,0,0,1
1284,-48.0,0.0,42.0,1644835694.5,P07,D02,0,0,1
1285,-48.0,0.0,42.0,1644835694.53125,P07,D02,0,0,1
1286,-47.0,0.0,43.0,1644835694.5625,P07,D02,0,0,1
1287,-47.0,0.0,43.0,1644835694.59375,P07,D02,0,0,1
1288,-48.0,0.0,42.0,1644835694.625,P07,D02,0,0,1
1289,-47.0,0.0,42.0,1644835694.65625,P07,D02,0,0,1
1290,-48.0,0.0,43.0,1644835694.6875,P07,D02,0,0,1
1291,-47.0,1.0,43.0,1644835694.71875,P07,D02,0,0,1
1292,-47.0,0.0,43.0,1644835694.75,P07,D02,0,0,1
1293,-48.0,0.0,42.0,1644835694.78125,P07,D02,0,0,1
1294,-47.0,0.0,43.0,1644835694.8125,P07,D02,0,0,1
1295,-47.0,0.0,43.0,1644835694.84375,P07,D02,0,0,1
1296,-48.0,0.0,42.0,1644835694.875,P07,D02,0,0,1
1297,-47.0,0.0,43.0,1644835694.90625,P07,D02,0,0,1
1298,-47.0,0.0,43.0,1644835694.9375,P07,D02,0,0,1
1299,-49.0,0.0,42.0,1644835694.96875,P07,D02,0,0,1
1300,-47.0,1.0,43.0,1644835695.0,P07,D02,0,0,1
1301,-48.0,1.0,43.0,1644835695.03125,P07,D02,0,0,1
1302,-48.0,1.0,42.0,1644835695.0625,P07,D02,0,0,1
1303,-49.0,1.0,42.0,1644835695.09375,P07,D02,0,0,1
1304,-47.0,1.0,43.0,1644835695.125,P07,D02,0,0,1
1305,-47.0,0.0,43.0,1644835695.15625,P07,D02,0,0,1
1306,-48.0,1.0,42.0,1644835695.1875,P07,D02,0,0,1
1307,-48.0,1.0,42.0,1644835695.21875,P07,D02,0,0,1
1308,-47.0,1.0,43.0,1644835695.25,P07,D02,0,0,1
1309,-47.0,1.0,43.0,1644835695.28125,P07,D02,0,0,1
1310,-47.0,1.0,43.0,1644835695.3125,P07,D02,0,0,1
1311,-48.0,1.0,43.0,1644835695.34375,P07,D02,0,0,1
1312,-47.0,1.0,43.0,1644835695.375,P07,D02,0,0,1
1313,-47.0,1.0,42.0,1644835695.40625,P07,D02,0,0,1
1314,-47.0,0.0,43.0,1644835695.4375,P07,D02,0,0,1
1315,-48.0,1.0,42.0,1644835695.46875,P07,D02,0,0,1
1316,-47.0,1.0,43.0,1644835695.5,P07,D02,0,0,1
1317,-47.0,1.0,43.0,1644835695.53125,P07,D02,0,0,1
1318,-47.0,1.0,43.0,1644835695.5625,P07,D02,0,0,1
1319,-47.0,1.0,43.0,1644835695.59375,P07,D02,0,0,1
1320,-47.0,1.0,43.0,1644835695.625,P07,D02,0,0,1
1321,-47.0,1.0,43.0,1644835695.65625,P07,D02,0,0,1
1322,-47.0,1.0,43.0,1644835695.6875,P07,D02,0,0,1
1323,-47.0,1.0,43.0,1644835695.71875,P07,D02,0,0,1
1324,-47.0,1.0,43.0,1644835695.75,P07,D02,0,0,1
1325,-47.0,1.0,43.0,1644835695.78125,P07,D02,0,0,1
1326,-47.0,1.0,43.0,1644835695.8125,P07,D02,0,0,1
1327,-47.0,1.0,43.0,1644835695.84375,P07,D02,0,0,1
1328,-48.0,1.0,43.0,1644835695.875,P07,D02,0,0,1
1329,-48.0,0.0,43.0,1644835695.90625,P07,D02,0,0,1
1330,-47.0,1.0,43.0,1644835695.9375,P07,D02,0,0,1
1331,-47.0,1.0,43.0,1644835695.96875,P07,D02,0,0,1
1332,-47.0,1.0,43.0,1644835696.0,P07,D02,0,0,1
1333,-47.0,1.0,43.0,1644835696.03125,P07,D02,0,0,1
1334,-48.0,1.0,43.0,1644835696.0625,P07,D02,0,0,1
1335,-47.0,1.0,44.0,1644835696.09375,P07,D02,0,0,1
1336,-47.0,1.0,44.0,1644835696.125,P07,D02,0,0,1
1337,-47.0,1.0,44.0,1644835696.15625,P07,D02,0,0,1
1338,-47.0,1.0,44.0,1644835696.1875,P07,D02,0,0,1
1339,-47.0,2.0,44.0,1644835696.21875,P07,D02,0,0,1
1340,-45.0,4.0,45.0,1644835696.25,P07,D02,0,0,1
1341,-47.0,0.0,42.0,1644835696.28125,P07,D02,0,0,1
1342,-49.0,-1.0,41.0,1644835696.3125,P07,D02,0,0,1
1343,-50.0,0.0,40.0,1644835696.34375,P07,D02,0,0,1
1344,-49.0,0.0,41.0,1644835696.375,P07,D02,0,0,1
1345,-49.0,0.0,41.0,1644835696.40625,P07,D02,0,0,1
1346,-48.0,1.0,42.0,1644835696.4375,P07,D02,0,0,1
1347,-48.0,1.0,42.0,1644835696.46875,P07,D02,0,0,1
1348,-48.0,1.0,42.0,1644835696.5,P07,D02,0,0,1
1349,-48.0,1.0,42.0,1644835696.53125,P07,D02,0,0,1
1350,-48.0,1.0,43.0,1644835696.5625,P07,D02,0,0,1
1351,-47.0,1.0,43.0,1644835696.59375,P07,D02,0,0,1
1352,-47.0,0.0,42.0,1644835696.625,P07,D02,0,0,1
1353,-47.0,1.0,43.0,1644835696.65625,P07,D02,0,0,1
1354,-48.0,0.0,42.0,1644835696.6875,P07,D02,0,0,1
1355,-49.0,0.0,42.0,1644835696.71875,P07,D02,0,0,1
1356,-48.0,1.0,42.0,1644835696.75,P07,D02,0,0,1
1357,-48.0,1.0,42.0,1644835696.78125,P07,D02,0,0,1
1358,-48.0,1.0,42.0,1644835696.8125,P07,D02,0,0,1
1359,-49.0,0.0,41.0,1644835696.84375,P07,D02,0,0,1
1360,-49.0,1.0,41.0,1644835696.875,P07,D02,0,0,1
1361,-49.0,0.0,41.0,1644835696.90625,P07,D02,0,0,1
1362,-49.0,0.0,41.0,1644835696.9375,P07,D02,0,0,1
1363,-47.0,1.0,43.0,1644835696.96875,P07,D02,0,0,1
1364,-46.0,2.0,44.0,1644835697.0,P07,D02,0,0,1
1365,-48.0,2.0,42.0,1644835697.03125,P07,D02,0,0,1
1366,-49.0,1.0,41.0,1644835697.0625,P07,D02,0,0,1
1367,-49.0,1.0,41.0,1644835697.09375,P07,D02,0,0,1
1368,-48.0,1.0,42.0,1644835697.125,P07,D02,0,0,1
1369,-48.0,1.0,42.0,1644835697.15625,P07,D02,0,0,1
1370,-47.0,0.0,43.0,1644835697.1875,P07,D02,0,0,1
1371,-47.0,2.0,43.0,1644835697.21875,P07,D02,0,0,1
1372,-49.0,1.0,40.0,1644835697.25,P07,D02,0,0,1
1373,-50.0,0.0,40.0,1644835697.28125,P07,D02,0,0,1
1374,-52.0,4.0,40.0,1644835697.3125,P07,D02,0,0,1
1375,-50.0,2.0,41.0,1644835697.34375,P07,D02,0,0,1
1376,-51.0,2.0,42.0,1644835697.375,P07,D02,0,0,1
1377,-53.0,5.0,44.0,1644835697.40625,P07,D02,0,0,1
1378,-43.0,-4.0,49.0,1644835697.4375,P07,D02,0,0,1
1379,-43.0,-1.0,50.0,1644835697.46875,P07,D02,0,0,1
1380,-62.0,5.0,51.0,1644835697.5,P07,D02,0,0,1
1381,-55.0,-10.0,49.0,1644835697.53125,P07,D02,0,0,1
1382,-53.0,-7.0,41.0,1644835697.5625,P07,D02,0,0,1
1383,-64.0,-9.0,34.0,1644835697.59375,P07,D02,0,0,1
1384,-54.0,-8.0,34.0,1644835697.625,P07,D02,0,0,1
1385,-55.0,-10.0,23.0,1644835697.65625,P07,D02,0,0,1
1386,-60.0,-10.0,18.0,1644835697.6875,P07,D02,0,0,1
1387,-64.0,-17.0,13.0,1644835697.71875,P07,D02,0,0,1
1388,-61.0,-20.0,12.0,1644835697.75,P07,D02,0,0,1
1389,-55.0,-23.0,6.0,1644835697.78125,P07,D02,0,0,1
1390,-57.0,-24.0,1.0,1644835697.8125,P07,D02,0,0,1
1391,-54.0,-26.0,-7.0,1644835697.84375,P07,D02,0,0,1
1392,-53.0,-29.0,-11.0,1644835697.875,P07,D02,0,0,1
1393,-51.0,-33.0,-18.0,1644835697.90625,P07,D02,0,0,1
1394,-47.0,-37.0,-24.0,1644835697.9375,P07,D02,0,0,1
1395,-45.0,-39.0,-27.0,1644835697.96875,P07,D02,0,0,1
1396,-42.0,-41.0,-29.0,1644835698.0,P07,D02,0,0,1
1397,-37.0,-41.0,-28.0,1644835698.03125,P07,D02,0,0,1
1398,-33.0,-44.0,-30.0,1644835698.0625,P07,D02,0,0,1
1399,-36.0,-45.0,-30.0,1644835698.09375,P07,D02,0,0,1
1400,-34.0,-45.0,-25.0,1644835698.125,P07,D02,0,0,1
1401,-31.0,-45.0,-24.0,1644835698.15625,P07,D02,0,0,1
1402,-32.0,-47.0,-22.0,1644835698.1875,P07,D02,0,0,1
1403,-37.0,-47.0,-24.0,1644835698.21875,P07,D02,0,0,1
1404,-37.0,-46.0,-23.0,1644835698.25,P07,D02,0,0,1
1405,-41.0,-47.0,-21.0,1644835698.28125,P07,D02,0,0,1
1406,-39.0,-47.0,-20.0,1644835698.3125,P07,D02,0,0,1
1407,-38.0,-48.0,-16.0,1644835698.34375,P07,D02,0,0,1
1408,-38.0,-47.0,-16.0,1644835698.375,P07,D02,0,0,1
1409,-37.0,-48.0,-17.0,1644835698.40625,P07,D02,0,0,1
1410,-36.0,-49.0,-20.0,1644835698.4375,P07,D02,0,0,1
1411,-37.0,-51.0,-24.0,1644835698.46875,P07,D02,0,0,1
1412,-33.0,-50.0,-20.0,1644835698.5,P07,D02,0,0,1
1413,-37.0,-49.0,-15.0,1644835698.53125,P07,D02,0,0,1
1414,-41.0,-49.0,-15.0,1644835698.5625,P07,D02,0,0,1
1415,-40.0,-48.0,-14.0,1644835698.59375,P07,D02,0,0,1
1416,-37.0,-48.0,-14.0,1644835698.625,P07,D02,0,0,1
1417,-39.0,-49.0,-15.0,1644835698.65625,P07,D02,0,0,1
1418,-38.0,-48.0,-15.0,1644835698.6875,P07,D02,0,0,1
1419,-39.0,-49.0,-17.0,1644835698.71875,P07,D02,0,0,1
1420,-39.0,-48.0,-16.0,1644835698.75,P07,D02,0,0,1
1421,-42.0,-49.0,-15.0,1644835698.78125,P07,D02,0,0,1
1422,-39.0,-47.0,-15.0,1644835698.8125,P07,D02,0,0,1
1423,-40.0,-48.0,-17.0,1644835698.84375,P07,D02,0,0,1
1424,-39.0,-48.0,-16.0,1644835698.875,P07,D02,0,0,1
1425,-40.0,-49.0,-16.0,1644835698.90625,P07,D02,0,0,1
1426,-42.0,-48.0,-16.0,1644835698.9375,P07,D02,0,0,1
1427,-41.0,-47.0,-17.0,1644835698.96875,P07,D02,0,0,1
1428,-40.0,-48.0,-17.0,1644835699.0,P07,D02,0,0,1
1429,-37.0,-48.0,-17.0,1644835699.03125,P07,D02,0,0,1
1430,-35.0,-47.0,-16.0,1644835699.0625,P07,D02,0,0,1
1431,-37.0,-49.0,-20.0,1644835699.09375,P07,D02,0,0,1
1432,-39.0,-48.0,-21.0,1644835699.125,P07,D02,0,0,1
1433,-43.0,-46.0,-19.0,1644835699.15625,P07,D02,0,0,1
1434,-44.0,-46.0,-19.0,1644835699.1875,P07,D02,0,0,1
1435,-47.0,-47.0,-21.0,1644835699.21875,P07,D02,0,0,1
1436,-44.0,-46.0,-20.0,1644835699.25,P07,D02,0,0,1
1437,-38.0,-46.0,-19.0,1644835699.28125,P07,D02,0,0,1
1438,-41.0,-47.0,-21.0,1644835699.3125,P07,D02,0,0,1
1439,-39.0,-47.0,-20.0,1644835699.34375,P07,D02,0,0,1
1440,-39.0,-47.0,-19.0,1644835699.375,P07,D02,0,0,1
1441,-40.0,-47.0,-21.0,1644835699.40625,P07,D02,0,0,1
1442,-40.0,-47.0,-21.0,1644835699.4375,P07,D02,0,0,1
1443,-39.0,-46.0,-18.0,1644835699.46875,P07,D02,0,0,1
1444,-41.0,-46.0,-18.0,1644835699.5,P07,D02,0,0,1
1445,-41.0,-47.0,-20.0,1644835699.53125,P07,D02,0,0,1
1446,-41.0,-46.0,-20.0,1644835699.5625,P07,D02,0,0,1
1447,-44.0,-46.0,-20.0,1644835699.59375,P07,D02,0,0,1
1448,-40.0,-46.0,-19.0,1644835699.625,P07,D02,0,0,1
1449,-43.0,-46.0,-20.0,1644835699.65625,P07,D02,0,0,1
1450,-41.0,-45.0,-19.0,1644835699.6875,P07,D02,0,0,1
1451,-41.0,-47.0,-20.0,1644835699.71875,P07,D02,0,0,1
1452,-41.0,-47.0,-20.0,1644835699.75,P07,D02,0,0,1
1453,-40.0,-45.0,-18.0,1644835699.78125,P07,D02,0,0,1
1454,-39.0,-46.0,-18.0,1644835699.8125,P07,D02,0,0,1
1455,-41.0,-47.0,-20.0,1644835699.84375,P07,D02,0,0,1
1456,-41.0,-46.0,-20.0,1644835699.875,P07,D02,0,0,1
1457,-42.0,-46.0,-20.0,1644835699.90625,P07,D02,0,0,1
1458,-41.0,-46.0,-19.0,1644835699.9375,P07,D02,0,0,1
1459,-40.0,-46.0,-20.0,1644835699.96875,P07,D02,0,0,1
1460,-40.0,-46.0,-20.0,1644835700.0,P07,D02,0,0,1
1461,-39.0,-46.0,-20.0,1644835700.03125,P07,D02,0,0,1
1462,-38.0,-46.0,-20.0,1644835700.0625,P07,D02,0,0,1
1463,-41.0,-46.0,-22.0,1644835700.09375,P07,D02,0,0,1
1464,-42.0,-45.0,-21.0,1644835700.125,P07,D02,0,0,1
1465,-42.0,-45.0,-21.0,1644835700.15625,P07,D02,0,0,1
1466,-44.0,-45.0,-21.0,1644835700.1875,P07,D02,0,0,1
1467,-42.0,-46.0,-21.0,1644835700.21875,P07,D02,0,0,1
1468,-42.0,-45.0,-21.0,1644835700.25,P07,D02,0,0,1
1469,-42.0,-45.0,-21.0,1644835700.28125,P07,D02,0,0,1
1470,-39.0,-46.0,-21.0,1644835700.3125,P07,D02,0,0,1
1471,-35.0,-46.0,-21.0,1644835700.34375,P07,D02,0,0,1
1472,-39.0,-46.0,-21.0,1644835700.375,P07,D02,0,0,1
1473,-39.0,-45.0,-21.0,1644835700.40625,P07,D02,0,0,1
1474,-47.0,-46.0,-25.0,1644835700.4375,P07,D02,0,0,1
1475,-56.0,-44.0,-23.0,1644835700.46875,P07,D02,0,0,1
1476,-45.0,-43.0,-20.0,1644835700.5,P07,D02,0,0,1
1477,-30.0,-44.0,-7.0,1644835700.53125,P07,D02,0,0,1
1478,-34.0,-41.0,-1.0,1644835700.5625,P07,D02,0,0,1
1479,-45.0,-40.0,2.0,1644835700.59375,P07,D02,0,0,1
1480,-45.0,-38.0,4.0,1644835700.625,P07,D02,0,0,1
1481,-46.0,-34.0,15.0,1644835700.65625,P07,D02,0,0,1
1482,-50.0,-33.0,15.0,1644835700.6875,P07,D02,0,0,1
1483,-59.0,-32.0,10.0,1644835700.71875,P07,D02,0,0,1
1484,-64.0,-30.0,10.0,1644835700.75,P07,D02,0,0,1
1485,-47.0,-30.0,19.0,1644835700.78125,P07,D02,0,0,1
1486,-38.0,-27.0,24.0,1644835700.8125,P07,D02,0,0,1
1487,-53.0,-24.0,25.0,1644835700.84375,P07,D02,0,0,1
1488,-60.0,-23.0,23.0,1644835700.875,P07,D02,0,0,1
1489,-45.0,-21.0,31.0,1644835700.90625,P07,D02,0,0,1
1490,-31.0,-15.0,42.0,1644835700.9375,P07,D02,0,0,1
1491,-42.0,-13.0,41.0,1644835700.96875,P07,D02,0,0,1
1492,-57.0,-13.0,43.0,1644835701.0,P07,D02,0,0,1
1493,-52.0,-10.0,51.0,1644835701.03125,P07,D02,0,0,1
1494,-43.0,-9.0,64.0,1644835701.0625,P07,D02,0,0,1
1495,-40.0,-8.0,66.0,1644835701.09375,P07,D02,0,0,1
1496,-46.0,-6.0,59.0,1644835701.125,P07,D02,0,0,1
1497,-44.0,-7.0,56.0,1644835701.15625,P07,D02,0,0,1
1498,-28.0,-4.0,51.0,1644835701.1875,P07,D02,0,0,1
1499,-27.0,-4.0,51.0,1644835701.21875,P07,D02,0,0,1
1500,-37.0,-2.0,56.0,1644835701.25,P07,D02,0,0,1
1501,-32.0,1.0,62.0,1644835701.28125,P07,D02,0,0,1
1502,-40.0,3.0,66.0,1644835701.3125,P07,D02,0,0,1
1503,-36.0,-5.0,55.0,1644835701.34375,P07,D02,0,0,1
1504,-30.0,-5.0,52.0,1644835701.375,P07,D02,0,0,1
1505,-21.0,-5.0,53.0,1644835701.40625,P07,D02,0,0,1
1506,-22.0,-4.0,53.0,1644835701.4375,P07,D02,0,0,1
1507,-21.0,-4.0,50.0,1644835701.46875,P07,D02,0,0,1
1508,-19.0,-1.0,51.0,1644835701.5,P07,D02,0,0,1
1509,-33.0,3.0,60.0,1644835701.53125,P07,D02,0,0,1
1510,-28.0,3.0,63.0,1644835701.5625,P07,D02,0,0,1
1511,-25.0,0.0,59.0,1644835701.59375,P07,D02,0,0,1
1512,-33.0,-5.0,53.0,1644835701.625,P07,D02,0,0,1
1513,-36.0,-8.0,52.0,1644835701.65625,P07,D02,0,0,1
1514,-35.0,-10.0,53.0,1644835701.6875,P07,D02,0,0,1
1515,-33.0,-8.0,54.0,1644835701.71875,P07,D02,0,0,1
1516,-31.0,-5.0,55.0,1644835701.75,P07,D02,0,0,1
1517,-32.0,-4.0,53.0,1644835701.78125,P07,D02,0,0,1
1518,-31.0,-3.0,53.0,1644835701.8125,P07,D02,0,0,1
1519,-31.0,-2.0,54.0,1644835701.84375,P07,D02,0,0,1
1520,-31.0,-3.0,54.0,1644835701.875,P07,D02,0,0,1
1521,-32.0,-3.0,55.0,1644835701.90625,P07,D02,0,0,1
1522,-32.0,-5.0,56.0,1644835701.9375,P07,D02,0,0,1
1523,-30.0,-3.0,57.0,1644835701.96875,P07,D02,0,0,1
1524,-30.0,-3.0,57.0,1644835702.0,P07,D02,0,0,1
1525,-37.0,-2.0,52.0,1644835702.03125,P07,D02,0,0,1
1526,-41.0,-2.0,51.0,1644835702.0625,P07,D02,0,0,1
1527,-39.0,-2.0,51.0,1644835702.09375,P07,D02,0,0,1
1528,-37.0,-2.0,51.0,1644835702.125,P07,D02,0,0,1
1529,-38.0,-3.0,50.0,1644835702.15625,P07,D02,0,0,1
1530,-40.0,-4.0,50.0,1644835702.1875,P07,D02,0,0,1
1531,-39.0,-4.0,51.0,1644835702.21875,P07,D02,0,0,1
1532,-39.0,-4.0,51.0,1644835702.25,P07,D02,0,0,1
1533,-39.0,-3.0,49.0,1644835702.28125,P07,D02,0,0,1
1534,-40.0,-3.0,49.0,1644835702.3125,P07,D02,0,0,1
1535,-40.0,-3.0,49.0,1644835702.34375,P07,D02,0,0,1
1536,-40.0,-4.0,49.0,1644835702.375,P07,D02,0,0,1
1537,-41.0,-4.0,49.0,1644835702.40625,P07,D02,0,0,1
1538,-40.0,-4.0,49.0,1644835702.4375,P07,D02,0,0,1
1539,-39.0,-3.0,50.0,1644835702.46875,P07,D02,0,0,1
1540,-39.0,-3.0,50.0,1644835702.5,P07,D02,0,0,1
1541,-39.0,-4.0,50.0,1644835702.53125,P07,D02,0,0,1
1542,-40.0,-4.0,49.0,1644835702.5625,P07,D02,0,0,1
1543,-40.0,-4.0,49.0,1644835702.59375,P07,D02,0,0,1
1544,-40.0,-4.0,49.0,1644835702.625,P07,D02,0,0,1
1545,-39.0,-4.0,50.0,1644835702.65625,P07,D02,0,0,1
1546,-39.0,-3.0,50.0,1644835702.6875,P07,D02,0,0,1
1547,-40.0,-3.0,50.0,1644835702.71875,P07,D02,0,0,1
1548,-38.0,-3.0,51.0,1644835702.75,P07,D02,0,0,1
1549,-37.0,-3.0,52.0,1644835702.78125,P07,D02,0,0,1
1550,-37.0,-4.0,51.0,1644835702.8125,P07,D02,0,0,1
1551,-39.0,-4.0,50.0,1644835702.84375,P07,D02,0,0,1
1552,-40.0,-4.0,49.0,1644835702.875,P07,D02,0,0,1
1553,-40.0,-3.0,49.0,1644835702.90625,P07,D02,0,0,1
1554,-41.0,-4.0,48.0,1644835702.9375,P07,D02,0,0,1
1555,-44.0,-4.0,47.0,1644835702.96875,P07,D02,0,0,1
1556,-42.0,-3.0,48.0,1644835703.0,P07,D02,0,0,1
1557,-42.0,-3.0,48.0,1644835703.03125,P07,D02,0,0,1
1558,-41.0,-3.0,49.0,1644835703.0625,P07,D02,0,0,1
1559,-41.0,-4.0,49.0,1644835703.09375,P07,D02,0,0,1
1560,-39.0,-3.0,50.0,1644835703.125,P07,D02,0,0,1
1561,-38.0,-3.0,50.0,1644835703.15625,P07,D02,0,0,1
1562,-39.0,-3.0,50.0,1644835703.1875,P07,D02,0,0,1
1563,-39.0,-4.0,50.0,1644835703.21875,P07,D02,0,0,1
1564,-39.0,-4.0,50.0,1644835703.25,P07,D02,0,0,1
1565,-41.0,-4.0,49.0,1644835703.28125,P07,D02,0,0,1
1566,-41.0,-3.0,48.0,1644835703.3125,P07,D02,0,0,1
1567,-41.0,-3.0,49.0,1644835703.34375,P07,D02,0,0,1
1568,-40.0,-3.0,48.0,1644835703.375,P07,D02,0,0,1
1569,-41.0,-4.0,49.0,1644835703.40625,P07,D02,0,0,1
1570,-39.0,-4.0,50.0,1644835703.4375,P07,D02,0,0,1
1571,-40.0,-3.0,50.0,1644835703.46875,P07,D02,0,0,1
1572,-40.0,-3.0,49.0,1644835703.5,P07,D02,0,0,1
1573,-39.0,-3.0,50.0,1644835703.53125,P07,D02,0,0,1
1574,-39.0,-3.0,50.0,1644835703.5625,P07,D02,0,0,1
1575,-40.0,-4.0,50.0,1644835703.59375,P07,D02,0,0,1
1576,-40.0,-3.0,50.0,1644835703.625,P07,D02,0,0,1
1577,-39.0,-3.0,50.0,1644835703.65625,P07,D02,0,0,1
1578,-40.0,-4.0,50.0,1644835703.6875,P07,D02,0,0,1
1579,-40.0,-4.0,49.0,1644835703.71875,P07,D02,0,0,1
1580,-40.0,-3.0,51.0,1644835703.75,P07,D02,0,0,1
1581,-39.0,-3.0,50.0,1644835703.78125,P07,D02,0,0,1
1582,-40.0,-4.0,49.0,1644835703.8125,P07,D02,0,0,1
1583,-40.0,-4.0,49.0,1644835703.84375,P07,D02,0,0,1
1584,-39.0,-3.0,50.0,1644835703.875,P07,D02,0,0,1
1585,-39.0,-3.0,50.0,1644835703.90625,P07,D02,0,0,1
1586,-40.0,-3.0,50.0,1644835703.9375,P07,D02,0,0,1
1587,-40.0,-3.0,50.0,1644835703.96875,P07,D02,0,0,1
1588,-39.0,-4.0,50.0,1644835704.0,P07,D02,0,0,1
1589,-39.0,-3.0,49.0,1644835704.03125,P07,D02,0,0,1
1590,-40.0,-4.0,49.0,1644835704.0625,P07,D02,0,0,1
1591,-39.0,-4.0,50.0,1644835704.09375,P07,D02,0,0,1
1592,-39.0,-3.0,50.0,1644835704.125,P07,D02,0,0,1
1593,-40.0,-3.0,50.0,1644835704.15625,P07,D02,0,0,1
1594,-40.0,-3.0,50.0,1644835704.1875,P07,D02,0,0,1
1595,-39.0,-3.0,50.0,1644835704.21875,P07,D02,0,0,1
1596,-40.0,-4.0,49.0,1644835704.25,P07,D02,0,0,1
1597,-40.0,-4.0,50.0,1644835704.28125,P07,D02,0,0,1
1598,-40.0,-3.0,50.0,1644835704.3125,P07,D02,0,0,1
1599,-40.0,-3.0,50.0,1644835704.34375,P07,D02,0,0,1
1600,-39.0,-3.0,50.0,1644835704.375,P07,D02,0,0,1
1601,-40.0,-4.0,50.0,1644835704.40625,P07,D02,0,0,1
1602,-40.0,-4.0,49.0,1644835704.4375,P07,D02,0,0,1
1603,-39.0,-3.0,50.0,1644835704.46875,P07,D02,0,0,1
1604,-40.0,-3.0,50.0,1644835704.5,P07,D02,0,0,1
1605,-39.0,-3.0,50.0,1644835704.53125,P07,D02,0,0,1
1606,-39.0,-4.0,50.0,1644835704.5625,P07,D02,0,0,1
1607,-39.0,-3.0,50.0,1644835704.59375,P07,D02,0,0,1
1608,-40.0,-3.0,50.0,1644835704.625,P07,D02,0,0,1
1609,-40.0,-3.0,50.0,1644835704.65625,P07,D02,0,0,1
1610,-39.0,-3.0,50.0,1644835704.6875,P07,D02,0,0,1
1611,-39.0,-3.0,50.0,1644835704.71875,P07,D02,0,0,1
1612,-39.0,-3.0,50.0,1644835704.75,P07,D02,0,0,1
1613,-39.0,-3.0,50.0,1644835704.78125,P07,D02,0,0,1
1614,-39.0,-3.0,51.0,1644835704.8125,P07,D02,0,0,1
1615,-38.0,-3.0,50.0,1644835704.84375,P07,D02,0,0,1
1616,-39.0,-3.0,50.0,1644835704.875,P07,D02,0,0,1
1617,-38.0,-3.0,51.0,1644835704.90625,P07,D02,0,0,1
1618,-38.0,-3.0,50.0,1644835704.9375,P07,D02,0,0,1
1619,-39.0,-3.0,50.0,1644835704.96875,P07,D02,0,0,1
1620,-39.0,-3.0,50.0,1644835705.0,P07,D02,0,0,1
1621,-38.0,-3.0,51.0,1644835705.03125,P07,D02,0,0,1
1622,-39.0,-3.0,50.0,1644835705.0625,P07,D02,0,0,1
1623,-40.0,-3.0,50.0,1644835705.09375,P07,D02,0,0,1
1624,-39.0,-2.0,50.0,1644835705.125,P07,D02,0,0,1
1625,-38.0,-3.0,51.0,1644835705.15625,P07,D02,0,0,1
1626,-39.0,-3.0,50.0,1644835705.1875,P07,D02,0,0,1
1627,-38.0,-2.0,50.0,1644835705.21875,P07,D02,0,0,1
1628,-39.0,-3.0,50.0,1644835705.25,P07,D02,0,0,1
1629,-38.0,-2.0,50.0,1644835705.28125,P07,D02,0,0,1
1630,-39.0,-2.0,51.0,1644835705.3125,P07,D02,0,0,1
1631,-39.0,-2.0,50.0,1644835705.34375,P07,D02,0,0,1
1632,-39.0,-2.0,50.0,1644835705.375,P07,D02,0,0,1
1633,-39.0,-3.0,50.0,1644835705.40625,P07,D02,0,0,1
1634,-38.0,-3.0,50.0,1644835705.4375,P07,D02,0,0,1
1635,-39.0,-2.0,50.0,1644835705.46875,P07,D02,0,0,1
1636,-39.0,-3.0,50.0,1644835705.5,P07,D02,0,0,1
1637,-38.0,-2.0,50.0,1644835705.53125,P07,D02,0,0,1
1638,-39.0,-3.0,50.0,1644835705.5625,P07,D02,0,0,1
1639,-39.0,-2.0,50.0,1644835705.59375,P07,D02,0,0,1
1640,-38.0,-2.0,51.0,1644835705.625,P07,D02,0,0,1
1641,-38.0,-2.0,51.0,1644835705.65625,P07,D02,0,0,1
1642,-38.0,-2.0,51.0,1644835705.6875,P07,D02,0,0,1
1643,-38.0,-2.0,51.0,1644835705.71875,P07,D02,0,0,1
1644,-39.0,-2.0,50.0,1644835705.75,P07,D02,0,0,1
1645,-38.0,-2.0,51.0,1644835705.78125,P07,D02,0,0,1
1646,-38.0,-2.0,51.0,1644835705.8125,P07,D02,0,0,1
1647,-39.0,-2.0,50.0,1644835705.84375,P07,D02,0,0,1
1648,-36.0,-3.0,51.0,1644835705.875,P07,D02,0,0,1
1649,-40.0,-5.0,49.0,1644835705.90625,P07,D02,0,0,1
1650,-35.0,-1.0,53.0,1644835705.9375,P07,D02,0,0,1
1651,-41.0,-3.0,50.0,1644835705.96875,P07,D02,0,0,1
1652,-39.0,-2.0,50.0,1644835706.0,P07,D02,0,0,1
1653,-38.0,-3.0,50.0,1644835706.03125,P07,D02,0,0,1
1654,-39.0,-2.0,50.0,1644835706.0625,P07,D02,0,0,1
1655,-38.0,-2.0,50.0,1644835706.09375,P07,D02,0,0,1
1656,-39.0,-2.0,50.0,1644835706.125,P07,D02,0,0,1
1657,-40.0,-3.0,50.0,1644835706.15625,P07,D02,0,0,1
1658,-39.0,-2.0,50.0,1644835706.1875,P07,D02,0,0,1
1659,-38.0,-3.0,50.0,1644835706.21875,P07,D02,0,0,1
1660,-40.0,-3.0,50.0,1644835706.25,P07,D02,0,0,1
1661,-40.0,-3.0,50.0,1644835706.28125,P07,D02,0,0,1
1662,-39.0,-3.0,50.0,1644835706.3125,P07,D02,0,0,1
1663,-39.0,-3.0,50.0,1644835706.34375,P07,D02,0,0,1
1664,-39.0,-3.0,50.0,1644835706.375,P07,D02,0,0,1
1665,-39.0,-3.0,50.0,1644835706.40625,P07,D02,0,0,1
1666,-38.0,-3.0,51.0,1644835706.4375,P07,D02,0,0,1
1667,-39.0,-3.0,50.0,1644835706.46875,P07,D02,0,0,1
1668,-39.0,-3.0,50.0,1644835706.5,P07,D02,0,0,1
1669,-39.0,-3.0,50.0,1644835706.53125,P07,D02,0,0,1
1670,-39.0,-3.0,50.0,1644835706.5625,P07,D02,0,0,1
1671,-39.0,-3.0,50.0,1644835706.59375,P07,D02,0,0,1
1672,-39.0,-3.0,50.0,1644835706.625,P07,D02,0,0,1
1673,-39.0,-3.0,50.0,1644835706.65625,P07,D02,0,0,1
1674,-39.0,-3.0,50.0,1644835706.6875,P07,D02,0,0,1
1675,-39.0,-3.0,50.0,1644835706.71875,P07,D02,0,0,1
1676,-39.0,-3.0,50.0,1644835706.75,P07,D02,0,0,1
1677,-39.0,-3.0,50.0,1644835706.78125,P07,D02,0,0,1
1678,-39.0,-3.0,50.0,1644835706.8125,P07,D02,0,0,1
1679,-39.0,-3.0,50.0,1644835706.84375,P07,D02,0,0,1
1680,-39.0,-3.0,50.0,1644835706.875,P07,D02,0,0,1
1681,-39.0,-3.0,50.0,1644835706.90625,P07,D02,0,0,1
1682,-39.0,-3.0,50.0,1644835706.9375,P07,D02,0,0,1
1683,-39.0,-3.0,50.0,1644835706.96875,P07,D02,0,0,1
1684,-39.0,-3.0,50.0,1644835707.0,P07,D02,0,0,1
1685,-39.0,-3.0,50.0,1644835707.03125,P07,D02,0,0,1
1686,-39.0,-3.0,50.0,1644835707.0625,P07,D02,0,0,1
1687,-39.0,-3.0,50.0,1644835707.09375,P07,D02,0,0,1
1688,-39.0,-3.0,50.0,1644835707.125,P07,D02,0,0,1
1689,-39.0,-3.0,50.0,1644835707.15625,P07,D02,0,0,1
1690,-39.0,-3.0,50.0,1644835707.1875,P07,D02,0,0,1
1691,-39.0,-3.0,50.0,1644835707.21875,P07,D02,0,0,1
1692,-39.0,-3.0,50.0,1644835707.25,P07,D02,0,0,1
1693,-39.0,-3.0,50.0,1644835707.28125,P07,D02,0,0,1
1694,-39.0,-3.0,50.0,1644835707.3125,P07,D02,0,0,1
1695,-39.0,-3.0,50.0,1644835707.34375,P07,D02,0,0,1
1696,-39.0,-3.0,50.0,1644835707.375,P07,D02,0,0,1
1697,-38.0,-3.0,50.0,1644835707.40625,P07,D02,0,0,1
1698,-39.0,-3.0,50.0,1644835707.4375,P07,D02,0,0,1
1699,-39.0,-3.0,50.0,1644835707.46875,P07,D02,0,0,1
1700,-38.0,-3.0,51.0,1644835707.5,P07,D02,0,0,1
1701,-39.0,-3.0,50.0,1644835707.53125,P07,D02,0,0,1
1702,-39.0,-3.0,50.0,1644835707.5625,P07,D02,0,0,1
1703,-39.0,-3.0,50.0,1644835707.59375,P07,D02,0,0,1
1704,-39.0,-3.0,50.0,1644835707.625,P07,D02,0,0,1
1705,-39.0,-3.0,50.0,1644835707.65625,P07,D02,0,0,1
1706,-39.0,-3.0,50.0,1644835707.6875,P07,D02,0,0,1
1707,-39.0,-3.0,50.0,1644835707.71875,P07,D02,0,0,1
1708,-39.0,-3.0,51.0,1644835707.75,P07,D02,0,0,1
1709,-39.0,-3.0,49.0,1644835707.78125,P07,D02,0,0,1
1710,-39.0,-3.0,51.0,1644835707.8125,P07,D02,0,0,1
1711,-39.0,-3.0,50.0,1644835707.84375,P07,D02,0,0,1
1712,-39.0,-3.0,50.0,1644835707.875,P07,D02,0,0,1
1713,-39.0,-3.0,50.0,1644835707.90625,P07,D02,0,0,1
1714,-38.0,-3.0,50.0,1644835707.9375,P07,D02,0,0,1
1715,-39.0,-3.0,50.0,1644835707.96875,P07,D02,0,0,1
1716,-39.0,-3.0,50.0,1644835708.0,P07,D02,0,0,1
1717,-39.0,-3.0,50.0,1644835708.03125,P07,D02,0,0,1
1718,-39.0,-3.0,51.0,1644835708.0625,P07,D02,0,0,1
1719,-39.0,-3.0,50.0,1644835708.09375,P07,D02,0,0,1
1720,-39.0,-3.0,50.0,1644835708.125,P07,D02,0,0,1
1721,-38.0,-3.0,51.0,1644835708.15625,P07,D02,0,0,1
1722,-39.0,-3.0,51.0,1644835708.1875,P07,D02,0,0,1
1723,-38.0,-3.0,51.0,1644835708.21875,P07,D02,0,0,1
1724,-38.0,-3.0,50.0,1644835708.25,P07,D02,0,0,1
1725,-39.0,-3.0,50.0,1644835708.28125,P07,D02,0,0,1
1726,-38.0,-3.0,51.0,1644835708.3125,P07,D02,0,0,1
1727,-38.0,-3.0,51.0,1644835708.34375,P07,D02,0,0,1
1728,-39.0,-3.0,50.0,1644835708.375,P07,D02,0,0,1
1729,-38.0,-3.0,51.0,1644835708.40625,P07,D02,0,0,1
1730,-38.0,-3.0,51.0,1644835708.4375,P07,D02,0,0,1
1731,-38.0,-2.0,50.0,1644835708.46875,P07,D02,0,0,1
1732,-38.0,-2.0,51.0,1644835708.5,P07,D02,0,0,1
1733,-38.0,-2.0,51.0,1644835708.53125,P07,D02,0,0,1
1734,-38.0,-2.0,51.0,1644835708.5625,P07,D02,0,0,1
1735,-38.0,-2.0,51.0,1644835708.59375,P07,D02,0,0,1
1736,-38.0,-2.0,51.0,1644835708.625,P07,D02,0,0,1
1737,-37.0,-2.0,51.0,1644835708.65625,P07,D02,0,0,1
1738,-37.0,-2.0,51.0,1644835708.6875,P07,D02,0,0,1
1739,-38.0,-2.0,51.0,1644835708.71875,P07,D02,0,0,1
1740,-37.0,-2.0,51.0,1644835708.75,P07,D02,0,0,1
1741,-37.0,-2.0,51.0,1644835708.78125,P07,D02,0,0,1
1742,-37.0,-2.0,51.0,1644835708.8125,P07,D02,0,0,1
1743,-37.0,-2.0,52.0,1644835708.84375,P07,D02,0,0,1
1744,-36.0,-2.0,52.0,1644835708.875,P07,D02,0,0,1
1745,-35.0,-1.0,53.0,1644835708.90625,P07,D02,0,0,1
1746,-36.0,-1.0,52.0,1644835708.9375,P07,D02,0,0,1
1747,-37.0,-2.0,51.0,1644835708.96875,P07,D02,0,0,1
1748,-37.0,-3.0,51.0,1644835709.0,P07,D02,0,0,1
1749,-37.0,-3.0,52.0,1644835709.03125,P07,D02,0,0,1
1750,-37.0,-1.0,52.0,1644835709.0625,P07,D02,0,0,1
1751,-37.0,-1.0,52.0,1644835709.09375,P07,D02,0,0,1
1752,-37.0,-1.0,52.0,1644835709.125,P07,D02,0,0,1
1753,-37.0,-2.0,51.0,1644835709.15625,P07,D02,0,0,1
1754,-35.0,-1.0,52.0,1644835709.1875,P07,D02,0,0,1
1755,-35.0,-1.0,53.0,1644835709.21875,P07,D02,0,0,1
1756,-37.0,-3.0,52.0,1644835709.25,P07,D02,0,0,1
1757,-34.0,-1.0,53.0,1644835709.28125,P07,D02,0,0,1
1758,-38.0,-2.0,51.0,1644835709.3125,P07,D02,0,0,1
1759,-35.0,-1.0,52.0,1644835709.34375,P07,D02,0,0,1
1760,-36.0,-2.0,52.0,1644835709.375,P07,D02,0,0,1
1761,-36.0,-2.0,52.0,1644835709.40625,P07,D02,0,0,1
1762,-36.0,-2.0,52.0,1644835709.4375,P07,D02,0,0,1
1763,-36.0,-2.0,52.0,1644835709.46875,P07,D02,0,0,1
1764,-36.0,-2.0,52.0,1644835709.5,P07,D02,0,0,1
1765,-36.0,-2.0,52.0,1644835709.53125,P07,D02,0,0,1
1766,-36.0,-2.0,52.0,1644835709.5625,P07,D02,0,0,1
1767,-36.0,-2.0,53.0,1644835709.59375,P07,D02,0,0,1
1768,-36.0,-2.0,52.0,1644835709.625,P07,D02,0,0,1
1769,-35.0,-2.0,53.0,1644835709.65625,P07,D02,0,0,1
1770,-36.0,-2.0,53.0,1644835709.6875,P07,D02,0,0,1
1771,-36.0,-2.0,52.0,1644835709.71875,P07,D02,0,0,1
1772,-36.0,-2.0,52.0,1644835709.75,P07,D02,0,0,1
1773,-36.0,-2.0,52.0,1644835709.78125,P07,D02,0,0,1
1774,-35.0,-1.0,53.0,1644835709.8125,P07,D02,0,0,1
1775,-36.0,-2.0,52.0,1644835709.84375,P07,D02,0,0,1
1776,-35.0,-2.0,53.0,1644835709.875,P07,D02,0,0,1
1777,-35.0,-2.0,53.0,1644835709.90625,P07,D02,0,0,1
1778,-36.0,-2.0,52.0,1644835709.9375,P07,D02,0,0,1
1779,-36.0,-2.0,52.0,1644835709.96875,P07,D02,0,0,1
1780,-36.0,-2.0,52.0,1644835710.0,P07,D02,0,0,1
1781,-36.0,-2.0,53.0,1644835710.03125,P07,D02,0,0,1
1782,-35.0,-2.0,52.0,1644835710.0625,P07,D02,0,0,1
1783,-35.0,-2.0,53.0,1644835710.09375,P07,D02,0,0,1
1784,-35.0,-2.0,53.0,1644835710.125,P07,D02,0,0,1
1785,-36.0,-2.0,52.0,1644835710.15625,P07,D02,0,0,1
1786,-36.0,-2.0,52.0,1644835710.1875,P07,D02,0,0,1
1787,-35.0,-2.0,53.0,1644835710.21875,P07,D02,0,0,1
1788,-36.0,-2.0,52.0,1644835710.25,P07,D02,0,0,1
1789,-35.0,-1.0,53.0,1644835710.28125,P07,D02,0,0,1
1790,-35.0,-2.0,53.0,1644835710.3125,P07,D02,0,0,1
1791,-35.0,-2.0,52.0,1644835710.34375,P07,D02,0,0,1
1792,-36.0,-2.0,53.0,1644835710.375,P07,D02,0,0,1
1793,-35.0,-1.0,53.0,1644835710.40625,P07,D02,0,0,1
1794,-36.0,-2.0,52.0,1644835710.4375,P07,D02,0,0,1
1795,-36.0,-2.0,53.0,1644835710.46875,P07,D02,0,0,1
1796,-35.0,-2.0,53.0,1644835710.5,P07,D02,0,0,1
1797,-36.0,-2.0,53.0,1644835710.53125,P07,D02,0,0,1
1798,-32.0,-1.0,55.0,1644835710.5625,P07,D02,0,0,1
1799,-38.0,1.0,50.0,1644835710.59375,P07,D02,0,0,1
1800,-30.0,0.0,54.0,1644835710.625,P07,D02,0,0,1
1801,-35.0,0.0,52.0,1644835710.65625,P07,D02,0,0,1
1802,-39.0,-2.0,51.0,1644835710.6875,P07,D02,0,0,1
1803,-35.0,-2.0,53.0,1644835710.71875,P07,D02,0,0,1
1804,-35.0,-2.0,53.0,1644835710.75,P07,D02,0,0,1
1805,-36.0,-2.0,52.0,1644835710.78125,P07,D02,0,0,1
1806,-36.0,-2.0,52.0,1644835710.8125,P07,D02,0,0,1
1807,-36.0,-2.0,52.0,1644835710.84375,P07,D02,0,0,1
1808,-35.0,-2.0,53.0,1644835710.875,P07,D02,0,0,1
1809,-36.0,-2.0,52.0,1644835710.90625,P07,D02,0,0,1
1810,-36.0,-2.0,52.0,1644835710.9375,P07,D02,0,0,1
1811,-36.0,-2.0,52.0,1644835710.96875,P07,D02,0,0,1
1812,-36.0,-2.0,52.0,1644835711.0,P07,D02,0,0,1
1813,-36.0,-2.0,52.0,1644835711.03125,P07,D02,0,0,1
1814,-35.0,-2.0,53.0,1644835711.0625,P07,D02,0,0,1
1815,-36.0,-2.0,52.0,1644835711.09375,P07,D02,0,0,1
1816,-36.0,-2.0,52.0,1644835711.125,P07,D02,0,0,1
1817,-36.0,-2.0,52.0,1644835711.15625,P07,D02,0,0,1
1818,-36.0,-2.0,52.0,1644835711.1875,P07,D02,0,0,1
1819,-36.0,-2.0,52.0,1644835711.21875,P07,D02,0,0,1
1820,-36.0,-2.0,52.0,1644835711.25,P07,D02,0,0,1
1821,-36.0,-2.0,52.0,1644835711.28125,P07,D02,0,0,1
1822,-36.0,-2.0,52.0,1644835711.3125,P07,D02,0,0,1
1823,-36.0,-2.0,52.0,1644835711.34375,P07,D02,0,0,1
1824,-36.0,-2.0,53.0,1644835711.375,P07,D02,0,0,1
1825,-35.0,-1.0,52.0,1644835711.40625,P07,D02,0,0,1
1826,-36.0,-3.0,52.0,1644835711.4375,P07,D02,0,0,1
1827,-36.0,-2.0,52.0,1644835711.46875,P07,D02,0,0,1
1828,-36.0,-2.0,52.0,1644835711.5,P07,D02,0,0,1
1829,-36.0,-2.0,52.0,1644835711.53125,P07,D02,0,0,1
1830,-36.0,-2.0,52.0,1644835711.5625,P07,D02,0,0,1
1831,-36.0,-2.0,52.0,1644835711.59375,P07,D02,0,0,1
1832,-36.0,-2.0,52.0,1644835711.625,P07,D02,0,0,1
1833,-36.0,-2.0,53.0,1644835711.65625,P07,D02,0,0,1
1834,-36.0,-2.0,52.0,1644835711.6875,P07,D02,0,0,1
1835,-36.0,-2.0,52.0,1644835711.71875,P07,D02,0,0,1
1836,-36.0,-2.0,52.0,1644835711.75,P07,D02,0,0,1
1837,-35.0,-2.0,53.0,1644835711.78125,P07,D02,0,0,1
1838,-35.0,-3.0,51.0,1644835711.8125,P07,D02,0,0,1
1839,-35.0,-2.0,53.0,1644835711.84375,P07,D02,0,0,1
1840,-35.0,-2.0,53.0,1644835711.875,P07,D02,0,0,1
1841,-36.0,-2.0,52.0,1644835711.90625,P07,D02,0,0,1
1842,-36.0,-2.0,52.0,1644835711.9375,P07,D02,0,0,1
1843,-36.0,-2.0,52.0,1644835711.96875,P07,D02,0,0,1
1844,-36.0,-2.0,53.0,1644835712.0,P07,D02,0,0,1
1845,-35.0,-2.0,52.0,1644835712.03125,P07,D02,0,0,1
1846,-36.0,-2.0,52.0,1644835712.0625,P07,D02,0,0,1
1847,-36.0,-2.0,52.0,1644835712.09375,P07,D02,0,0,1
1848,-35.0,-2.0,52.0,1644835712.125,P07,D02,0,0,1
1849,-35.0,-1.0,53.0,1644835712.15625,P07,D02,0,0,1
1850,-35.0,-2.0,53.0,1644835712.1875,P07,D02,0,0,1
1851,-36.0,-2.0,52.0,1644835712.21875,P07,D02,0,0,1
1852,-36.0,-2.0,52.0,1644835712.25,P07,D02,0,0,1
1853,-36.0,-2.0,52.0,1644835712.28125,P07,D02,0,0,1
1854,-36.0,-2.0,52.0,1644835712.3125,P07,D02,0,0,1
1855,-36.0,-2.0,52.0,1644835712.34375,P07,D02,0,0,1
1856,-36.0,-2.0,52.0,1644835712.375,P07,D02,0,0,1
1857,-35.0,-1.0,53.0,1644835712.40625,P07,D02,0,0,1
1858,-35.0,-2.0,53.0,1644835712.4375,P07,D02,0,0,1
1859,-35.0,-2.0,53.0,1644835712.46875,P07,D02,0,0,1
1860,-35.0,-2.0,53.0,1644835712.5,P07,D02,0,0,1
1861,-36.0,-2.0,52.0,1644835712.53125,P07,D02,0,0,1
1862,-35.0,-2.0,53.0,1644835712.5625,P07,D02,0,0,1
1863,-35.0,-2.0,53.0,1644835712.59375,P07,D02,0,0,1
1864,-35.0,-2.0,52.0,1644835712.625,P07,D02,0,0,1
1865,-36.0,-2.0,52.0,1644835712.65625,P07,D02,0,0,1
1866,-35.0,-2.0,53.0,1644835712.6875,P07,D02,0,0,1
1867,-35.0,-1.0,53.0,1644835712.71875,P07,D02,0,0,1
1868,-36.0,-1.0,52.0,1644835712.75,P07,D02,0,0,1
1869,-35.0,-2.0,52.0,1644835712.78125,P07,D02,0,0,1
1870,-35.0,-1.0,53.0,1644835712.8125,P07,D02,0,0,1
1871,-35.0,-1.0,53.0,1644835712.84375,P07,D02,0,0,1
1872,-36.0,-2.0,53.0,1644835712.875,P07,D02,0,0,1
1873,-36.0,-2.0,52.0,1644835712.90625,P07,D02,0,0,1
1874,-34.0,-1.0,54.0,1644835712.9375,P07,D02,0,0,1
1875,-36.0,-2.0,52.0,1644835712.96875,P07,D02,0,0,1
1876,-36.0,-2.0,52.0,1644835713.0,P07,D02,0,0,1
1877,-35.0,-1.0,53.0,1644835713.03125,P07,D02,0,0,1
1878,-35.0,-1.0,53.0,1644835713.0625,P07,D02,0,0,1
1879,-35.0,-1.0,53.0,1644835713.09375,P07,D02,0,0,1
1880,-35.0,-1.0,53.0,1644835713.125,P07,D02,0,0,1
1881,-35.0,-2.0,53.0,1644835713.15625,P07,D02,0,0,1
1882,-35.0,-1.0,53.0,1644835713.1875,P07,D02,0,0,1
1883,-35.0,-1.0,52.0,1644835713.21875,P07,D02,0,0,1
1884,-36.0,-1.0,53.0,1644835713.25,P07,D02,0,0,1
1885,-35.0,-1.0,53.0,1644835713.28125,P07,D02,0,0,1
1886,-35.0,-1.0,53.0,1644835713.3125,P07,D02,0,0,1
1887,-35.0,-1.0,53.0,1644835713.34375,P07,D02,0,0,1
1888,-35.0,-1.0,53.0,1644835713.375,P07,D02,0,0,1
1889,-35.0,-1.0,53.0,1644835713.40625,P07,D02,0,0,1
1890,-35.0,-1.0,53.0,1644835713.4375,P07,D02,0,0,1
1891,-35.0,-1.0,53.0,1644835713.46875,P07,D02,0,0,1
1892,-35.0,-1.0,53.0,1644835713.5,P07,D02,0,0,1
1893,-35.0,-1.0,53.0,1644835713.53125,P07,D02,0,0,1
1894,-35.0,-1.0,53.0,1644835713.5625,P07,D02,0,0,1
1895,-35.0,-1.0,53.0,1644835713.59375,P07,D02,0,0,1
1896,-41.0,-2.0,52.0,1644835713.625,P07,D02,0,0,1
1897,-33.0,1.0,55.0,1644835713.65625,P07,D02,0,0,1
1898,-37.0,-2.0,51.0,1644835713.6875,P07,D02,0,0,1
1899,-36.0,-1.0,52.0,1644835713.71875,P07,D02,0,0,1
1900,-33.0,-1.0,54.0,1644835713.75,P07,D02,0,0,1
1901,-36.0,-2.0,52.0,1644835713.78125,P07,D02,0,0,1
1902,-36.0,-2.0,52.0,1644835713.8125,P07,D02,0,0,1
1903,-36.0,-1.0,52.0,1644835713.84375,P07,D02,0,0,1
1904,-36.0,-1.0,52.0,1644835713.875,P07,D02,0,0,1
1905,-36.0,-2.0,52.0,1644835713.90625,P07,D02,0,0,1
1906,-36.0,-2.0,53.0,1644835713.9375,P07,D02,0,0,1
1907,-36.0,-2.0,52.0,1644835713.96875,P07,D02,0,0,1
1908,-36.0,-1.0,52.0,1644835714.0,P07,D02,0,0,1
1909,-36.0,-2.0,52.0,1644835714.03125,P07,D02,0,0,1
1910,-36.0,-2.0,52.0,1644835714.0625,P07,D02,0,0,1
1911,-36.0,-2.0,52.0,1644835714.09375,P07,D02,0,0,1
1912,-36.0,-2.0,52.0,1644835714.125,P07,D02,0,0,1
1913,-36.0,-2.0,52.0,1644835714.15625,P07,D02,0,0,1
1914,-37.0,-2.0,52.0,1644835714.1875,P07,D02,0,0,1
1915,-35.0,-2.0,52.0,1644835714.21875,P07,D02,0,0,1
1916,-36.0,-2.0,52.0,1644835714.25,P07,D02,0,0,1
1917,-36.0,-2.0,52.0,1644835714.28125,P07,D02,0,0,1
1918,-36.0,-2.0,52.0,1644835714.3125,P07,D02,0,0,1
1919,-36.0,-1.0,52.0,1644835714.34375,P07,D02,0,0,1
1920,-36.0,-2.0,52.0,1644835714.375,P07,D02,0,0,1
1921,-35.0,-2.0,52.0,1644835714.40625,P07,D02,0,0,1
1922,-36.0,-2.0,52.0,1644835714.4375,P07,D02,0,0,1
1923,-35.0,-2.0,53.0,1644835714.46875,P07,D02,0,0,1
1924,-34.0,-1.0,53.0,1644835714.5,P07,D02,0,0,1
1925,-36.0,-2.0,52.0,1644835714.53125,P07,D02,0,0,1
1926,-36.0,-2.0,52.0,1644835714.5625,P07,D02,0,0,1
1927,-35.0,-2.0,52.0,1644835714.59375,P07,D02,0,0,1
1928,-34.0,-1.0,53.0,1644835714.625,P07,D02,0,0,1
1929,-35.0,-2.0,53.0,1644835714.65625,P07,D02,0,0,1
1930,-36.0,-2.0,52.0,1644835714.6875,P07,D02,0,0,1
1931,-35.0,-2.0,53.0,1644835714.71875,P07,D02,0,0,1
1932,-35.0,-1.0,53.0,1644835714.75,P07,D02,0,0,1
1933,-36.0,-2.0,52.0,1644835714.78125,P07,D02,0,0,1
1934,-35.0,-3.0,51.0,1644835714.8125,P07,D02,0,0,1
1935,-35.0,-1.0,53.0,1644835714.84375,P07,D02,0,0,1
1936,-35.0,-1.0,53.0,1644835714.875,P07,D02,0,0,1
1937,-34.0,-2.0,53.0,1644835714.90625,P07,D02,0,0,1
1938,-36.0,-2.0,52.0,1644835714.9375,P07,D02,0,0,1
1939,-36.0,-2.0,52.0,1644835714.96875,P07,D02,0,0,1
1940,-35.0,-2.0,53.0,1644835715.0,P07,D02,0,0,1
1941,-36.0,-2.0,52.0,1644835715.03125,P07,D02,0,0,1
1942,-36.0,-2.0,52.0,1644835715.0625,P07,D02,0,0,1
1943,-35.0,-2.0,53.0,1644835715.09375,P07,D02,0,0,1
1944,-35.0,-1.0,53.0,1644835715.125,P07,D02,0,0,1
1945,-35.0,-2.0,52.0,1644835715.15625,P07,D02,0,0,1
1946,-35.0,-1.0,53.0,1644835715.1875,P07,D02,0,0,1
1947,-35.0,-1.0,53.0,1644835715.21875,P07,D02,0,0,1
1948,-35.0,-1.0,53.0,1644835715.25,P07,D02,0,0,1
1949,-36.0,-2.0,53.0,1644835715.28125,P07,D02,0,0,1
1950,-35.0,-2.0,52.0,1644835715.3125,P07,D02,0,0,1
1951,-35.0,-2.0,53.0,1644835715.34375,P07,D02,0,0,1
1952,-35.0,-1.0,53.0,1644835715.375,P07,D02,0,0,1
1953,-35.0,-1.0,53.0,1644835715.40625,P07,D02,0,0,1
1954,-35.0,-2.0,53.0,1644835715.4375,P07,D02,0,0,1
1955,-34.0,-2.0,53.0,1644835715.46875,P07,D02,0,0,1
1956,-35.0,-2.0,52.0,1644835715.5,P07,D02,0,0,1
1957,-35.0,-2.0,52.0,1644835715.53125,P07,D02,0,0,1
1958,-35.0,-1.0,53.0,1644835715.5625,P07,D02,0,0,1
1959,-35.0,-2.0,53.0,1644835715.59375,P07,D02,0,0,1
1960,-35.0,-2.0,53.0,1644835715.625,P07,D02,0,0,1
1961,-35.0,-2.0,53.0,1644835715.65625,P07,D02,0,0,1
1962,-35.0,-2.0,52.0,1644835715.6875,P07,D02,0,0,1
1963,-35.0,-2.0,53.0,1644835715.71875,P07,D02,0,0,1
1964,-35.0,-2.0,53.0,1644835715.75,P07,D02,0,0,1
1965,-35.0,-2.0,53.0,1644835715.78125,P07,D02,0,0,1
1966,-35.0,-2.0,53.0,1644835715.8125,P07,D02,0,0,1
1967,-35.0,-1.0,53.0,1644835715.84375,P07,D02,0,0,1
1968,-35.0,-2.0,53.0,1644835715.875,P07,D02,0,0,1
1969,-36.0,-2.0,52.0,1644835715.90625,P07,D02,0,0,1
1970,-35.0,-2.0,53.0,1644835715.9375,P07,D02,0,0,1
1971,-36.0,-2.0,53.0,1644835715.96875,P07,D02,0,0,1
1972,-36.0,-2.0,52.0,1644835716.0,P07,D02,0,0,1
1973,-35.0,-2.0,53.0,1644835716.03125,P07,D02,0,0,1
1974,-35.0,-2.0,53.0,1644835716.0625,P07,D02,0,0,1
1975,-35.0,-2.0,53.0,1644835716.09375,P07,D02,0,0,1
1976,-36.0,-1.0,53.0,1644835716.125,P07,D02,0,0,1
1977,-35.0,-1.0,53.0,1644835716.15625,P07,D02,0,0,1
1978,-35.0,-1.0,53.0,1644835716.1875,P07,D02,0,0,1
1979,-35.0,-2.0,53.0,1644835716.21875,P07,D02,0,0,1
1980,-35.0,-1.0,53.0,1644835716.25,P07,D02,0,0,1
1981,-36.0,-2.0,53.0,1644835716.28125,P07,D02,0,0,1
1982,-35.0,-1.0,53.0,1644835716.3125,P07,D02,0,0,1
1983,-35.0,-1.0,53.0,1644835716.34375,P07,D02,0,0,1
1984,-35.0,-1.0,53.0,1644835716.375,P07,D02,0,0,1
1985,-35.0,-1.0,53.0,1644835716.40625,P07,D02,0,0,1
1986,-35.0,-2.0,53.0,1644835716.4375,P07,D02,0,0,1
1987,-35.0,-2.0,53.0,1644835716.46875,P07,D02,0,0,1
1988,-35.0,-1.0,53.0,1644835716.5,P07,D02,0,0,1
1989,-35.0,-2.0,53.0,1644835716.53125,P07,D02,0,0,1
1990,-35.0,-2.0,53.0,1644835716.5625,P07,D02,0,0,1
1991,-35.0,-2.0,53.0,1644835716.59375,P07,D02,0,0,1
1992,-35.0,-1.0,53.0,1644835716.625,P07,D02,0,0,1
1993,-35.0,-1.0,53.0,1644835716.65625,P07,D02,0,0,1
1994,-35.0,-2.0,53.0,1644835716.6875,P07,D02,0,0,1
1995,-35.0,-1.0,53.0,1644835716.71875,P07,D02,0,0,1
1996,-35.0,-1.0,53.0,1644835716.75,P07,D02,0,0,1
1997,-35.0,-2.0,53.0,1644835716.78125,P07,D02,0,0,1
1998,-35.0,-1.0,53.0,1644835716.8125,P07,D02,0,0,1
1999,-34.0,-1.0,54.0,1644835716.84375,P07,D02,0,0,1
2000,-35.0,-1.0,53.0,1644835716.875,P07,D02,0,0,1
2001,-36.0,-1.0,52.0,1644835716.90625,P07,D02,0,0,1
2002,-36.0,-1.0,52.0,1644835716.9375,P07,D02,0,0,1
2003,-34.0,-1.0,53.0,1644835716.96875,P07,D02,0,0,1
2004,-36.0,-2.0,52.0,1644835717.0,P07,D02,0,0,1
2005,-35.0,-2.0,53.0,1644835717.03125,P07,D02,0,0,1
2006,-35.0,-1.0,53.0,1644835717.0625,P07,D02,0,0,1
2007,-35.0,-2.0,53.0,1644835717.09375,P07,D02,0,0,1
2008,-35.0,-1.0,53.0,1644835717.125,P07,D02,0,0,1
2009,-35.0,-2.0,53.0,1644835717.15625,P07,D02,0,0,1
2010,-36.0,-2.0,52.0,1644835717.1875,P07,D02,0,0,1
2011,-36.0,-1.0,52.0,1644835717.21875,P07,D02,0,0,1
2012,-35.0,-1.0,53.0,1644835717.25,P07,D02,0,0,1
2013,-35.0,-2.0,53.0,1644835717.28125,P07,D02,0,0,1
2014,-35.0,-2.0,52.0,1644835717.3125,P07,D02,0,0,1
2015,-35.0,-2.0,53.0,1644835717.34375,P07,D02,0,0,1
2016,-35.0,-2.0,53.0,1644835717.375,P07,D02,0,0,1
2017,-35.0,-1.0,53.0,1644835717.40625,P07,D02,0,0,1
2018,-35.0,-2.0,53.0,1644835717.4375,P07,D02,0,0,1
2019,-34.0,-2.0,53.0,1644835717.46875,P07,D02,0,0,1
2020,-35.0,-1.0,53.0,1644835717.5,P07,D02,0,0,1
2021,-35.0,-1.0,53.0,1644835717.53125,P07,D02,0,0,1
2022,-34.0,-1.0,53.0,1644835717.5625,P07,D02,0,0,1
2023,-35.0,-1.0,53.0,1644835717.59375,P07,D02,0,0,1
2024,-34.0,-1.0,53.0,1644835717.625,P07,D02,0,0,1
2025,-35.0,-1.0,53.0,1644835717.65625,P07,D02,0,0,1
2026,-34.0,-1.0,53.0,1644835717.6875,P07,D02,0,0,1
2027,-35.0,-1.0,53.0,1644835717.71875,P07,D02,0,0,1
2028,-36.0,-1.0,52.0,1644835717.75,P07,D02,0,0,1
2029,-35.0,-1.0,53.0,1644835717.78125,P07,D02,0,0,1
2030,-34.0,-1.0,53.0,1644835717.8125,P07,D02,0,0,1
2031,-35.0,-1.0,53.0,1644835717.84375,P07,D02,0,0,1
2032,-34.0,-1.0,53.0,1644835717.875,P07,D02,0,0,1
2033,-34.0,0.0,54.0,1644835717.90625,P07,D02,0,0,1
2034,-35.0,0.0,52.0,1644835717.9375,P07,D02,0,0,1
2035,-35.0,-1.0,53.0,1644835717.96875,P07,D02,0,0,1
2036,-34.0,0.0,54.0,1644835718.0,P07,D02,0,0,1
2037,-33.0,0.0,54.0,1644835718.03125,P07,D02,0,0,1
2038,-34.0,-1.0,53.0,1644835718.0625,P07,D02,0,0,1
2039,-34.0,0.0,53.0,1644835718.09375,P07,D02,0,0,1
2040,-35.0,0.0,53.0,1644835718.125,P07,D02,0,0,1
2041,-34.0,0.0,53.0,1644835718.15625,P07,D02,0,0,1
2042,-34.0,0.0,53.0,1644835718.1875,P07,D02,0,0,1
2043,-35.0,0.0,53.0,1644835718.21875,P07,D02,0,0,1
2044,-35.0,0.0,53.0,1644835718.25,P07,D02,0,0,1
2045,-34.0,-1.0,53.0,1644835718.28125,P07,D02,0,0,1
2046,-35.0,-1.0,53.0,1644835718.3125,P07,D02,0,0,1
2047,-35.0,-1.0,53.0,1644835718.34375,P07,D02,0,0,1
2048,-34.0,0.0,53.0,1644835718.375,P07,D02,0,0,1
2049,-35.0,0.0,53.0,1644835718.40625,P07,D02,0,0,1
2050,-35.0,0.0,53.0,1644835718.4375,P07,D02,0,0,1
2051,-34.0,-1.0,53.0,1644835718.46875,P07,D02,0,0,1
2052,-34.0,0.0,53.0,1644835718.5,P07,D02,0,0,1
2053,-34.0,-1.0,53.0,1644835718.53125,P07,D02,0,0,1
2054,-38.0,1.0,50.0,1644835718.5625,P07,D02,0,0,1
2055,-39.0,-5.0,53.0,1644835718.59375,P07,D02,0,0,1
2056,-32.0,0.0,54.0,1644835718.625,P07,D02,0,0,1
2057,-36.0,-1.0,52.0,1644835718.65625,P07,D02,0,0,1
2058,-36.0,-1.0,53.0,1644835718.6875,P07,D02,0,0,1
2059,-35.0,-2.0,53.0,1644835718.71875,P07,D02,0,0,1
2060,-34.0,-1.0,53.0,1644835718.75,P07,D02,0,0,1
2061,-36.0,-1.0,52.0,1644835718.78125,P07,D02,0,0,1
2062,-36.0,-1.0,53.0,1644835718.8125,P07,D02,0,0,1
2063,-35.0,-1.0,53.0,1644835718.84375,P07,D02,0,0,1
2064,-36.0,-1.0,52.0,1644835718.875,P07,D02,0,0,1
2065,-35.0,-1.0,53.0,1644835718.90625,P07,D02,0,0,1
2066,-35.0,-1.0,53.0,1644835718.9375,P07,D02,0,0,1
2067,-36.0,-1.0,53.0,1644835718.96875,P07,D02,0,0,1
2068,-36.0,-2.0,52.0,1644835719.0,P07,D02,0,0,1
2069,-35.0,-1.0,53.0,1644835719.03125,P07,D02,0,0,1
2070,-36.0,-1.0,52.0,1644835719.0625,P07,D02,0,0,1
2071,-36.0,-2.0,52.0,1644835719.09375,P07,D02,0,0,1
2072,-36.0,-2.0,53.0,1644835719.125,P07,D02,0,0,1
2073,-36.0,-2.0,53.0,1644835719.15625,P07,D02,0,0,1
2074,-36.0,-1.0,53.0,1644835719.1875,P07,D02,0,0,1
2075,-36.0,-2.0,53.0,1644835719.21875,P07,D02,0,0,1
2076,-35.0,-2.0,53.0,1644835719.25,P07,D02,0,0,1
2077,-35.0,-2.0,53.0,1644835719.28125,P07,D02,0,0,1
2078,-36.0,-1.0,53.0,1644835719.3125,P07,D02,0,0,1
2079,-35.0,-1.0,53.0,1644835719.34375,P07,D02,0,0,1
2080,-35.0,-1.0,53.0,1644835719.375,P07,D02,0,0,1
2081,-36.0,-1.0,52.0,1644835719.40625,P07,D02,0,0,1
2082,-35.0,-1.0,53.0,1644835719.4375,P07,D02,0,0,1
2083,-35.0,-1.0,53.0,1644835719.46875,P07,D02,0,0,1
2084,-35.0,-1.0,53.0,1644835719.5,P07,D02,0,0,1
2085,-36.0,-2.0,52.0,1644835719.53125,P07,D02,0,0,1
2086,-35.0,-2.0,53.0,1644835719.5625,P07,D02,0,0,1
2087,-35.0,-1.0,53.0,1644835719.59375,P07,D02,0,0,1
2088,-35.0,-2.0,53.0,1644835719.625,P07,D02,0,0,1
2089,-35.0,-1.0,53.0,1644835719.65625,P07,D02,0,0,1
2090,-35.0,-1.0,53.0,1644835719.6875,P07,D02,0,0,1
2091,-35.0,-2.0,53.0,1644835719.71875,P07,D02,0,0,1
2092,-34.0,-1.0,53.0,1644835719.75,P07,D02,0,0,1
2093,-35.0,-1.0,53.0,1644835719.78125,P07,D02,0,0,1
2094,-35.0,-1.0,53.0,1644835719.8125,P07,D02,0,0,1
2095,-34.0,-1.0,53.0,1644835719.84375,P07,D02,0,0,1
2096,-35.0,-1.0,53.0,1644835719.875,P07,D02,0,0,1
2097,-35.0,-1.0,53.0,1644835719.90625,P07,D02,0,0,1
2098,-35.0,-1.0,53.0,1644835719.9375,P07,D02,0,0,1
2099,-35.0,-1.0,53.0,1644835719.96875,P07,D02,0,0,1
2100,-35.0,-1.0,53.0,1644835720.0,P07,D02,0,0,1
2101,-35.0,-1.0,53.0,1644835720.03125,P07,D02,0,0,1
2102,-35.0,-1.0,53.0,1644835720.0625,P07,D02,0,0,1
2103,-36.0,-1.0,52.0,1644835720.09375,P07,D02,0,0,1
2104,-35.0,-1.0,53.0,1644835720.125,P07,D02,0,0,1
2105,-35.0,-1.0,53.0,1644835720.15625,P07,D02,0,0,1
2106,-35.0,-1.0,53.0,1644835720.1875,P07,D02,0,0,1
2107,-35.0,-1.0,53.0,1644835720.21875,P07,D02,0,0,1
2108,-35.0,-1.0,53.0,1644835720.25,P07,D02,0,0,1
2109,-35.0,-1.0,53.0,1644835720.28125,P07,D02,0,0,1
2110,-35.0,-1.0,53.0,1644835720.3125,P07,D02,0,0,1
2111,-35.0,-1.0,53.0,1644835720.34375,P07,D02,0,0,1
2112,-35.0,-1.0,53.0,1644835720.375,P07,D02,0,0,1
2113,-35.0,-1.0,53.0,1644835720.40625,P07,D02,0,0,1
2114,-35.0,-1.0,53.0,1644835720.4375,P07,D02,0,0,1
2115,-34.0,-1.0,53.0,1644835720.46875,P07,D02,0,0,1
2116,-34.0,-1.0,53.0,1644835720.5,P07,D02,0,0,1
2117,-35.0,-1.0,53.0,1644835720.53125,P07,D02,0,0,1
2118,-34.0,-1.0,53.0,1644835720.5625,P07,D02,0,0,1
2119,-34.0,0.0,53.0,1644835720.59375,P07,D02,0,0,1
2120,-34.0,0.0,54.0,1644835720.625,P07,D02,0,0,1
2121,-34.0,-1.0,53.0,1644835720.65625,P07,D02,0,0,1
2122,-34.0,0.0,53.0,1644835720.6875,P07,D02,0,0,1
2123,-34.0,0.0,53.0,1644835720.71875,P07,D02,0,0,1
2124,-34.0,0.0,53.0,1644835720.75,P07,D02,0,0,1
2125,-34.0,0.0,53.0,1644835720.78125,P07,D02,0,0,1
2126,-34.0,-1.0,53.0,1644835720.8125,P07,D02,0,0,1
2127,-34.0,-1.0,53.0,1644835720.84375,P07,D02,0,0,1
2128,-35.0,0.0,53.0,1644835720.875,P07,D02,0,0,1
2129,-35.0,-1.0,53.0,1644835720.90625,P07,D02,0,0,1
2130,-35.0,-1.0,53.0,1644835720.9375,P07,D02,0,0,1
2131,-33.0,-2.0,54.0,1644835720.96875,P07,D02,0,0,1
2132,-37.0,-4.0,52.0,1644835721.0,P07,D02,0,0,1
2133,-34.0,0.0,53.0,1644835721.03125,P07,D02,0,0,1
2134,-37.0,-1.0,52.0,1644835721.0625,P07,D02,0,0,1
2135,-35.0,-1.0,52.0,1644835721.09375,P07,D02,0,0,1
2136,-35.0,-1.0,53.0,1644835721.125,P07,D02,0,0,1
2137,-35.0,-1.0,52.0,1644835721.15625,P07,D02,0,0,1
2138,-36.0,-1.0,52.0,1644835721.1875,P07,D02,0,0,1
2139,-36.0,-2.0,53.0,1644835721.21875,P07,D02,0,0,1
2140,-35.0,-2.0,53.0,1644835721.25,P07,D02,0,0,1
2141,-36.0,-1.0,53.0,1644835721.28125,P07,D02,0,0,1
2142,-36.0,-1.0,52.0,1644835721.3125,P07,D02,0,0,1
2143,-36.0,-2.0,52.0,1644835721.34375,P07,D02,0,0,1
2144,-36.0,-2.0,52.0,1644835721.375,P07,D02,0,0,1
2145,-36.0,-2.0,53.0,1644835721.40625,P07,D02,0,0,1
2146,-36.0,-1.0,53.0,1644835721.4375,P07,D02,0,0,1
2147,-36.0,-1.0,52.0,1644835721.46875,P07,D02,0,0,1
2148,-35.0,-2.0,53.0,1644835721.5,P07,D02,0,0,1
2149,-35.0,-2.0,53.0,1644835721.53125,P07,D02,0,0,1
2150,-35.0,-1.0,52.0,1644835721.5625,P07,D02,0,0,1
2151,-36.0,-2.0,52.0,1644835721.59375,P07,D02,0,0,1
2152,-36.0,-2.0,52.0,1644835721.625,P07,D02,0,0,1
2153,-35.0,-2.0,53.0,1644835721.65625,P07,D02,0,0,1
2154,-35.0,-2.0,53.0,1644835721.6875,P07,D02,0,0,1
2155,-36.0,-2.0,52.0,1644835721.71875,P07,D02,0,0,1
2156,-36.0,-2.0,53.0,1644835721.75,P07,D02,0,0,1
2157,-36.0,-2.0,52.0,1644835721.78125,P07,D02,0,0,1
2158,-35.0,-2.0,53.0,1644835721.8125,P07,D02,0,0,1
2159,-35.0,-1.0,52.0,1644835721.84375,P07,D02,0,0,1
2160,-36.0,-2.0,52.0,1644835721.875,P07,D02,0,0,1
2161,-36.0,-2.0,53.0,1644835721.90625,P07,D02,0,0,1
2162,-35.0,-2.0,53.0,1644835721.9375,P07,D02,0,0,1
2163,-36.0,-2.0,53.0,1644835721.96875,P07,D02,0,0,1
2164,-35.0,-1.0,53.0,1644835722.0,P07,D02,0,0,1
2165,-35.0,-2.0,52.0,1644835722.03125,P07,D02,0,0,1
2166,-36.0,-2.0,52.0,1644835722.0625,P07,D02,0,0,1
2167,-35.0,-1.0,53.0,1644835722.09375,P07,D02,0,0,1
2168,-35.0,-1.0,53.0,1644835722.125,P07,D02,0,0,1
2169,-35.0,-1.0,53.0,1644835722.15625,P07,D02,0,0,1
2170,-35.0,-1.0,53.0,1644835722.1875,P07,D02,0,0,1
2171,-35.0,-1.0,53.0,1644835722.21875,P07,D02,0,0,1
2172,-35.0,-1.0,53.0,1644835722.25,P07,D02,0,0,1
2173,-35.0,-1.0,53.0,1644835722.28125,P07,D02,0,0,1
2174,-35.0,-1.0,53.0,1644835722.3125,P07,D02,0,0,1
2175,-35.0,-1.0,53.0,1644835722.34375,P07,D02,0,0,1
2176,-34.0,-1.0,53.0,1644835722.375,P07,D02,0,0,1
2177,-34.0,-1.0,53.0,1644835722.40625,P07,D02,0,0,1
2178,-35.0,-1.0,53.0,1644835722.4375,P07,D02,0,0,1
2179,-35.0,-1.0,53.0,1644835722.46875,P07,D02,0,0,1
2180,-34.0,-1.0,53.0,1644835722.5,P07,D02,0,0,1
2181,-34.0,-1.0,53.0,1644835722.53125,P07,D02,0,0,1
2182,-34.0,-1.0,53.0,1644835722.5625,P07,D02,0,0,1
2183,-35.0,-1.0,53.0,1644835722.59375,P07,D02,0,0,1
2184,-34.0,-1.0,53.0,1644835722.625,P07,D02,0,0,1
2185,-34.0,0.0,53.0,1644835722.65625,P07,D02,0,0,1
2186,-35.0,-1.0,53.0,1644835722.6875,P07,D02,0,0,1
2187,-34.0,0.0,53.0,1644835722.71875,P07,D02,0,0,1
2188,-34.0,0.0,53.0,1644835722.75,P07,D02,0,0,1
2189,-34.0,0.0,53.0,1644835722.78125,P07,D02,0,0,1
2190,-34.0,0.0,53.0,1644835722.8125,P07,D02,0,0,1
2191,-34.0,0.0,53.0,1644835722.84375,P07,D02,0,0,1
2192,-34.0,-1.0,53.0,1644835722.875,P07,D02,0,0,1
2193,-34.0,-1.0,53.0,1644835722.90625,P07,D02,0,0,1
2194,-34.0,0.0,53.0,1644835722.9375,P07,D02,0,0,1
2195,-34.0,0.0,53.0,1644835722.96875,P07,D02,0,0,1
2196,-34.0,0.0,54.0,1644835723.0,P07,D02,0,0,1
2197,-34.0,0.0,53.0,1644835723.03125,P07,D02,0,0,1
2198,-35.0,0.0,53.0,1644835723.0625,P07,D02,0,0,1
2199,-34.0,0.0,53.0,1644835723.09375,P07,D02,0,0,1
2200,-34.0,0.0,53.0,1644835723.125,P07,D02,0,0,1
2201,-34.0,0.0,53.0,1644835723.15625,P07,D02,0,0,1
2202,-28.0,-3.0,52.0,1644835723.1875,P07,D02,0,0,1
2203,-33.0,-8.0,56.0,1644835723.21875,P07,D02,0,0,1
2204,-26.0,3.0,56.0,1644835723.25,P07,D02,0,0,1
2205,-40.0,-1.0,50.0,1644835723.28125,P07,D02,0,0,1
2206,-37.0,0.0,51.0,1644835723.3125,P07,D02,0,0,1
2207,-34.0,-2.0,53.0,1644835723.34375,P07,D02,0,0,1
2208,-35.0,-2.0,53.0,1644835723.375,P07,D02,0,0,1
2209,-35.0,-1.0,53.0,1644835723.40625,P07,D02,0,0,1
2210,-36.0,-1.0,52.0,1644835723.4375,P07,D02,0,0,1
2211,-36.0,-1.0,52.0,1644835723.46875,P07,D02,0,0,1
2212,-35.0,-1.0,53.0,1644835723.5,P07,D02,0,0,1
2213,-36.0,-1.0,52.0,1644835723.53125,P07,D02,0,0,1
2214,-36.0,-2.0,52.0,1644835723.5625,P07,D02,0,0,1
2215,-35.0,-1.0,52.0,1644835723.59375,P07,D02,0,0,1
2216,-35.0,-1.0,53.0,1644835723.625,P07,D02,0,0,1
2217,-36.0,-1.0,53.0,1644835723.65625,P07,D02,0,0,1
2218,-36.0,-1.0,52.0,1644835723.6875,P07,D02,0,0,1
2219,-36.0,-1.0,52.0,1644835723.71875,P07,D02,0,0,1
2220,-35.0,-1.0,53.0,1644835723.75,P07,D02,0,0,1
2221,-35.0,-1.0,53.0,1644835723.78125,P07,D02,0,0,1
2222,-37.0,-1.0,52.0,1644835723.8125,P07,D02,0,0,1
2223,-36.0,-2.0,53.0,1644835723.84375,P07,D02,0,0,1
2224,-35.0,-1.0,53.0,1644835723.875,P07,D02,0,0,1
2225,-35.0,-1.0,53.0,1644835723.90625,P07,D02,0,0,1
2226,-34.0,-1.0,53.0,1644835723.9375,P07,D02,0,0,1
2227,-35.0,-1.0,53.0,1644835723.96875,P07,D02,0,0,1
2228,-36.0,-1.0,52.0,1644835724.0,P07,D02,0,0,1
2229,-35.0,-1.0,53.0,1644835724.03125,P07,D02,0,0,1
2230,-34.0,-2.0,53.0,1644835724.0625,P07,D02,0,0,1
2231,-36.0,-1.0,52.0,1644835724.09375,P07,D02,0,0,1
2232,-36.0,-2.0,52.0,1644835724.125,P07,D02,0,0,1
2233,-35.0,-2.0,52.0,1644835724.15625,P07,D02,0,0,1
2234,-36.0,-1.0,53.0,1644835724.1875,P07,D02,0,0,1
2235,-36.0,-1.0,53.0,1644835724.21875,P07,D02,0,0,1
2236,-34.0,-1.0,53.0,1644835724.25,P07,D02,0,0,1
2237,-35.0,-2.0,53.0,1644835724.28125,P07,D02,0,0,1
2238,-36.0,-2.0,52.0,1644835724.3125,P07,D02,0,0,1
2239,-36.0,-1.0,52.0,1644835724.34375,P07,D02,0,0,1
2240,-35.0,-1.0,53.0,1644835724.375,P07,D02,0,0,1
2241,-35.0,-2.0,53.0,1644835724.40625,P07,D02,0,0,1
2242,-35.0,-1.0,52.0,1644835724.4375,P07,D02,0,0,1
2243,-35.0,-2.0,53.0,1644835724.46875,P07,D02,0,0,1
2244,-34.0,-1.0,53.0,1644835724.5,P07,D02,0,0,1
2245,-35.0,-1.0,53.0,1644835724.53125,P07,D02,0,0,1
2246,-35.0,-1.0,53.0,1644835724.5625,P07,D02,0,0,1
2247,-35.0,-1.0,53.0,1644835724.59375,P07,D02,0,0,1
2248,-34.0,-1.0,53.0,1644835724.625,P07,D02,0,0,1
2249,-35.0,-1.0,53.0,1644835724.65625,P07,D02,0,0,1
2250,-34.0,-1.0,53.0,1644835724.6875,P07,D02,0,0,1
2251,-35.0,-1.0,53.0,1644835724.71875,P07,D02,0,0,1
2252,-35.0,-1.0,53.0,1644835724.75,P07,D02,0,0,1
2253,-35.0,0.0,53.0,1644835724.78125,P07,D02,0,0,1
2254,-35.0,-1.0,53.0,1644835724.8125,P07,D02,0,0,1
2255,-34.0,0.0,53.0,1644835724.84375,P07,D02,0,0,1
2256,-36.0,-1.0,53.0,1644835724.875,P07,D02,0,0,1
2257,-35.0,0.0,53.0,1644835724.90625,P07,D02,0,0,1
2258,-34.0,0.0,53.0,1644835724.9375,P07,D02,0,0,1
2259,-34.0,0.0,54.0,1644835724.96875,P07,D02,0,0,1
2260,-34.0,0.0,53.0,1644835725.0,P07,D02,0,0,1
2261,-35.0,0.0,53.0,1644835725.03125,P07,D02,0,0,1
2262,-34.0,0.0,53.0,1644835725.0625,P07,D02,0,0,1
2263,-33.0,0.0,54.0,1644835725.09375,P07,D02,0,0,1
2264,-35.0,-1.0,53.0,1644835725.125,P07,D02,0,0,1
2265,-35.0,0.0,53.0,1644835725.15625,P07,D02,0,0,1
2266,-35.0,0.0,53.0,1644835725.1875,P07,D02,0,0,1
2267,-34.0,0.0,53.0,1644835725.21875,P07,D02,0,0,1
2268,-34.0,0.0,53.0,1644835725.25,P07,D02,0,0,1
2269,-35.0,0.0,53.0,1644835725.28125,P07,D02,0,0,1
2270,-34.0,0.0,53.0,1644835725.3125,P07,D02,0,0,1
2271,-34.0,0.0,53.0,1644835725.34375,P07,D02,0,0,1
2272,-32.0,-1.0,52.0,1644835725.375,P07,D02,0,0,1
2273,-32.0,-4.0,53.0,1644835725.40625,P07,D02,0,0,1
2274,-30.0,2.0,54.0,1644835725.4375,P07,D02,0,0,1
2275,-37.0,-1.0,52.0,1644835725.46875,P07,D02,0,0,1
2276,-36.0,0.0,52.0,1644835725.5,P07,D02,0,0,1
2277,-36.0,-2.0,53.0,1644835725.53125,P07,D02,0,0,1
2278,-34.0,-1.0,54.0,1644835725.5625,P07,D02,0,0,1
2279,-36.0,0.0,52.0,1644835725.59375,P07,D02,0,0,1
2280,-37.0,-1.0,52.0,1644835725.625,P07,D02,0,0,1
2281,-35.0,-1.0,53.0,1644835725.65625,P07,D02,0,0,1
2282,-34.0,-1.0,53.0,1644835725.6875,P07,D02,0,0,1
2283,-36.0,-1.0,52.0,1644835725.71875,P07,D02,0,0,1
2284,-36.0,-1.0,52.0,1644835725.75,P07,D02,0,0,1
2285,-36.0,-1.0,52.0,1644835725.78125,P07,D02,0,0,1
2286,-35.0,-1.0,53.0,1644835725.8125,P07,D02,0,0,1
2287,-35.0,-1.0,52.0,1644835725.84375,P07,D02,0,0,1
2288,-37.0,-1.0,52.0,1644835725.875,P07,D02,0,0,1
2289,-35.0,-1.0,53.0,1644835725.90625,P07,D02,0,0,1
2290,-36.0,-1.0,52.0,1644835725.9375,P07,D02,0,0,1
2291,-36.0,-2.0,52.0,1644835725.96875,P07,D02,0,0,1
2292,-36.0,-1.0,52.0,1644835726.0,P07,D02,0,0,1
2293,-35.0,-1.0,53.0,1644835726.03125,P07,D02,0,0,1
2294,-35.0,-1.0,53.0,1644835726.0625,P07,D02,0,0,1
2295,-35.0,-1.0,53.0,1644835726.09375,P07,D02,0,0,1
2296,-35.0,-2.0,53.0,1644835726.125,P07,D02,0,0,1
2297,-34.0,-1.0,53.0,1644835726.15625,P07,D02,0,0,1
2298,-36.0,-1.0,53.0,1644835726.1875,P07,D02,0,0,1
2299,-35.0,-2.0,52.0,1644835726.21875,P07,D02,0,0,1
2300,-35.0,-1.0,53.0,1644835726.25,P07,D02,0,0,1
2301,-35.0,-1.0,53.0,1644835726.28125,P07,D02,0,0,1
2302,-34.0,-1.0,53.0,1644835726.3125,P07,D02,0,0,1
2303,-35.0,-2.0,53.0,1644835726.34375,P07,D02,0,0,1
2304,-35.0,-1.0,53.0,1644835726.375,P07,D02,0,0,1
2305,-35.0,-1.0,53.0,1644835726.40625,P07,D02,0,0,1
2306,-27.0,-2.0,55.0,1644835726.4375,P07,D02,0,0,1
2307,-33.0,-9.0,53.0,1644835726.46875,P07,D02,0,0,1
2308,-36.0,-1.0,51.0,1644835726.5,P07,D02,0,0,1
2309,-41.0,-2.0,50.0,1644835726.53125,P07,D02,0,0,1
2310,-32.0,-1.0,54.0,1644835726.5625,P07,D02,0,0,1
2311,-34.0,-1.0,54.0,1644835726.59375,P07,D02,0,0,1
2312,-36.0,-1.0,52.0,1644835726.625,P07,D02,0,0,1
2313,-36.0,-1.0,52.0,1644835726.65625,P07,D02,0,0,1
2314,-36.0,-1.0,52.0,1644835726.6875,P07,D02,0,0,1
2315,-36.0,-1.0,52.0,1644835726.71875,P07,D02,0,0,1
2316,-35.0,-1.0,53.0,1644835726.75,P07,D02,0,0,1
2317,-35.0,-1.0,53.0,1644835726.78125,P07,D02,0,0,1
2318,-36.0,-2.0,52.0,1644835726.8125,P07,D02,0,0,1
2319,-37.0,-2.0,51.0,1644835726.84375,P07,D02,0,0,1
2320,-35.0,-1.0,53.0,1644835726.875,P07,D02,0,0,1
2321,-36.0,-1.0,52.0,1644835726.90625,P07,D02,0,0,1
2322,-36.0,-1.0,53.0,1644835726.9375,P07,D02,0,0,1
2323,-36.0,-2.0,52.0,1644835726.96875,P07,D02,0,0,1
2324,-36.0,-2.0,52.0,1644835727.0,P07,D02,0,0,1
2325,-35.0,-1.0,53.0,1644835727.03125,P07,D02,0,0,1
2326,-34.0,0.0,53.0,1644835727.0625,P07,D02,0,0,1
2327,-36.0,-2.0,52.0,1644835727.09375,P07,D02,0,0,1
2328,-36.0,-1.0,52.0,1644835727.125,P07,D02,0,0,1
2329,-34.0,-1.0,53.0,1644835727.15625,P07,D02,0,0,1
2330,-35.0,-2.0,53.0,1644835727.1875,P07,D02,0,0,1
2331,-36.0,-2.0,52.0,1644835727.21875,P07,D02,0,0,1
2332,-35.0,-1.0,53.0,1644835727.25,P07,D02,0,0,1
2333,-35.0,-1.0,53.0,1644835727.28125,P07,D02,0,0,1
2334,-35.0,-1.0,53.0,1644835727.3125,P07,D02,0,0,1
2335,-36.0,-1.0,53.0,1644835727.34375,P07,D02,0,0,1
2336,-35.0,-1.0,53.0,1644835727.375,P07,D02,0,0,1
2337,-35.0,-1.0,53.0,1644835727.40625,P07,D02,0,0,1
2338,-35.0,-1.0,53.0,1644835727.4375,P07,D02,0,0,1
2339,-35.0,-1.0,53.0,1644835727.46875,P07,D02,0,0,1
2340,-34.0,-1.0,53.0,1644835727.5,P07,D02,0,0,1
2341,-26.0,-2.0,56.0,1644835727.53125,P07,D02,0,0,1
2342,-30.0,-9.0,54.0,1644835727.5625,P07,D02,0,0,1
2343,-29.0,4.0,55.0,1644835727.59375,P07,D02,0,0,1
2344,-42.0,-2.0,49.0,1644835727.625,P07,D02,0,0,1
2345,-32.0,-1.0,54.0,1644835727.65625,P07,D02,0,0,1
2346,-33.0,-1.0,54.0,1644835727.6875,P07,D02,0,0,1
2347,-36.0,-1.0,52.0,1644835727.71875,P07,D02,0,0,1
2348,-36.0,-1.0,52.0,1644835727.75,P07,D02,0,0,1
2349,-35.0,-1.0,53.0,1644835727.78125,P07,D02,0,0,1
2350,-36.0,-1.0,52.0,1644835727.8125,P07,D02,0,0,1
2351,-36.0,-2.0,52.0,1644835727.84375,P07,D02,0,0,1
2352,-35.0,-2.0,53.0,1644835727.875,P07,D02,0,0,1
2353,-36.0,-1.0,52.0,1644835727.90625,P07,D02,0,0,1
2354,-36.0,-1.0,52.0,1644835727.9375,P07,D02,0,0,1
2355,-35.0,-2.0,53.0,1644835727.96875,P07,D02,0,0,1
2356,-36.0,-2.0,52.0,1644835728.0,P07,D02,0,0,1
2357,-36.0,-2.0,52.0,1644835728.03125,P07,D02,0,0,1
2358,-36.0,-1.0,52.0,1644835728.0625,P07,D02,0,0,1
2359,-36.0,-2.0,52.0,1644835728.09375,P07,D02,0,0,1
2360,-36.0,-1.0,52.0,1644835728.125,P07,D02,0,0,1
2361,-36.0,-2.0,53.0,1644835728.15625,P07,D02,0,0,1
2362,-36.0,-1.0,53.0,1644835728.1875,P07,D02,0,0,1
2363,-35.0,-1.0,53.0,1644835728.21875,P07,D02,0,0,1
2364,-36.0,-2.0,52.0,1644835728.25,P07,D02,0,0,1
2365,-36.0,-2.0,52.0,1644835728.28125,P07,D02,0,0,1
2366,-35.0,-1.0,53.0,1644835728.3125,P07,D02,0,0,1
2367,-36.0,-1.0,53.0,1644835728.34375,P07,D02,0,0,1
2368,-35.0,-1.0,53.0,1644835728.375,P07,D02,0,0,1
2369,-35.0,-2.0,53.0,1644835728.40625,P07,D02,0,0,1
2370,-35.0,-1.0,53.0,1644835728.4375,P07,D02,0,0,1
2371,-35.0,-1.0,53.0,1644835728.46875,P07,D02,0,0,1
2372,-35.0,-1.0,53.0,1644835728.5,P07,D02,0,0,1
2373,-35.0,-1.0,53.0,1644835728.53125,P07,D02,0,0,1
2374,-35.0,-1.0,53.0,1644835728.5625,P07,D02,0,0,1
2375,-34.0,-1.0,53.0,1644835728.59375,P07,D02,0,0,1
2376,-34.0,-1.0,53.0,1644835728.625,P07,D02,0,0,1
2377,-35.0,-2.0,53.0,1644835728.65625,P07,D02,0,0,1
2378,-34.0,-1.0,53.0,1644835728.6875,P07,D02,0,0,1
2379,-34.0,-1.0,53.0,1644835728.71875,P07,D02,0,0,1
2380,-35.0,-1.0,53.0,1644835728.75,P07,D02,0,0,1
2381,-34.0,-1.0,53.0,1644835728.78125,P07,D02,0,0,1
2382,-35.0,-1.0,52.0,1644835728.8125,P07,D02,0,0,1
2383,-36.0,-1.0,53.0,1644835728.84375,P07,D02,0,0,1
2384,-34.0,0.0,53.0,1644835728.875,P07,D02,0,0,1
2385,-34.0,0.0,53.0,1644835728.90625,P07,D02,0,0,1
2386,-35.0,-1.0,53.0,1644835728.9375,P07,D02,0,0,1
2387,-34.0,-1.0,53.0,1644835728.96875,P07,D02,0,0,1
2388,-35.0,0.0,53.0,1644835729.0,P07,D02,0,0,1
2389,-35.0,0.0,53.0,1644835729.03125,P07,D02,0,0,1
2390,-35.0,-1.0,53.0,1644835729.0625,P07,D02,0,0,1
2391,-35.0,-1.0,53.0,1644835729.09375,P07,D02,0,0,1
2392,-35.0,0.0,53.0,1644835729.125,P07,D02,0,0,1
2393,-35.0,-1.0,53.0,1644835729.15625,P07,D02,0,0,1
