,acc_x,acc_y,acc_z,timestamp,participant,document,val,arou,eng
0,-38.0,-1.0,51.0,1644838138.875,P07,D11,0,0,0
1,-38.0,1.0,51.0,1644838138.90625,P07,D11,0,0,0
2,-38.0,0.0,51.0,1644838138.9375,P07,D11,0,0,0
3,-39.0,-1.0,50.0,1644838138.96875,P07,D11,0,0,0
4,-37.0,0.0,51.0,1644838139.0,P07,D11,0,0,0
5,-37.0,0.0,52.0,1644838139.03125,P07,D11,0,0,0
6,-38.0,-1.0,51.0,1644838139.0625,P07,D11,0,0,0
7,-38.0,-1.0,51.0,1644838139.09375,P07,D11,0,0,0
8,-38.0,-1.0,51.0,1644838139.125,P07,D11,0,0,0
9,-37.0,0.0,51.0,1644838139.15625,P07,D11,0,0,0
10,-38.0,0.0,51.0,1644838139.1875,P07,D11,0,0,0
11,-38.0,-1.0,51.0,1644838139.21875,P07,D11,0,0,0
12,-37.0,-1.0,51.0,1644838139.25,P07,D11,0,0,0
13,-37.0,-1.0,51.0,1644838139.28125,P07,D11,0,0,0
14,-37.0,0.0,51.0,1644838139.3125,P07,D11,0,0,0
15,-37.0,-1.0,51.0,1644838139.34375,P07,D11,0,0,0
16,-37.0,-1.0,51.0,1644838139.375,P07,D11,0,0,0
17,-38.0,0.0,51.0,1644838139.40625,P07,D11,0,0,0
18,-37.0,0.0,52.0,1644838139.4375,P07,D11,0,0,0
19,-37.0,0.0,52.0,1644838139.46875,P07,D11,0,0,0
20,-37.0,0.0,51.0,1644838139.5,P07,D11,0,0,0
21,-37.0,-1.0,51.0,1644838139.53125,P07,D11,0,0,0
22,-37.0,-1.0,51.0,1644838139.5625,P07,D11,0,0,0
23,-37.0,0.0,52.0,1644838139.59375,P07,D11,0,0,0
24,-37.0,0.0,52.0,1644838139.625,P07,D11,0,0,0
25,-38.0,0.0,51.0,1644838139.65625,P07,D11,0,0,0
26,-37.0,0.0,52.0,1644838139.6875,P07,D11,0,0,0
27,-37.0,-1.0,52.0,1644838139.71875,P07,D11,0,0,0
28,-38.0,-1.0,51.0,1644838139.75,P07,D11,0,0,0
29,-38.0,-1.0,51.0,1644838139.78125,P07,D11,0,0,0
30,-37.0,0.0,51.0,1644838139.8125,P07,D11,0,0,0
31,-37.0,0.0,51.0,1644838139.84375,P07,D11,0,0,0
32,-37.0,-1.0,51.0,1644838139.875,P07,D11,0,0,0
33,-37.0,-1.0,51.0,1644838139.90625,P07,D11,0,0,0
34,-38.0,-1.0,51.0,1644838139.9375,P07,D11,0,0,0
35,-37.0,-1.0,51.0,1644838139.96875,P07,D11,0,0,0
36,-38.0,0.0,51.0,1644838140.0,P07,D11,0,0,0
37,-38.0,-2.0,51.0,1644838140.03125,P07,D11,0,0,0
38,-37.0,-1.0,51.0,1644838140.0625,P07,D11,0,0,0
39,-37.0,0.0,52.0,1644838140.09375,P07,D11,0,0,0
40,-37.0,1.0,52.0,1644838140.125,P07,D11,0,0,0
41,-37.0,0.0,52.0,1644838140.15625,P07,D11,0,0,0
42,-37.0,0.0,51.0,1644838140.1875,P07,D11,0,0,0
43,-38.0,-1.0,51.0,1644838140.21875,P07,D11,0,0,0
44,-38.0,-1.0,51.0,1644838140.25,P07,D11,0,0,0
45,-37.0,-1.0,51.0,1644838140.28125,P07,D11,0,0,0
46,-37.0,0.0,52.0,1644838140.3125,P07,D11,0,0,0
47,-37.0,-1.0,51.0,1644838140.34375,P07,D11,0,0,0
48,-37.0,-1.0,51.0,1644838140.375,P07,D11,0,0,0
49,-37.0,0.0,51.0,1644838140.40625,P07,D11,0,0,0
50,-38.0,-1.0,51.0,1644838140.4375,P07,D11,0,0,0
51,-37.0,-1.0,51.0,1644838140.46875,P07,D11,0,0,0
52,-38.0,-1.0,51.0,1644838140.5,P07,D11,0,0,0
53,-38.0,-1.0,51.0,1644838140.53125,P07,D11,0,0,0
54,-37.0,-1.0,51.0,1644838140.5625,P07,D11,0,0,0
55,-38.0,-1.0,51.0,1644838140.59375,P07,D11,0,0,0
56,-37.0,-1.0,51.0,1644838140.625,P07,D11,0,0,0
57,-37.0,-1.0,52.0,1644838140.65625,P07,D11,0,0,0
58,-37.0,-1.0,51.0,1644838140.6875,P07,D11,0,0,0
59,-38.0,-1.0,51.0,1644838140.71875,P07,D11,0,0,0
60,-37.0,0.0,51.0,1644838140.75,P07,D11,0,0,0
61,-37.0,-1.0,51.0,1644838140.78125,P07,D11,0,0,0
62,-38.0,-1.0,51.0,1644838140.8125,P07,D11,0,0,0
63,-37.0,-1.0,51.0,1644838140.84375,P07,D11,0,0,0
64,-37.0,-1.0,51.0,1644838140.875,P07,D11,0,0,0
65,-37.0,0.0,52.0,1644838140.90625,P07,D11,0,0,0
66,-37.0,0.0,52.0,1644838140.9375,P07,D11,0,0,0
67,-36.0,0.0,52.0,1644838140.96875,P07,D11,0,0,0
68,-36.0,0.0,51.0,1644838141.0,P07,D11,0,0,0
69,-41.0,-1.0,50.0,1644838141.03125,P07,D11,0,0,0
70,-44.0,0.0,48.0,1644838141.0625,P07,D11,0,0,0
71,-34.0,-2.0,52.0,1644838141.09375,P07,D11,0,0,0
72,-34.0,-1.0,53.0,1644838141.125,P07,D11,0,0,0
73,-36.0,1.0,51.0,1644838141.15625,P07,D11,0,0,0
74,-42.0,-1.0,48.0,1644838141.1875,P07,D11,0,0,0
75,-40.0,-2.0,50.0,1644838141.21875,P07,D11,0,0,0
76,-37.0,-2.0,52.0,1644838141.25,P07,D11,0,0,0
77,-38.0,-2.0,51.0,1644838141.28125,P07,D11,0,0,0
78,-39.0,-2.0,49.0,1644838141.3125,P07,D11,0,0,0
79,-40.0,-1.0,49.0,1644838141.34375,P07,D11,0,0,0
80,-40.0,-2.0,50.0,1644838141.375,P07,D11,0,0,0
81,-39.0,-2.0,50.0,1644838141.40625,P07,D11,0,0,0
82,-38.0,-2.0,52.0,1644838141.4375,P07,D11,0,0,0
83,-39.0,-2.0,50.0,1644838141.46875,P07,D11,0,0,0
84,-40.0,-2.0,50.0,1644838141.5,P07,D11,0,0,0
85,-40.0,-2.0,49.0,1644838141.53125,P07,D11,0,0,0
86,-40.0,-2.0,50.0,1644838141.5625,P07,D11,0,0,0
87,-39.0,-3.0,50.0,1644838141.59375,P07,D11,0,0,0
88,-39.0,-2.0,50.0,1644838141.625,P07,D11,0,0,0
89,-39.0,-1.0,50.0,1644838141.65625,P07,D11,0,0,0
90,-39.0,-1.0,51.0,1644838141.6875,P07,D11,0,0,0
91,-38.0,-2.0,51.0,1644838141.71875,P07,D11,0,0,0
92,-38.0,-2.0,50.0,1644838141.75,P07,D11,0,0,0
93,-39.0,-2.0,49.0,1644838141.78125,P07,D11,0,0,0
94,-38.0,-2.0,51.0,1644838141.8125,P07,D11,0,0,0
95,-39.0,-2.0,51.0,1644838141.84375,P07,D11,0,0,0
96,-39.0,-2.0,50.0,1644838141.875,P07,D11,0,0,0
97,-39.0,-2.0,50.0,1644838141.90625,P07,D11,0,0,0
98,-39.0,-2.0,50.0,1644838141.9375,P07,D11,0,0,0
99,-39.0,-3.0,50.0,1644838141.96875,P07,D11,0,0,0
100,-39.0,-2.0,50.0,1644838142.0,P07,D11,0,0,0
101,-38.0,-1.0,51.0,1644838142.03125,P07,D11,0,0,0
102,-38.0,-1.0,51.0,1644838142.0625,P07,D11,0,0,0
103,-39.0,-3.0,50.0,1644838142.09375,P07,D11,0,0,0
104,-40.0,-3.0,50.0,1644838142.125,P07,D11,0,0,0
105,-39.0,-2.0,50.0,1644838142.15625,P07,D11,0,0,0
106,-39.0,-2.0,50.0,1644838142.1875,P07,D11,0,0,0
107,-39.0,-1.0,50.0,1644838142.21875,P07,D11,0,0,0
108,-39.0,-2.0,51.0,1644838142.25,P07,D11,0,0,0
109,-39.0,-2.0,50.0,1644838142.28125,P07,D11,0,0,0
110,-39.0,-2.0,50.0,1644838142.3125,P07,D11,0,0,0
111,-39.0,-1.0,50.0,1644838142.34375,P07,D11,0,0,0
112,-39.0,-2.0,50.0,1644838142.375,P07,D11,0,0,0
113,-38.0,-2.0,50.0,1644838142.40625,P07,D11,0,0,0
114,-38.0,-2.0,50.0,1644838142.4375,P07,D11,0,0,0
115,-39.0,-3.0,50.0,1644838142.46875,P07,D11,0,0,0
116,-39.0,-2.0,50.0,1644838142.5,P07,D11,0,0,0
117,-40.0,-1.0,49.0,1644838142.53125,P07,D11,0,0,0
118,-38.0,-1.0,51.0,1644838142.5625,P07,D11,0,0,0
119,-39.0,-1.0,51.0,1644838142.59375,P07,D11,0,0,0
120,-37.0,-1.0,52.0,1644838142.625,P07,D11,0,0,0
121,-37.0,-3.0,52.0,1644838142.65625,P07,D11,0,0,0
122,-37.0,-2.0,52.0,1644838142.6875,P07,D11,0,0,0
123,-38.0,-2.0,51.0,1644838142.71875,P07,D11,0,0,0
124,-38.0,0.0,50.0,1644838142.75,P07,D11,0,0,0
125,-38.0,0.0,51.0,1644838142.78125,P07,D11,0,0,0
126,-38.0,0.0,52.0,1644838142.8125,P07,D11,0,0,0
127,-37.0,0.0,52.0,1644838142.84375,P07,D11,0,0,0
128,-37.0,-1.0,52.0,1644838142.875,P07,D11,0,0,0
129,-37.0,-2.0,52.0,1644838142.90625,P07,D11,0,0,0
130,-38.0,-1.0,51.0,1644838142.9375,P07,D11,0,0,0
131,-37.0,-1.0,51.0,1644838142.96875,P07,D11,0,0,0
132,-38.0,-1.0,51.0,1644838143.0,P07,D11,0,0,0
133,-38.0,-2.0,51.0,1644838143.03125,P07,D11,0,0,0
134,-38.0,-1.0,51.0,1644838143.0625,P07,D11,0,0,0
135,-39.0,-2.0,50.0,1644838143.09375,P07,D11,0,0,0
136,-39.0,-2.0,50.0,1644838143.125,P07,D11,0,0,0
137,-38.0,-2.0,50.0,1644838143.15625,P07,D11,0,0,0
138,-38.0,-2.0,51.0,1644838143.1875,P07,D11,0,0,0
139,-38.0,-2.0,52.0,1644838143.21875,P07,D11,0,0,0
140,-37.0,-2.0,51.0,1644838143.25,P07,D11,0,0,0
141,-38.0,-2.0,51.0,1644838143.28125,P07,D11,0,0,0
142,-38.0,-2.0,51.0,1644838143.3125,P07,D11,0,0,0
143,-37.0,-2.0,51.0,1644838143.34375,P07,D11,0,0,0
144,-38.0,-2.0,51.0,1644838143.375,P07,D11,0,0,0
145,-37.0,-2.0,51.0,1644838143.40625,P07,D11,0,0,0
146,-37.0,-2.0,52.0,1644838143.4375,P07,D11,0,0,0
147,-37.0,-2.0,51.0,1644838143.46875,P07,D11,0,0,0
148,-38.0,-1.0,51.0,1644838143.5,P07,D11,0,0,0
149,-37.0,-1.0,52.0,1644838143.53125,P07,D11,0,0,0
150,-37.0,-1.0,52.0,1644838143.5625,P07,D11,0,0,0
151,-37.0,-2.0,51.0,1644838143.59375,P07,D11,0,0,0
152,-37.0,-2.0,51.0,1644838143.625,P07,D11,0,0,0
153,-37.0,-1.0,52.0,1644838143.65625,P07,D11,0,0,0
154,-37.0,0.0,52.0,1644838143.6875,P07,D11,0,0,0
155,-37.0,-1.0,51.0,1644838143.71875,P07,D11,0,0,0
156,-37.0,-1.0,51.0,1644838143.75,P07,D11,0,0,0
157,-37.0,-3.0,51.0,1644838143.78125,P07,D11,0,0,0
158,-37.0,-3.0,51.0,1644838143.8125,P07,D11,0,0,0
159,-37.0,-2.0,52.0,1644838143.84375,P07,D11,0,0,0
160,-37.0,-1.0,52.0,1644838143.875,P07,D11,0,0,0
161,-37.0,-2.0,52.0,1644838143.90625,P07,D11,0,0,0
162,-37.0,-2.0,51.0,1644838143.9375,P07,D11,0,0,0
163,-37.0,-2.0,51.0,1644838143.96875,P07,D11,0,0,0
164,-37.0,-2.0,51.0,1644838144.0,P07,D11,0,0,0
165,-37.0,-1.0,52.0,1644838144.03125,P07,D11,0,0,0
166,-37.0,-2.0,51.0,1644838144.0625,P07,D11,0,0,0
167,-37.0,-2.0,51.0,1644838144.09375,P07,D11,0,0,0
168,-37.0,-2.0,51.0,1644838144.125,P07,D11,0,0,0
169,-37.0,-2.0,51.0,1644838144.15625,P07,D11,0,0,0
170,-37.0,-2.0,51.0,1644838144.1875,P07,D11,0,0,0
171,-37.0,-2.0,52.0,1644838144.21875,P07,D11,0,0,0
172,-37.0,-2.0,51.0,1644838144.25,P07,D11,0,0,0
173,-37.0,-2.0,51.0,1644838144.28125,P07,D11,0,0,0
174,-37.0,-2.0,52.0,1644838144.3125,P07,D11,0,0,0
175,-37.0,-2.0,52.0,1644838144.34375,P07,D11,0,0,0
176,-37.0,-2.0,51.0,1644838144.375,P07,D11,0,0,0
177,-37.0,-2.0,51.0,1644838144.40625,P07,D11,0,0,0
178,-37.0,-2.0,52.0,1644838144.4375,P07,D11,0,0,0
179,-37.0,-2.0,52.0,1644838144.46875,P07,D11,0,0,0
180,-37.0,-2.0,52.0,1644838144.5,P07,D11,0,0,0
181,-37.0,-2.0,52.0,1644838144.53125,P07,D11,0,0,0
182,-37.0,-2.0,51.0,1644838144.5625,P07,D11,0,0,0
183,-37.0,-2.0,51.0,1644838144.59375,P07,D11,0,0,0
184,-37.0,-2.0,52.0,1644838144.625,P07,D11,0,0,0
185,-37.0,-1.0,52.0,1644838144.65625,P07,D11,0,0,0
186,-37.0,-1.0,52.0,1644838144.6875,P07,D11,0,0,0
187,-37.0,-2.0,52.0,1644838144.71875,P07,D11,0,0,0
188,-37.0,-2.0,51.0,1644838144.75,P07,D11,0,0,0
189,-37.0,-2.0,51.0,1644838144.78125,P07,D11,0,0,0
190,-37.0,-2.0,52.0,1644838144.8125,P07,D11,0,0,0
191,-37.0,-2.0,51.0,1644838144.84375,P07,D11,0,0,0
192,-37.0,-2.0,52.0,1644838144.875,P07,D11,0,0,0
193,-37.0,-2.0,51.0,1644838144.90625,P07,D11,0,0,0
194,-37.0,-2.0,51.0,1644838144.9375,P07,D11,0,0,0
195,-37.0,-2.0,51.0,1644838144.96875,P07,D11,0,0,0
196,-37.0,-2.0,52.0,1644838145.0,P07,D11,0,0,0
197,-37.0,-2.0,52.0,1644838145.03125,P07,D11,0,0,0
198,-37.0,-2.0,51.0,1644838145.0625,P07,D11,0,0,0
199,-37.0,-2.0,52.0,1644838145.09375,P07,D11,0,0,0
200,-37.0,-2.0,51.0,1644838145.125,P07,D11,0,0,0
201,-37.0,-2.0,52.0,1644838145.15625,P07,D11,0,0,0
202,-37.0,-2.0,52.0,1644838145.1875,P07,D11,0,0,0
203,-37.0,-2.0,52.0,1644838145.21875,P07,D11,0,0,0
204,-37.0,-2.0,51.0,1644838145.25,P07,D11,0,0,0
205,-37.0,-2.0,52.0,1644838145.28125,P07,D11,0,0,0
206,-37.0,-2.0,51.0,1644838145.3125,P07,D11,0,0,0
207,-37.0,-2.0,51.0,1644838145.34375,P07,D11,0,0,0
208,-37.0,-2.0,52.0,1644838145.375,P07,D11,0,0,0
209,-37.0,-2.0,51.0,1644838145.40625,P07,D11,0,0,0
210,-37.0,-2.0,51.0,1644838145.4375,P07,D11,0,0,0
211,-37.0,-2.0,51.0,1644838145.46875,P07,D11,0,0,0
212,-37.0,-2.0,51.0,1644838145.5,P07,D11,0,0,0
213,-37.0,-2.0,52.0,1644838145.53125,P07,D11,0,0,0
214,-37.0,-2.0,52.0,1644838145.5625,P07,D11,0,0,0
215,-37.0,-2.0,51.0,1644838145.59375,P07,D11,0,0,0
216,-37.0,-2.0,51.0,1644838145.625,P07,D11,0,0,0
217,-37.0,-1.0,52.0,1644838145.65625,P07,D11,0,0,0
218,-37.0,-2.0,51.0,1644838145.6875,P07,D11,0,0,0
219,-37.0,-2.0,51.0,1644838145.71875,P07,D11,0,0,0
220,-37.0,-1.0,51.0,1644838145.75,P07,D11,0,0,0
221,-37.0,-2.0,51.0,1644838145.78125,P07,D11,0,0,0
222,-37.0,-2.0,51.0,1644838145.8125,P07,D11,0,0,0
223,-37.0,-2.0,51.0,1644838145.84375,P07,D11,0,0,0
224,-37.0,-2.0,51.0,1644838145.875,P07,D11,0,0,0
225,-37.0,-2.0,51.0,1644838145.90625,P07,D11,0,0,0
226,-37.0,-2.0,52.0,1644838145.9375,P07,D11,0,0,0
227,-37.0,-2.0,51.0,1644838145.96875,P07,D11,0,0,0
228,-37.0,-2.0,51.0,1644838146.0,P07,D11,0,0,0
229,-37.0,-2.0,51.0,1644838146.03125,P07,D11,0,0,0
230,-37.0,-2.0,52.0,1644838146.0625,P07,D11,0,0,0
231,-37.0,-2.0,51.0,1644838146.09375,P07,D11,0,0,0
232,-37.0,-2.0,51.0,1644838146.125,P07,D11,0,0,0
233,-37.0,-2.0,52.0,1644838146.15625,P07,D11,0,0,0
234,-37.0,-2.0,51.0,1644838146.1875,P07,D11,0,0,0
235,-37.0,-2.0,52.0,1644838146.21875,P07,D11,0,0,0
236,-37.0,-2.0,51.0,1644838146.25,P07,D11,0,0,0
237,-37.0,-2.0,51.0,1644838146.28125,P07,D11,0,0,0
238,-37.0,-2.0,52.0,1644838146.3125,P07,D11,0,0,0
239,-37.0,-2.0,52.0,1644838146.34375,P07,D11,0,0,0
240,-37.0,-2.0,51.0,1644838146.375,P07,D11,0,0,0
241,-37.0,-1.0,52.0,1644838146.40625,P07,D11,0,0,0
242,-37.0,-2.0,51.0,1644838146.4375,P07,D11,0,0,0
243,-37.0,-2.0,51.0,1644838146.46875,P07,D11,0,0,0
244,-37.0,-2.0,52.0,1644838146.5,P07,D11,0,0,0
245,-37.0,-2.0,51.0,1644838146.53125,P07,D11,0,0,0
246,-37.0,-2.0,51.0,1644838146.5625,P07,D11,0,0,0
247,-37.0,-2.0,51.0,1644838146.59375,P07,D11,0,0,0
248,-37.0,-2.0,51.0,1644838146.625,P07,D11,0,0,0
249,-37.0,-2.0,51.0,1644838146.65625,P07,D11,0,0,0
250,-37.0,-2.0,51.0,1644838146.6875,P07,D11,0,0,0
251,-37.0,-2.0,51.0,1644838146.71875,P07,D11,0,0,0
252,-37.0,-2.0,52.0,1644838146.75,P07,D11,0,0,0
253,-37.0,-2.0,52.0,1644838146.78125,P07,D11,0,0,0
254,-37.0,-2.0,51.0,1644838146.8125,P07,D11,0,0,0
255,-37.0,-2.0,51.0,1644838146.84375,P07,D11,0,0,0
256,-37.0,-2.0,52.0,1644838146.875,P07,D11,0,0,0
257,-37.0,-2.0,52.0,1644838146.90625,P07,D11,0,0,0
258,-37.0,-2.0,52.0,1644838146.9375,P07,D11,0,0,0
259,-37.0,-2.0,51.0,1644838146.96875,P07,D11,0,0,0
260,-37.0,-2.0,52.0,1644838147.0,P07,D11,0,0,0
261,-37.0,-2.0,52.0,1644838147.03125,P07,D11,0,0,0
262,-37.0,-2.0,52.0,1644838147.0625,P07,D11,0,0,0
263,-37.0,-2.0,52.0,1644838147.09375,P07,D11,0,0,0
264,-37.0,-2.0,51.0,1644838147.125,P07,D11,0,0,0
265,-37.0,-2.0,52.0,1644838147.15625,P07,D11,0,0,0
266,-37.0,-2.0,51.0,1644838147.1875,P07,D11,0,0,0
267,-37.0,-2.0,52.0,1644838147.21875,P07,D11,0,0,0
268,-37.0,-2.0,52.0,1644838147.25,P07,D11,0,0,0
269,-37.0,-2.0,51.0,1644838147.28125,P07,D11,0,0,0
270,-37.0,-2.0,51.0,1644838147.3125,P07,D11,0,0,0
271,-37.0,-1.0,52.0,1644838147.34375,P07,D11,0,0,0
272,-37.0,-2.0,51.0,1644838147.375,P07,D11,0,0,0
273,-37.0,-2.0,52.0,1644838147.40625,P07,D11,0,0,0
274,-36.0,-2.0,52.0,1644838147.4375,P07,D11,0,0,0
275,-37.0,-2.0,52.0,1644838147.46875,P07,D11,0,0,0
276,-37.0,-1.0,51.0,1644838147.5,P07,D11,0,0,0
277,-37.0,-2.0,52.0,1644838147.53125,P07,D11,0,0,0
278,-37.0,-2.0,52.0,1644838147.5625,P07,D11,0,0,0
279,-37.0,-2.0,52.0,1644838147.59375,P07,D11,0,0,0
280,-37.0,-2.0,51.0,1644838147.625,P07,D11,0,0,0
281,-37.0,-2.0,52.0,1644838147.65625,P07,D11,0,0,0
282,-37.0,-2.0,52.0,1644838147.6875,P07,D11,0,0,0
283,-37.0,-2.0,52.0,1644838147.71875,P07,D11,0,0,0
284,-37.0,-2.0,52.0,1644838147.75,P07,D11,0,0,0
285,-37.0,-2.0,52.0,1644838147.78125,P07,D11,0,0,0
286,-37.0,-2.0,52.0,1644838147.8125,P07,D11,0,0,0
287,-37.0,-2.0,52.0,1644838147.84375,P07,D11,0,0,0
288,-37.0,-2.0,52.0,1644838147.875,P07,D11,0,0,0
289,-36.0,-2.0,52.0,1644838147.90625,P07,D11,0,0,0
290,-37.0,-2.0,52.0,1644838147.9375,P07,D11,0,0,0
291,-37.0,-2.0,52.0,1644838147.96875,P07,D11,0,0,0
292,-37.0,-2.0,52.0,1644838148.0,P07,D11,0,0,0
293,-37.0,-2.0,52.0,1644838148.03125,P07,D11,0,0,0
294,-37.0,-2.0,52.0,1644838148.0625,P07,D11,0,0,0
295,-36.0,-2.0,52.0,1644838148.09375,P07,D11,0,0,0
296,-37.0,-2.0,52.0,1644838148.125,P07,D11,0,0,0
297,-37.0,-1.0,52.0,1644838148.15625,P07,D11,0,0,0
298,-37.0,-1.0,52.0,1644838148.1875,P07,D11,0,0,0
299,-37.0,-2.0,52.0,1644838148.21875,P07,D11,0,0,0
300,-37.0,-2.0,51.0,1644838148.25,P07,D11,0,0,0
301,-37.0,-2.0,52.0,1644838148.28125,P07,D11,0,0,0
302,-37.0,-1.0,52.0,1644838148.3125,P07,D11,0,0,0
303,-37.0,-2.0,52.0,1644838148.34375,P07,D11,0,0,0
304,-37.0,-2.0,52.0,1644838148.375,P07,D11,0,0,0
305,-37.0,-2.0,52.0,1644838148.40625,P07,D11,0,0,0
306,-37.0,-1.0,52.0,1644838148.4375,P07,D11,0,0,0
307,-36.0,-2.0,52.0,1644838148.46875,P07,D11,0,0,0
308,-37.0,-2.0,51.0,1644838148.5,P07,D11,0,0,0
309,-37.0,-2.0,52.0,1644838148.53125,P07,D11,0,0,0
310,-37.0,-2.0,52.0,1644838148.5625,P07,D11,0,0,0
311,-37.0,-2.0,52.0,1644838148.59375,P07,D11,0,0,0
312,-37.0,-1.0,52.0,1644838148.625,P07,D11,0,0,0
313,-37.0,-2.0,52.0,1644838148.65625,P07,D11,0,0,0
314,-37.0,-2.0,52.0,1644838148.6875,P07,D11,0,0,0
315,-37.0,-2.0,52.0,1644838148.71875,P07,D11,0,0,0
316,-37.0,-2.0,52.0,1644838148.75,P07,D11,0,0,0
317,-37.0,-2.0,52.0,1644838148.78125,P07,D11,0,0,0
318,-37.0,-2.0,52.0,1644838148.8125,P07,D11,0,0,0
319,-37.0,-2.0,51.0,1644838148.84375,P07,D11,0,0,0
320,-37.0,-2.0,51.0,1644838148.875,P07,D11,0,0,0
321,-37.0,-2.0,52.0,1644838148.90625,P07,D11,0,0,0
322,-37.0,-2.0,52.0,1644838148.9375,P07,D11,0,0,0
323,-37.0,-2.0,52.0,1644838148.96875,P07,D11,0,0,0
324,-37.0,-2.0,52.0,1644838149.0,P07,D11,0,0,0
325,-37.0,-2.0,52.0,1644838149.03125,P07,D11,0,0,0
326,-37.0,-1.0,51.0,1644838149.0625,P07,D11,0,0,0
327,-37.0,-2.0,52.0,1644838149.09375,P07,D11,0,0,0
328,-37.0,-1.0,52.0,1644838149.125,P07,D11,0,0,0
329,-36.0,-1.0,52.0,1644838149.15625,P07,D11,0,0,0
330,-37.0,-2.0,52.0,1644838149.1875,P07,D11,0,0,0
331,-37.0,-2.0,52.0,1644838149.21875,P07,D11,0,0,0
332,-36.0,-1.0,52.0,1644838149.25,P07,D11,0,0,0
333,-37.0,-1.0,52.0,1644838149.28125,P07,D11,0,0,0
334,-37.0,-1.0,51.0,1644838149.3125,P07,D11,0,0,0
335,-36.0,-1.0,52.0,1644838149.34375,P07,D11,0,0,0
336,-36.0,-2.0,52.0,1644838149.375,P07,D11,0,0,0
337,-36.0,0.0,52.0,1644838149.40625,P07,D11,0,0,0
338,-37.0,-1.0,51.0,1644838149.4375,P07,D11,0,0,0
339,-36.0,-1.0,52.0,1644838149.46875,P07,D11,0,0,0
340,-36.0,-1.0,53.0,1644838149.5,P07,D11,0,0,0
341,-35.0,0.0,52.0,1644838149.53125,P07,D11,0,0,0
342,-35.0,0.0,52.0,1644838149.5625,P07,D11,0,0,0
343,-36.0,-1.0,52.0,1644838149.59375,P07,D11,0,0,0
344,-36.0,-1.0,53.0,1644838149.625,P07,D11,0,0,0
345,-35.0,0.0,53.0,1644838149.65625,P07,D11,0,0,0
346,-36.0,0.0,52.0,1644838149.6875,P07,D11,0,0,0
347,-35.0,0.0,53.0,1644838149.71875,P07,D11,0,0,0
348,-35.0,0.0,53.0,1644838149.75,P07,D11,0,0,0
349,-35.0,0.0,53.0,1644838149.78125,P07,D11,0,0,0
350,-35.0,0.0,53.0,1644838149.8125,P07,D11,0,0,0
351,-35.0,0.0,53.0,1644838149.84375,P07,D11,0,0,0
352,-35.0,0.0,53.0,1644838149.875,P07,D11,0,0,0
353,-35.0,0.0,53.0,1644838149.90625,P07,D11,0,0,0
354,-35.0,0.0,53.0,1644838149.9375,P07,D11,0,0,0
355,-35.0,0.0,53.0,1644838149.96875,P07,D11,0,0,0
356,-34.0,0.0,53.0,1644838150.0,P07,D11,0,0,0
357,-35.0,0.0,53.0,1644838150.03125,P07,D11,0,0,0
358,-35.0,0.0,53.0,1644838150.0625,P07,D11,0,0,0
359,-35.0,0.0,53.0,1644838150.09375,P07,D11,0,0,0
360,-35.0,0.0,53.0,1644838150.125,P07,D11,0,0,0
361,-35.0,-1.0,53.0,1644838150.15625,P07,D11,0,0,0
362,-36.0,-1.0,53.0,1644838150.1875,P07,D11,0,0,0
363,-35.0,0.0,53.0,1644838150.21875,P07,D11,0,0,0
364,-35.0,0.0,53.0,1644838150.25,P07,D11,0,0,0
365,-35.0,0.0,53.0,1644838150.28125,P07,D11,0,0,0
366,-35.0,-1.0,53.0,1644838150.3125,P07,D11,0,0,0
367,-35.0,-1.0,52.0,1644838150.34375,P07,D11,0,0,0
368,-36.0,-1.0,53.0,1644838150.375,P07,D11,0,0,0
369,-35.0,0.0,53.0,1644838150.40625,P07,D11,0,0,0
370,-35.0,-1.0,53.0,1644838150.4375,P07,D11,0,0,0
371,-35.0,-1.0,53.0,1644838150.46875,P07,D11,0,0,0
372,-36.0,0.0,53.0,1644838150.5,P07,D11,0,0,0
373,-35.0,-1.0,53.0,1644838150.53125,P07,D11,0,0,0
374,-35.0,-1.0,53.0,1644838150.5625,P07,D11,0,0,0
375,-35.0,-1.0,53.0,1644838150.59375,P07,D11,0,0,0
376,-35.0,0.0,52.0,1644838150.625,P07,D11,0,0,0
377,-35.0,0.0,53.0,1644838150.65625,P07,D11,0,0,0
378,-35.0,-1.0,53.0,1644838150.6875,P07,D11,0,0,0
379,-36.0,0.0,53.0,1644838150.71875,P07,D11,0,0,0
380,-35.0,-1.0,53.0,1644838150.75,P07,D11,0,0,0
381,-35.0,0.0,53.0,1644838150.78125,P07,D11,0,0,0
382,-35.0,-1.0,53.0,1644838150.8125,P07,D11,0,0,0
383,-35.0,-1.0,53.0,1644838150.84375,P07,D11,0,0,0
384,-35.0,-1.0,53.0,1644838150.875,P07,D11,0,0,0
385,-35.0,0.0,53.0,1644838150.90625,P07,D11,0,0,0
386,-35.0,0.0,53.0,1644838150.9375,P07,D11,0,0,0
387,-35.0,-1.0,52.0,1644838150.96875,P07,D11,0,0,0
388,-35.0,0.0,53.0,1644838151.0,P07,D11,0,0,0
389,-35.0,0.0,53.0,1644838151.03125,P07,D11,0,0,0
390,-35.0,0.0,53.0,1644838151.0625,P07,D11,0,0,0
391,-35.0,-1.0,53.0,1644838151.09375,P07,D11,0,0,0
392,-35.0,-1.0,53.0,1644838151.125,P07,D11,0,0,0
393,-35.0,0.0,53.0,1644838151.15625,P07,D11,0,0,0
394,-35.0,0.0,53.0,1644838151.1875,P07,D11,0,0,0
395,-35.0,0.0,53.0,1644838151.21875,P07,D11,0,0,0
396,-35.0,-1.0,53.0,1644838151.25,P07,D11,0,0,0
397,-35.0,-1.0,53.0,1644838151.28125,P07,D11,0,0,0
398,-35.0,-1.0,53.0,1644838151.3125,P07,D11,0,0,0
399,-35.0,0.0,53.0,1644838151.34375,P07,D11,0,0,0
400,-35.0,-1.0,53.0,1644838151.375,P07,D11,0,0,0
401,-35.0,-1.0,53.0,1644838151.40625,P07,D11,0,0,0
402,-35.0,-1.0,53.0,1644838151.4375,P07,D11,0,0,0
403,-35.0,0.0,53.0,1644838151.46875,P07,D11,0,0,0
404,-35.0,-1.0,53.0,1644838151.5,P07,D11,0,0,0
405,-35.0,0.0,53.0,1644838151.53125,P07,D11,0,0,0
406,-35.0,-1.0,53.0,1644838151.5625,P07,D11,0,0,0
407,-35.0,-1.0,53.0,1644838151.59375,P07,D11,0,0,0
408,-35.0,0.0,53.0,1644838151.625,P07,D11,0,0,0
409,-35.0,0.0,53.0,1644838151.65625,P07,D11,0,0,0
410,-35.0,0.0,53.0,1644838151.6875,P07,D11,0,0,0
411,-35.0,0.0,53.0,1644838151.71875,P07,D11,0,0,0
412,-35.0,0.0,53.0,1644838151.75,P07,D11,0,0,0
413,-35.0,-1.0,53.0,1644838151.78125,P07,D11,0,0,0
414,-35.0,-1.0,53.0,1644838151.8125,P07,D11,0,0,0
415,-35.0,-1.0,52.0,1644838151.84375,P07,D11,0,0,0
416,-35.0,-1.0,53.0,1644838151.875,P07,D11,0,0,0
417,-35.0,-1.0,53.0,1644838151.90625,P07,D11,0,0,0
418,-36.0,-1.0,52.0,1644838151.9375,P07,D11,0,0,0
419,-35.0,-1.0,53.0,1644838151.96875,P07,D11,0,0,0
420,-35.0,-1.0,53.0,1644838152.0,P07,D11,0,0,0
421,-35.0,-1.0,53.0,1644838152.03125,P07,D11,0,0,0
422,-35.0,-1.0,52.0,1644838152.0625,P07,D11,0,0,0
423,-35.0,-1.0,53.0,1644838152.09375,P07,D11,0,0,0
424,-35.0,0.0,53.0,1644838152.125,P07,D11,0,0,0
425,-35.0,0.0,53.0,1644838152.15625,P07,D11,0,0,0
426,-35.0,-1.0,53.0,1644838152.1875,P07,D11,0,0,0
427,-35.0,-1.0,53.0,1644838152.21875,P07,D11,0,0,0
428,-35.0,-1.0,53.0,1644838152.25,P07,D11,0,0,0
429,-35.0,0.0,53.0,1644838152.28125,P07,D11,0,0,0
430,-35.0,-1.0,53.0,1644838152.3125,P07,D11,0,0,0
431,-35.0,-1.0,53.0,1644838152.34375,P07,D11,0,0,0
432,-35.0,0.0,53.0,1644838152.375,P07,D11,0,0,0
433,-35.0,-1.0,53.0,1644838152.40625,P07,D11,0,0,0
434,-35.0,0.0,53.0,1644838152.4375,P07,D11,0,0,0
435,-35.0,-1.0,53.0,1644838152.46875,P07,D11,0,0,0
436,-35.0,-1.0,53.0,1644838152.5,P07,D11,0,0,0
437,-35.0,-1.0,53.0,1644838152.53125,P07,D11,0,0,0
438,-35.0,-1.0,53.0,1644838152.5625,P07,D11,0,0,0
439,-35.0,0.0,53.0,1644838152.59375,P07,D11,0,0,0
440,-35.0,-1.0,53.0,1644838152.625,P07,D11,0,0,0
441,-35.0,-1.0,53.0,1644838152.65625,P07,D11,0,0,0
442,-35.0,-1.0,53.0,1644838152.6875,P07,D11,0,0,0
443,-35.0,0.0,53.0,1644838152.71875,P07,D11,0,0,0
444,-35.0,-1.0,53.0,1644838152.75,P07,D11,0,0,0
445,-35.0,-1.0,53.0,1644838152.78125,P07,D11,0,0,0
446,-35.0,0.0,53.0,1644838152.8125,P07,D11,0,0,0
447,-35.0,-1.0,52.0,1644838152.84375,P07,D11,0,0,0
448,-35.0,0.0,53.0,1644838152.875,P07,D11,0,0,0
449,-34.0,-1.0,53.0,1644838152.90625,P07,D11,0,0,0
450,-35.0,-1.0,53.0,1644838152.9375,P07,D11,0,0,0
451,-36.0,-1.0,52.0,1644838152.96875,P07,D11,0,0,0
452,-35.0,0.0,53.0,1644838153.0,P07,D11,0,0,0
453,-35.0,-1.0,53.0,1644838153.03125,P07,D11,0,0,0
454,-35.0,-1.0,53.0,1644838153.0625,P07,D11,0,0,0
455,-36.0,-1.0,53.0,1644838153.09375,P07,D11,0,0,0
456,-35.0,-1.0,52.0,1644838153.125,P07,D11,0,0,0
457,-35.0,-1.0,53.0,1644838153.15625,P07,D11,0,0,0
458,-35.0,-1.0,53.0,1644838153.1875,P07,D11,0,0,0
459,-35.0,-1.0,53.0,1644838153.21875,P07,D11,0,0,0
460,-35.0,-1.0,53.0,1644838153.25,P07,D11,0,0,0
461,-35.0,-1.0,53.0,1644838153.28125,P07,D11,0,0,0
462,-35.0,-1.0,53.0,1644838153.3125,P07,D11,0,0,0
463,-36.0,-1.0,52.0,1644838153.34375,P07,D11,0,0,0
464,-35.0,-1.0,53.0,1644838153.375,P07,D11,0,0,0
465,-35.0,-1.0,53.0,1644838153.40625,P07,D11,0,0,0
466,-35.0,-1.0,53.0,1644838153.4375,P07,D11,0,0,0
467,-35.0,-1.0,53.0,1644838153.46875,P07,D11,0,0,0
468,-35.0,-1.0,52.0,1644838153.5,P07,D11,0,0,0
469,-35.0,-1.0,52.0,1644838153.53125,P07,D11,0,0,0
470,-35.0,-1.0,53.0,1644838153.5625,P07,D11,0,0,0
471,-35.0,-1.0,53.0,1644838153.59375,P07,D11,0,0,0
472,-36.0,-1.0,52.0,1644838153.625,P07,D11,0,0,0
473,-36.0,-1.0,52.0,1644838153.65625,P07,D11,0,0,0
474,-35.0,0.0,53.0,1644838153.6875,P07,D11,0,0,0
475,-35.0,-1.0,53.0,1644838153.71875,P07,D11,0,0,0
476,-36.0,-1.0,52.0,1644838153.75,P07,D11,0,0,0
477,-35.0,0.0,52.0,1644838153.78125,P07,D11,0,0,0
478,-35.0,-1.0,53.0,1644838153.8125,P07,D11,0,0,0
479,-35.0,-1.0,53.0,1644838153.84375,P07,D11,0,0,0
480,-35.0,-1.0,53.0,1644838153.875,P07,D11,0,0,0
481,-36.0,-1.0,52.0,1644838153.90625,P07,D11,0,0,0
482,-35.0,-1.0,53.0,1644838153.9375,P07,D11,0,0,0
483,-35.0,-1.0,53.0,1644838153.96875,P07,D11,0,0,0
484,-35.0,-1.0,53.0,1644838154.0,P07,D11,0,0,0
485,-35.0,-1.0,53.0,1644838154.03125,P07,D11,0,0,0
486,-35.0,-1.0,53.0,1644838154.0625,P07,D11,0,0,0
487,-35.0,-1.0,53.0,1644838154.09375,P07,D11,0,0,0
488,-35.0,-1.0,53.0,1644838154.125,P07,D11,0,0,0
489,-35.0,-1.0,53.0,1644838154.15625,P07,D11,0,0,0
490,-36.0,-1.0,53.0,1644838154.1875,P07,D11,0,0,0
491,-35.0,-1.0,53.0,1644838154.21875,P07,D11,0,0,0
492,-35.0,-1.0,53.0,1644838154.25,P07,D11,0,0,0
493,-35.0,0.0,53.0,1644838154.28125,P07,D11,0,0,0
494,-35.0,-1.0,53.0,1644838154.3125,P07,D11,0,0,0
495,-35.0,-1.0,53.0,1644838154.34375,P07,D11,0,0,0
496,-35.0,-1.0,52.0,1644838154.375,P07,D11,0,0,0
497,-36.0,-1.0,53.0,1644838154.40625,P07,D11,0,0,0
498,-36.0,-1.0,52.0,1644838154.4375,P07,D11,0,0,0
499,-35.0,-1.0,53.0,1644838154.46875,P07,D11,0,0,0
500,-35.0,-1.0,53.0,1644838154.5,P07,D11,0,0,0
501,-36.0,-1.0,53.0,1644838154.53125,P07,D11,0,0,0
502,-36.0,-1.0,52.0,1644838154.5625,P07,D11,0,0,0
503,-35.0,0.0,53.0,1644838154.59375,P07,D11,0,0,0
504,-36.0,-1.0,53.0,1644838154.625,P07,D11,0,0,0
505,-35.0,-1.0,53.0,1644838154.65625,P07,D11,0,0,0
506,-35.0,-1.0,53.0,1644838154.6875,P07,D11,0,0,0
507,-36.0,-1.0,52.0,1644838154.71875,P07,D11,0,0,0
508,-35.0,-1.0,53.0,1644838154.75,P07,D11,0,0,0
509,-35.0,-1.0,53.0,1644838154.78125,P07,D11,0,0,0
510,-35.0,-1.0,53.0,1644838154.8125,P07,D11,0,0,0
511,-35.0,0.0,53.0,1644838154.84375,P07,D11,0,0,0
512,-35.0,-1.0,53.0,1644838154.875,P07,D11,0,0,0
513,-35.0,-1.0,53.0,1644838154.90625,P07,D11,0,0,0
514,-35.0,-1.0,52.0,1644838154.9375,P07,D11,0,0,0
515,-35.0,-1.0,52.0,1644838154.96875,P07,D11,0,0,0
516,-35.0,-1.0,53.0,1644838155.0,P07,D11,0,0,0
517,-35.0,-1.0,53.0,1644838155.03125,P07,D11,0,0,0
518,-35.0,-1.0,53.0,1644838155.0625,P07,D11,0,0,0
519,-35.0,-1.0,53.0,1644838155.09375,P07,D11,0,0,0
520,-35.0,0.0,53.0,1644838155.125,P07,D11,0,0,0
521,-35.0,-1.0,53.0,1644838155.15625,P07,D11,0,0,0
522,-35.0,-1.0,53.0,1644838155.1875,P07,D11,0,0,0
523,-35.0,-1.0,53.0,1644838155.21875,P07,D11,0,0,0
524,-35.0,-1.0,53.0,1644838155.25,P07,D11,0,0,0
525,-36.0,-1.0,52.0,1644838155.28125,P07,D11,0,0,0
526,-35.0,-1.0,53.0,1644838155.3125,P07,D11,0,0,0
527,-35.0,-1.0,53.0,1644838155.34375,P07,D11,0,0,0
528,-35.0,-1.0,53.0,1644838155.375,P07,D11,0,0,0
529,-36.0,-1.0,52.0,1644838155.40625,P07,D11,0,0,0
530,-35.0,0.0,53.0,1644838155.4375,P07,D11,0,0,0
531,-35.0,-1.0,53.0,1644838155.46875,P07,D11,0,0,0
532,-35.0,-1.0,53.0,1644838155.5,P07,D11,0,0,0
533,-35.0,-1.0,53.0,1644838155.53125,P07,D11,0,0,0
534,-36.0,-1.0,52.0,1644838155.5625,P07,D11,0,0,0
535,-36.0,0.0,52.0,1644838155.59375,P07,D11,0,0,0
536,-35.0,-1.0,53.0,1644838155.625,P07,D11,0,0,0
537,-36.0,-1.0,53.0,1644838155.65625,P07,D11,0,0,0
538,-35.0,-1.0,53.0,1644838155.6875,P07,D11,0,0,0
539,-35.0,0.0,53.0,1644838155.71875,P07,D11,0,0,0
540,-35.0,-1.0,53.0,1644838155.75,P07,D11,0,0,0
541,-36.0,-1.0,53.0,1644838155.78125,P07,D11,0,0,0
542,-35.0,-1.0,52.0,1644838155.8125,P07,D11,0,0,0
543,-35.0,0.0,53.0,1644838155.84375,P07,D11,0,0,0
544,-35.0,-1.0,53.0,1644838155.875,P07,D11,0,0,0
545,-35.0,-1.0,53.0,1644838155.90625,P07,D11,0,0,0
546,-35.0,0.0,53.0,1644838155.9375,P07,D11,0,0,0
547,-35.0,-1.0,53.0,1644838155.96875,P07,D11,0,0,0
548,-35.0,-1.0,53.0,1644838156.0,P07,D11,0,0,0
549,-36.0,-1.0,53.0,1644838156.03125,P07,D11,0,0,0
550,-35.0,-1.0,53.0,1644838156.0625,P07,D11,0,0,0
551,-35.0,-1.0,53.0,1644838156.09375,P07,D11,0,0,0
552,-35.0,-1.0,53.0,1644838156.125,P07,D11,0,0,0
553,-36.0,-1.0,53.0,1644838156.15625,P07,D11,0,0,0
554,-35.0,-1.0,53.0,1644838156.1875,P07,D11,0,0,0
555,-35.0,-1.0,53.0,1644838156.21875,P07,D11,0,0,0
556,-36.0,-1.0,53.0,1644838156.25,P07,D11,0,0,0
557,-35.0,-1.0,53.0,1644838156.28125,P07,D11,0,0,0
558,-36.0,-1.0,52.0,1644838156.3125,P07,D11,0,0,0
559,-35.0,-1.0,53.0,1644838156.34375,P07,D11,0,0,0
560,-35.0,-1.0,53.0,1644838156.375,P07,D11,0,0,0
561,-35.0,-1.0,53.0,1644838156.40625,P07,D11,0,0,0
562,-36.0,-1.0,52.0,1644838156.4375,P07,D11,0,0,0
563,-35.0,0.0,52.0,1644838156.46875,P07,D11,0,0,0
564,-35.0,-1.0,53.0,1644838156.5,P07,D11,0,0,0
565,-35.0,-1.0,53.0,1644838156.53125,P07,D11,0,0,0
566,-35.0,-1.0,53.0,1644838156.5625,P07,D11,0,0,0
567,-36.0,-1.0,52.0,1644838156.59375,P07,D11,0,0,0
568,-35.0,0.0,53.0,1644838156.625,P07,D11,0,0,0
569,-35.0,-1.0,53.0,1644838156.65625,P07,D11,0,0,0
570,-35.0,-1.0,53.0,1644838156.6875,P07,D11,0,0,0
571,-35.0,-1.0,53.0,1644838156.71875,P07,D11,0,0,0
572,-35.0,0.0,53.0,1644838156.75,P07,D11,0,0,0
573,-35.0,-1.0,53.0,1644838156.78125,P07,D11,0,0,0
574,-35.0,-1.0,53.0,1644838156.8125,P07,D11,0,0,0
575,-36.0,-1.0,52.0,1644838156.84375,P07,D11,0,0,0
576,-36.0,-1.0,53.0,1644838156.875,P07,D11,0,0,0
577,-35.0,-1.0,53.0,1644838156.90625,P07,D11,0,0,0
578,-35.0,-1.0,53.0,1644838156.9375,P07,D11,0,0,0
579,-35.0,-1.0,53.0,1644838156.96875,P07,D11,0,0,0
580,-35.0,-1.0,53.0,1644838157.0,P07,D11,0,0,0
581,-35.0,0.0,53.0,1644838157.03125,P07,D11,0,0,0
582,-35.0,-1.0,53.0,1644838157.0625,P07,D11,0,0,0
583,-35.0,-1.0,53.0,1644838157.09375,P07,D11,0,0,0
584,-35.0,-1.0,53.0,1644838157.125,P07,D11,0,0,0
585,-36.0,-1.0,52.0,1644838157.15625,P07,D11,0,0,0
586,-35.0,-1.0,53.0,1644838157.1875,P07,D11,0,0,0
587,-35.0,-1.0,53.0,1644838157.21875,P07,D11,0,0,0
588,-36.0,-1.0,53.0,1644838157.25,P07,D11,0,0,0
589,-35.0,-1.0,53.0,1644838157.28125,P07,D11,0,0,0
590,-36.0,-1.0,52.0,1644838157.3125,P07,D11,0,0,0
591,-35.0,-1.0,53.0,1644838157.34375,P07,D11,0,0,0
592,-35.0,0.0,53.0,1644838157.375,P07,D11,0,0,0
593,-36.0,0.0,52.0,1644838157.40625,P07,D11,0,0,0
594,-34.0,0.0,53.0,1644838157.4375,P07,D11,0,0,0
595,-35.0,-1.0,53.0,1644838157.46875,P07,D11,0,0,0
596,-36.0,-1.0,52.0,1644838157.5,P07,D11,0,0,0
597,-35.0,0.0,53.0,1644838157.53125,P07,D11,0,0,0
598,-35.0,-1.0,53.0,1644838157.5625,P07,D11,0,0,0
599,-35.0,0.0,53.0,1644838157.59375,P07,D11,0,0,0
600,-35.0,0.0,54.0,1644838157.625,P07,D11,0,0,0
601,-33.0,1.0,53.0,1644838157.65625,P07,D11,0,0,0
602,-34.0,0.0,54.0,1644838157.6875,P07,D11,0,0,0
603,-32.0,0.0,54.0,1644838157.71875,P07,D11,0,0,0
604,-34.0,0.0,53.0,1644838157.75,P07,D11,0,0,0
605,-34.0,0.0,54.0,1644838157.78125,P07,D11,0,0,0
606,-32.0,0.0,54.0,1644838157.8125,P07,D11,0,0,0
607,-32.0,0.0,53.0,1644838157.84375,P07,D11,0,0,0
608,-34.0,-1.0,55.0,1644838157.875,P07,D11,0,0,0
609,-33.0,-1.0,55.0,1644838157.90625,P07,D11,0,0,0
610,-33.0,0.0,53.0,1644838157.9375,P07,D11,0,0,0
611,-35.0,0.0,52.0,1644838157.96875,P07,D11,0,0,0
612,-34.0,0.0,54.0,1644838158.0,P07,D11,0,0,0
613,-33.0,0.0,54.0,1644838158.03125,P07,D11,0,0,0
614,-34.0,-1.0,53.0,1644838158.0625,P07,D11,0,0,0
615,-34.0,-1.0,54.0,1644838158.09375,P07,D11,0,0,0
616,-34.0,0.0,53.0,1644838158.125,P07,D11,0,0,0
617,-34.0,0.0,53.0,1644838158.15625,P07,D11,0,0,0
618,-35.0,0.0,53.0,1644838158.1875,P07,D11,0,0,0
619,-35.0,-1.0,53.0,1644838158.21875,P07,D11,0,0,0
620,-34.0,-1.0,54.0,1644838158.25,P07,D11,0,0,0
621,-35.0,-1.0,53.0,1644838158.28125,P07,D11,0,0,0
622,-34.0,-1.0,53.0,1644838158.3125,P07,D11,0,0,0
623,-34.0,0.0,53.0,1644838158.34375,P07,D11,0,0,0
624,-34.0,0.0,53.0,1644838158.375,P07,D11,0,0,0
625,-34.0,0.0,53.0,1644838158.40625,P07,D11,0,0,0
626,-34.0,0.0,54.0,1644838158.4375,P07,D11,0,0,0
627,-34.0,0.0,53.0,1644838158.46875,P07,D11,0,0,0
628,-34.0,-1.0,53.0,1644838158.5,P07,D11,0,0,0
629,-34.0,-1.0,53.0,1644838158.53125,P07,D11,0,0,0
630,-34.0,0.0,53.0,1644838158.5625,P07,D11,0,0,0
631,-34.0,0.0,53.0,1644838158.59375,P07,D11,0,0,0
632,-34.0,-1.0,53.0,1644838158.625,P07,D11,0,0,0
633,-34.0,0.0,53.0,1644838158.65625,P07,D11,0,0,0
634,-35.0,-1.0,53.0,1644838158.6875,P07,D11,0,0,0
635,-34.0,0.0,54.0,1644838158.71875,P07,D11,0,0,0
636,-33.0,0.0,54.0,1644838158.75,P07,D11,0,0,0
637,-34.0,-1.0,53.0,1644838158.78125,P07,D11,0,0,0
638,-35.0,0.0,53.0,1644838158.8125,P07,D11,0,0,0
639,-33.0,0.0,54.0,1644838158.84375,P07,D11,0,0,0
640,-33.0,0.0,54.0,1644838158.875,P07,D11,0,0,0
641,-34.0,-1.0,53.0,1644838158.90625,P07,D11,0,0,0
642,-34.0,-1.0,53.0,1644838158.9375,P07,D11,0,0,0
643,-34.0,-1.0,54.0,1644838158.96875,P07,D11,0,0,0
644,-35.0,-1.0,53.0,1644838159.0,P07,D11,0,0,0
645,-33.0,0.0,54.0,1644838159.03125,P07,D11,0,0,0
646,-32.0,1.0,54.0,1644838159.0625,P07,D11,0,0,0
647,-34.0,0.0,54.0,1644838159.09375,P07,D11,0,0,0
648,-34.0,0.0,53.0,1644838159.125,P07,D11,0,0,0
649,-33.0,0.0,54.0,1644838159.15625,P07,D11,0,0,0
650,-34.0,0.0,53.0,1644838159.1875,P07,D11,0,0,0
651,-33.0,0.0,54.0,1644838159.21875,P07,D11,0,0,0
652,-33.0,0.0,54.0,1644838159.25,P07,D11,0,0,0
653,-34.0,0.0,54.0,1644838159.28125,P07,D11,0,0,0
654,-33.0,0.0,54.0,1644838159.3125,P07,D11,0,0,0
655,-33.0,0.0,54.0,1644838159.34375,P07,D11,0,0,0
656,-35.0,0.0,53.0,1644838159.375,P07,D11,0,0,0
657,-34.0,0.0,54.0,1644838159.40625,P07,D11,0,0,0
658,-33.0,0.0,54.0,1644838159.4375,P07,D11,0,0,0
659,-34.0,-1.0,53.0,1644838159.46875,P07,D11,0,0,0
660,-33.0,0.0,53.0,1644838159.5,P07,D11,0,0,0
661,-33.0,0.0,54.0,1644838159.53125,P07,D11,0,0,0
662,-34.0,1.0,54.0,1644838159.5625,P07,D11,0,0,0
663,-34.0,0.0,53.0,1644838159.59375,P07,D11,0,0,0
664,-34.0,0.0,53.0,1644838159.625,P07,D11,0,0,0
665,-34.0,-1.0,54.0,1644838159.65625,P07,D11,0,0,0
666,-33.0,0.0,54.0,1644838159.6875,P07,D11,0,0,0
667,-33.0,0.0,54.0,1644838159.71875,P07,D11,0,0,0
668,-34.0,0.0,54.0,1644838159.75,P07,D11,0,0,0
669,-34.0,0.0,54.0,1644838159.78125,P07,D11,0,0,0
670,-34.0,0.0,54.0,1644838159.8125,P07,D11,0,0,0
671,-34.0,0.0,53.0,1644838159.84375,P07,D11,0,0,0
672,-34.0,0.0,53.0,1644838159.875,P07,D11,0,0,0
673,-34.0,0.0,53.0,1644838159.90625,P07,D11,0,0,0
674,-34.0,0.0,53.0,1644838159.9375,P07,D11,0,0,0
675,-34.0,0.0,53.0,1644838159.96875,P07,D11,0,0,0
676,-34.0,0.0,53.0,1644838160.0,P07,D11,0,0,0
677,-34.0,0.0,53.0,1644838160.03125,P07,D11,0,0,0
678,-34.0,0.0,53.0,1644838160.0625,P07,D11,0,0,0
679,-34.0,0.0,53.0,1644838160.09375,P07,D11,0,0,0
680,-34.0,0.0,53.0,1644838160.125,P07,D11,0,0,0
681,-34.0,0.0,53.0,1644838160.15625,P07,D11,0,0,0
682,-34.0,0.0,54.0,1644838160.1875,P07,D11,0,0,0
683,-34.0,0.0,53.0,1644838160.21875,P07,D11,0,0,0
684,-34.0,0.0,53.0,1644838160.25,P07,D11,0,0,0
685,-34.0,0.0,53.0,1644838160.28125,P07,D11,0,0,0
686,-34.0,-1.0,53.0,1644838160.3125,P07,D11,0,0,0
687,-34.0,0.0,53.0,1644838160.34375,P07,D11,0,0,0
688,-34.0,0.0,53.0,1644838160.375,P07,D11,0,0,0
689,-34.0,0.0,53.0,1644838160.40625,P07,D11,0,0,0
690,-34.0,0.0,53.0,1644838160.4375,P07,D11,0,0,0
691,-34.0,0.0,53.0,1644838160.46875,P07,D11,0,0,0
692,-34.0,0.0,53.0,1644838160.5,P07,D11,0,0,0
693,-34.0,0.0,54.0,1644838160.53125,P07,D11,0,0,0
694,-34.0,0.0,53.0,1644838160.5625,P07,D11,0,0,0
695,-34.0,0.0,53.0,1644838160.59375,P07,D11,0,0,0
696,-34.0,0.0,53.0,1644838160.625,P07,D11,0,0,0
697,-34.0,0.0,53.0,1644838160.65625,P07,D11,0,0,0
698,-34.0,0.0,53.0,1644838160.6875,P07,D11,0,0,0
699,-34.0,0.0,53.0,1644838160.71875,P07,D11,0,0,0
700,-34.0,0.0,53.0,1644838160.75,P07,D11,0,0,0
701,-34.0,0.0,53.0,1644838160.78125,P07,D11,0,0,0
702,-34.0,0.0,53.0,1644838160.8125,P07,D11,0,0,0
703,-34.0,0.0,53.0,1644838160.84375,P07,D11,0,0,0
704,-34.0,0.0,53.0,1644838160.875,P07,D11,0,0,0
705,-34.0,0.0,53.0,1644838160.90625,P07,D11,0,0,0
706,-34.0,0.0,53.0,1644838160.9375,P07,D11,0,0,0
707,-34.0,0.0,53.0,1644838160.96875,P07,D11,0,0,0
708,-34.0,0.0,53.0,1644838161.0,P07,D11,0,0,0
709,-34.0,0.0,53.0,1644838161.03125,P07,D11,0,0,0
710,-34.0,0.0,53.0,1644838161.0625,P07,D11,0,0,0
711,-34.0,0.0,53.0,1644838161.09375,P07,D11,0,0,0
712,-34.0,0.0,53.0,1644838161.125,P07,D11,0,0,0
713,-34.0,0.0,53.0,1644838161.15625,P07,D11,0,0,0
714,-34.0,0.0,53.0,1644838161.1875,P07,D11,0,0,0
715,-34.0,0.0,53.0,1644838161.21875,P07,D11,0,0,0
716,-34.0,0.0,53.0,1644838161.25,P07,D11,0,0,0
717,-34.0,0.0,53.0,1644838161.28125,P07,D11,0,0,0
718,-34.0,0.0,53.0,1644838161.3125,P07,D11,0,0,0
719,-34.0,0.0,53.0,1644838161.34375,P07,D11,0,0,0
720,-34.0,0.0,53.0,1644838161.375,P07,D11,0,0,0
721,-34.0,0.0,53.0,1644838161.40625,P07,D11,0,0,0
722,-34.0,-1.0,53.0,1644838161.4375,P07,D11,0,0,0
723,-34.0,0.0,53.0,1644838161.46875,P07,D11,0,0,0
724,-34.0,0.0,54.0,1644838161.5,P07,D11,0,0,0
725,-34.0,0.0,53.0,1644838161.53125,P07,D11,0,0,0
726,-34.0,0.0,53.0,1644838161.5625,P07,D11,0,0,0
727,-34.0,0.0,53.0,1644838161.59375,P07,D11,0,0,0
728,-34.0,0.0,53.0,1644838161.625,P07,D11,0,0,0
729,-34.0,0.0,53.0,1644838161.65625,P07,D11,0,0,0
730,-34.0,0.0,53.0,1644838161.6875,P07,D11,0,0,0
731,-34.0,0.0,53.0,1644838161.71875,P07,D11,0,0,0
732,-34.0,0.0,53.0,1644838161.75,P07,D11,0,0,0
733,-34.0,0.0,53.0,1644838161.78125,P07,D11,0,0,0
734,-34.0,0.0,53.0,1644838161.8125,P07,D11,0,0,0
735,-34.0,0.0,53.0,1644838161.84375,P07,D11,0,0,0
736,-34.0,0.0,53.0,1644838161.875,P07,D11,0,0,0
737,-34.0,0.0,53.0,1644838161.90625,P07,D11,0,0,0
738,-34.0,0.0,53.0,1644838161.9375,P07,D11,0,0,0
739,-34.0,0.0,53.0,1644838161.96875,P07,D11,0,0,0
740,-34.0,0.0,54.0,1644838162.0,P07,D11,0,0,0
741,-34.0,0.0,53.0,1644838162.03125,P07,D11,0,0,0
742,-34.0,-1.0,53.0,1644838162.0625,P07,D11,0,0,0
743,-34.0,0.0,53.0,1644838162.09375,P07,D11,0,0,0
744,-34.0,0.0,53.0,1644838162.125,P07,D11,0,0,0
745,-34.0,0.0,53.0,1644838162.15625,P07,D11,0,0,0
746,-34.0,0.0,53.0,1644838162.1875,P07,D11,0,0,0
747,-35.0,0.0,53.0,1644838162.21875,P07,D11,0,0,0
748,-34.0,0.0,53.0,1644838162.25,P07,D11,0,0,0
749,-34.0,0.0,53.0,1644838162.28125,P07,D11,0,0,0
750,-34.0,0.0,53.0,1644838162.3125,P07,D11,0,0,0
751,-34.0,0.0,53.0,1644838162.34375,P07,D11,0,0,0
752,-34.0,0.0,53.0,1644838162.375,P07,D11,0,0,0
753,-34.0,0.0,53.0,1644838162.40625,P07,D11,0,0,0
754,-34.0,0.0,53.0,1644838162.4375,P07,D11,0,0,0
755,-34.0,0.0,53.0,1644838162.46875,P07,D11,0,0,0
756,-34.0,0.0,53.0,1644838162.5,P07,D11,0,0,0
757,-34.0,0.0,53.0,1644838162.53125,P07,D11,0,0,0
758,-34.0,0.0,53.0,1644838162.5625,P07,D11,0,0,0
759,-35.0,0.0,53.0,1644838162.59375,P07,D11,0,0,0
760,-34.0,0.0,53.0,1644838162.625,P07,D11,0,0,0
761,-34.0,0.0,53.0,1644838162.65625,P07,D11,0,0,0
762,-34.0,0.0,53.0,1644838162.6875,P07,D11,0,0,0
763,-34.0,0.0,53.0,1644838162.71875,P07,D11,0,0,0
764,-34.0,0.0,53.0,1644838162.75,P07,D11,0,0,0
765,-34.0,0.0,53.0,1644838162.78125,P07,D11,0,0,0
766,-34.0,0.0,53.0,1644838162.8125,P07,D11,0,0,0
767,-34.0,0.0,53.0,1644838162.84375,P07,D11,0,0,0
768,-34.0,0.0,53.0,1644838162.875,P07,D11,0,0,0
769,-34.0,0.0,53.0,1644838162.90625,P07,D11,0,0,0
770,-34.0,0.0,54.0,1644838162.9375,P07,D11,0,0,0
771,-34.0,0.0,53.0,1644838162.96875,P07,D11,0,0,0
772,-34.0,0.0,53.0,1644838163.0,P07,D11,0,0,0
773,-34.0,0.0,53.0,1644838163.03125,P07,D11,0,0,0
774,-34.0,0.0,53.0,1644838163.0625,P07,D11,0,0,0
775,-34.0,-1.0,53.0,1644838163.09375,P07,D11,0,0,0
776,-34.0,0.0,54.0,1644838163.125,P07,D11,0,0,0
777,-34.0,0.0,53.0,1644838163.15625,P07,D11,0,0,0
778,-35.0,0.0,53.0,1644838163.1875,P07,D11,0,0,0
779,-34.0,0.0,53.0,1644838163.21875,P07,D11,0,0,0
780,-34.0,0.0,53.0,1644838163.25,P07,D11,0,0,0
781,-34.0,0.0,53.0,1644838163.28125,P07,D11,0,0,0
782,-34.0,0.0,53.0,1644838163.3125,P07,D11,0,0,0
783,-34.0,0.0,53.0,1644838163.34375,P07,D11,0,0,0
784,-34.0,0.0,53.0,1644838163.375,P07,D11,0,0,0
785,-34.0,0.0,53.0,1644838163.40625,P07,D11,0,0,0
786,-34.0,0.0,53.0,1644838163.4375,P07,D11,0,0,0
787,-34.0,-1.0,53.0,1644838163.46875,P07,D11,0,0,0
788,-34.0,0.0,53.0,1644838163.5,P07,D11,0,0,0
789,-34.0,0.0,53.0,1644838163.53125,P07,D11,0,0,0
790,-34.0,0.0,53.0,1644838163.5625,P07,D11,0,0,0
791,-34.0,0.0,53.0,1644838163.59375,P07,D11,0,0,0
792,-34.0,0.0,53.0,1644838163.625,P07,D11,0,0,0
793,-34.0,0.0,53.0,1644838163.65625,P07,D11,0,0,0
794,-34.0,0.0,53.0,1644838163.6875,P07,D11,0,0,0
795,-34.0,0.0,53.0,1644838163.71875,P07,D11,0,0,0
796,-34.0,0.0,53.0,1644838163.75,P07,D11,0,0,0
797,-34.0,0.0,53.0,1644838163.78125,P07,D11,0,0,0
798,-34.0,0.0,54.0,1644838163.8125,P07,D11,0,0,0
799,-34.0,-1.0,53.0,1644838163.84375,P07,D11,0,0,0
800,-34.0,0.0,53.0,1644838163.875,P07,D11,0,0,0
801,-34.0,0.0,53.0,1644838163.90625,P07,D11,0,0,0
802,-34.0,0.0,53.0,1644838163.9375,P07,D11,0,0,0
803,-34.0,0.0,54.0,1644838163.96875,P07,D11,0,0,0
804,-34.0,0.0,53.0,1644838164.0,P07,D11,0,0,0
805,-34.0,0.0,54.0,1644838164.03125,P07,D11,0,0,0
