,acc_x,acc_y,acc_z,timestamp,participant,document,val,arou,eng
0,-43.0,-4.0,47.0,1644586858.03125,P03,D11,1,1,0
1,-44.0,-4.0,46.0,1644586858.0625,P03,D11,1,1,0
2,-43.0,-4.0,47.0,1644586858.09375,P03,D11,1,1,0
3,-43.0,-4.0,47.0,1644586858.125,P03,D11,1,1,0
4,-43.0,-4.0,46.0,1644586858.15625,P03,D11,1,1,0
5,-43.0,-4.0,46.0,1644586858.1875,P03,D11,1,1,0
6,-43.0,-4.0,47.0,1644586858.21875,P03,D11,1,1,0
7,-43.0,-4.0,46.0,1644586858.25,P03,D11,1,1,0
8,-43.0,-4.0,47.0,1644586858.28125,P03,D11,1,1,0
9,-43.0,-4.0,46.0,1644586858.3125,P03,D11,1,1,0
10,-43.0,-4.0,47.0,1644586858.34375,P03,D11,1,1,0
11,-43.0,-4.0,47.0,1644586858.375,P03,D11,1,1,0
12,-43.0,-4.0,47.0,1644586858.40625,P03,D11,1,1,0
13,-43.0,-4.0,47.0,1644586858.4375,P03,D11,1,1,0
14,-43.0,-4.0,47.0,1644586858.46875,P03,D11,1,1,0
15,-43.0,-4.0,47.0,1644586858.5,P03,D11,1,1,0
16,-43.0,-4.0,47.0,1644586858.53125,P03,D11,1,1,0
17,-43.0,-4.0,46.0,1644586858.5625,P03,D11,1,1,0
18,-43.0,-4.0,47.0,1644586858.59375,P03,D11,1,1,0
19,-43.0,-4.0,47.0,1644586858.625,P03,D11,1,1,0
20,-43.0,-4.0,46.0,1644586858.65625,P03,D11,1,1,0
21,-43.0,-4.0,47.0,1644586858.6875,P03,D11,1,1,0
22,-43.0,-4.0,47.0,1644586858.71875,P03,D11,1,1,0
23,-43.0,-4.0,47.0,1644586858.75,P03,D11,1,1,0
24,-44.0,-4.0,46.0,1644586858.78125,P03,D11,1,1,0
25,-43.0,-4.0,47.0,1644586858.8125,P03,D11,1,1,0
26,-43.0,-4.0,47.0,1644586858.84375,P03,D11,1,1,0
27,-44.0,-4.0,46.0,1644586858.875,P03,D11,1,1,0
28,-43.0,-4.0,47.0,1644586858.90625,P03,D11,1,1,0
29,-44.0,-4.0,46.0,1644586858.9375,P03,D11,1,1,0
30,-43.0,-4.0,46.0,1644586858.96875,P03,D11,1,1,0
31,-43.0,-4.0,47.0,1644586859.0,P03,D11,1,1,0
32,-44.0,-4.0,46.0,1644586859.03125,P03,D11,1,1,0
33,-43.0,-4.0,47.0,1644586859.0625,P03,D11,1,1,0
34,-43.0,-4.0,47.0,1644586859.09375,P03,D11,1,1,0
35,-44.0,-4.0,46.0,1644586859.125,P03,D11,1,1,0
36,-44.0,-4.0,47.0,1644586859.15625,P03,D11,1,1,0
37,-43.0,-4.0,47.0,1644586859.1875,P03,D11,1,1,0
38,-43.0,-4.0,46.0,1644586859.21875,P03,D11,1,1,0
39,-44.0,-4.0,47.0,1644586859.25,P03,D11,1,1,0
40,-43.0,-4.0,47.0,1644586859.28125,P03,D11,1,1,0
41,-44.0,-4.0,46.0,1644586859.3125,P03,D11,1,1,0
42,-43.0,-4.0,47.0,1644586859.34375,P03,D11,1,1,0
43,-43.0,-4.0,47.0,1644586859.375,P03,D11,1,1,0
44,-44.0,-4.0,47.0,1644586859.40625,P03,D11,1,1,0
45,-43.0,-4.0,46.0,1644586859.4375,P03,D11,1,1,0
46,-43.0,-4.0,47.0,1644586859.46875,P03,D11,1,1,0
47,-44.0,-4.0,47.0,1644586859.5,P03,D11,1,1,0
48,-43.0,-4.0,47.0,1644586859.53125,P03,D11,1,1,0
49,-43.0,-4.0,47.0,1644586859.5625,P03,D11,1,1,0
50,-43.0,-4.0,46.0,1644586859.59375,P03,D11,1,1,0
51,-44.0,-4.0,47.0,1644586859.625,P03,D11,1,1,0
52,-43.0,-4.0,47.0,1644586859.65625,P03,D11,1,1,0
53,-43.0,-4.0,46.0,1644586859.6875,P03,D11,1,1,0
54,-44.0,-4.0,46.0,1644586859.71875,P03,D11,1,1,0
55,-44.0,-4.0,46.0,1644586859.75,P03,D11,1,1,0
56,-43.0,-4.0,47.0,1644586859.78125,P03,D11,1,1,0
57,-43.0,-4.0,46.0,1644586859.8125,P03,D11,1,1,0
58,-44.0,-4.0,46.0,1644586859.84375,P03,D11,1,1,0
59,-44.0,-4.0,47.0,1644586859.875,P03,D11,1,1,0
60,-43.0,-4.0,47.0,1644586859.90625,P03,D11,1,1,0
61,-44.0,-4.0,46.0,1644586859.9375,P03,D11,1,1,0
62,-43.0,-4.0,46.0,1644586859.96875,P03,D11,1,1,0
63,-43.0,-4.0,46.0,1644586860.0,P03,D11,1,1,0
64,-44.0,-4.0,46.0,1644586860.03125,P03,D11,1,1,0
65,-44.0,-4.0,46.0,1644586860.0625,P03,D11,1,1,0
66,-43.0,-4.0,46.0,1644586860.09375,P03,D11,1,1,0
67,-44.0,-4.0,47.0,1644586860.125,P03,D11,1,1,0
68,-44.0,-4.0,46.0,1644586860.15625,P03,D11,1,1,0
69,-43.0,-4.0,47.0,1644586860.1875,P03,D11,1,1,0
70,-44.0,-4.0,47.0,1644586860.21875,P03,D11,1,1,0
71,-44.0,-4.0,46.0,1644586860.25,P03,D11,1,1,0
72,-43.0,-4.0,47.0,1644586860.28125,P03,D11,1,1,0
73,-44.0,-4.0,46.0,1644586860.3125,P03,D11,1,1,0
74,-44.0,-4.0,46.0,1644586860.34375,P03,D11,1,1,0
75,-43.0,-4.0,47.0,1644586860.375,P03,D11,1,1,0
76,-43.0,-4.0,46.0,1644586860.40625,P03,D11,1,1,0
77,-43.0,-4.0,47.0,1644586860.4375,P03,D11,1,1,0
78,-44.0,-4.0,47.0,1644586860.46875,P03,D11,1,1,0
79,-44.0,-4.0,46.0,1644586860.5,P03,D11,1,1,0
80,-44.0,-4.0,46.0,1644586860.53125,P03,D11,1,1,0
81,-44.0,-4.0,47.0,1644586860.5625,P03,D11,1,1,0
82,-43.0,-4.0,47.0,1644586860.59375,P03,D11,1,1,0
83,-44.0,-4.0,46.0,1644586860.625,P03,D11,1,1,0
84,-44.0,-4.0,47.0,1644586860.65625,P03,D11,1,1,0
85,-44.0,-4.0,46.0,1644586860.6875,P03,D11,1,1,0
86,-44.0,-4.0,47.0,1644586860.71875,P03,D11,1,1,0
87,-44.0,-4.0,46.0,1644586860.75,P03,D11,1,1,0
88,-44.0,-4.0,46.0,1644586860.78125,P03,D11,1,1,0
89,-44.0,-4.0,46.0,1644586860.8125,P03,D11,1,1,0
90,-43.0,-4.0,47.0,1644586860.84375,P03,D11,1,1,0
91,-43.0,-4.0,46.0,1644586860.875,P03,D11,1,1,0
92,-44.0,-4.0,46.0,1644586860.90625,P03,D11,1,1,0
93,-44.0,-4.0,47.0,1644586860.9375,P03,D11,1,1,0
94,-43.0,-4.0,46.0,1644586860.96875,P03,D11,1,1,0
95,-44.0,-4.0,46.0,1644586861.0,P03,D11,1,1,0
96,-44.0,-4.0,47.0,1644586861.03125,P03,D11,1,1,0
97,-44.0,-4.0,46.0,1644586861.0625,P03,D11,1,1,0
98,-44.0,-4.0,46.0,1644586861.09375,P03,D11,1,1,0
99,-43.0,-4.0,47.0,1644586861.125,P03,D11,1,1,0
100,-43.0,-4.0,46.0,1644586861.15625,P03,D11,1,1,0
101,-44.0,-4.0,47.0,1644586861.1875,P03,D11,1,1,0
102,-44.0,-3.0,47.0,1644586861.21875,P03,D11,1,1,0
103,-44.0,-4.0,46.0,1644586861.25,P03,D11,1,1,0
104,-44.0,-4.0,46.0,1644586861.28125,P03,D11,1,1,0
105,-43.0,-4.0,46.0,1644586861.3125,P03,D11,1,1,0
106,-43.0,-4.0,47.0,1644586861.34375,P03,D11,1,1,0
107,-44.0,-4.0,46.0,1644586861.375,P03,D11,1,1,0
108,-43.0,-4.0,47.0,1644586861.40625,P03,D11,1,1,0
109,-44.0,-4.0,46.0,1644586861.4375,P03,D11,1,1,0
110,-44.0,-4.0,46.0,1644586861.46875,P03,D11,1,1,0
111,-44.0,-4.0,46.0,1644586861.5,P03,D11,1,1,0
112,-44.0,-4.0,46.0,1644586861.53125,P03,D11,1,1,0
113,-44.0,-4.0,46.0,1644586861.5625,P03,D11,1,1,0
114,-44.0,-4.0,46.0,1644586861.59375,P03,D11,1,1,0
115,-44.0,-3.0,46.0,1644586861.625,P03,D11,1,1,0
116,-44.0,-4.0,46.0,1644586861.65625,P03,D11,1,1,0
117,-44.0,-4.0,46.0,1644586861.6875,P03,D11,1,1,0
118,-44.0,-4.0,46.0,1644586861.71875,P03,D11,1,1,0
119,-44.0,-4.0,46.0,1644586861.75,P03,D11,1,1,0
120,-44.0,-4.0,46.0,1644586861.78125,P03,D11,1,1,0
121,-44.0,-4.0,46.0,1644586861.8125,P03,D11,1,1,0
122,-44.0,-4.0,46.0,1644586861.84375,P03,D11,1,1,0
123,-43.0,-4.0,46.0,1644586861.875,P03,D11,1,1,0
124,-44.0,-4.0,47.0,1644586861.90625,P03,D11,1,1,0
125,-44.0,-4.0,46.0,1644586861.9375,P03,D11,1,1,0
126,-45.0,-4.0,46.0,1644586861.96875,P03,D11,1,1,0
127,-44.0,-3.0,47.0,1644586862.0,P03,D11,1,1,0
128,-44.0,-4.0,46.0,1644586862.03125,P03,D11,1,1,0
129,-45.0,-4.0,46.0,1644586862.0625,P03,D11,1,1,0
130,-44.0,-4.0,46.0,1644586862.09375,P03,D11,1,1,0
131,-44.0,-3.0,46.0,1644586862.125,P03,D11,1,1,0
132,-45.0,-5.0,45.0,1644586862.15625,P03,D11,1,1,0
133,-44.0,-4.0,46.0,1644586862.1875,P03,D11,1,1,0
134,-43.0,-3.0,47.0,1644586862.21875,P03,D11,1,1,0
135,-44.0,-4.0,46.0,1644586862.25,P03,D11,1,1,0
136,-44.0,-4.0,46.0,1644586862.28125,P03,D11,1,1,0
137,-43.0,-3.0,47.0,1644586862.3125,P03,D11,1,1,0
138,-45.0,-3.0,45.0,1644586862.34375,P03,D11,1,1,0
139,-44.0,-4.0,45.0,1644586862.375,P03,D11,1,1,0
140,-43.0,-4.0,47.0,1644586862.40625,P03,D11,1,1,0
141,-43.0,-4.0,48.0,1644586862.4375,P03,D11,1,1,0
142,-45.0,-4.0,45.0,1644586862.46875,P03,D11,1,1,0
143,-45.0,-4.0,45.0,1644586862.5,P03,D11,1,1,0
144,-44.0,-4.0,45.0,1644586862.53125,P03,D11,1,1,0
145,-44.0,-5.0,46.0,1644586862.5625,P03,D11,1,1,0
146,-45.0,-4.0,45.0,1644586862.59375,P03,D11,1,1,0
147,-44.0,-5.0,45.0,1644586862.625,P03,D11,1,1,0
148,-45.0,-4.0,45.0,1644586862.65625,P03,D11,1,1,0
149,-44.0,-5.0,46.0,1644586862.6875,P03,D11,1,1,0
150,-45.0,-5.0,45.0,1644586862.71875,P03,D11,1,1,0
151,-45.0,-5.0,45.0,1644586862.75,P03,D11,1,1,0
152,-45.0,-5.0,44.0,1644586862.78125,P03,D11,1,1,0
153,-45.0,-5.0,43.0,1644586862.8125,P03,D11,1,1,0
154,-47.0,-5.0,42.0,1644586862.84375,P03,D11,1,1,0
155,-48.0,-4.0,42.0,1644586862.875,P03,D11,1,1,0
156,-47.0,-5.0,43.0,1644586862.90625,P03,D11,1,1,0
157,-46.0,-5.0,44.0,1644586862.9375,P03,D11,1,1,0
158,-48.0,-4.0,43.0,1644586862.96875,P03,D11,1,1,0
159,-46.0,-4.0,44.0,1644586863.0,P03,D11,1,1,0
160,-47.0,-4.0,43.0,1644586863.03125,P03,D11,1,1,0
161,-49.0,-5.0,42.0,1644586863.0625,P03,D11,1,1,0
162,-49.0,-5.0,41.0,1644586863.09375,P03,D11,1,1,0
163,-49.0,-5.0,41.0,1644586863.125,P03,D11,1,1,0
164,-49.0,-4.0,41.0,1644586863.15625,P03,D11,1,1,0
165,-48.0,-4.0,42.0,1644586863.1875,P03,D11,1,1,0
166,-48.0,-5.0,42.0,1644586863.21875,P03,D11,1,1,0
167,-48.0,-4.0,42.0,1644586863.25,P03,D11,1,1,0
168,-49.0,-4.0,41.0,1644586863.28125,P03,D11,1,1,0
169,-49.0,-4.0,42.0,1644586863.3125,P03,D11,1,1,0
170,-48.0,-4.0,42.0,1644586863.34375,P03,D11,1,1,0
171,-48.0,-4.0,42.0,1644586863.375,P03,D11,1,1,0
172,-48.0,-4.0,42.0,1644586863.40625,P03,D11,1,1,0
173,-48.0,-5.0,42.0,1644586863.4375,P03,D11,1,1,0
174,-49.0,-4.0,42.0,1644586863.46875,P03,D11,1,1,0
175,-48.0,-4.0,42.0,1644586863.5,P03,D11,1,1,0
176,-48.0,-5.0,42.0,1644586863.53125,P03,D11,1,1,0
177,-47.0,-4.0,43.0,1644586863.5625,P03,D11,1,1,0
178,-48.0,-5.0,42.0,1644586863.59375,P03,D11,1,1,0
179,-48.0,-4.0,42.0,1644586863.625,P03,D11,1,1,0
180,-48.0,-4.0,42.0,1644586863.65625,P03,D11,1,1,0
181,-48.0,-4.0,42.0,1644586863.6875,P03,D11,1,1,0
182,-49.0,-4.0,42.0,1644586863.71875,P03,D11,1,1,0
183,-49.0,-4.0,42.0,1644586863.75,P03,D11,1,1,0
184,-48.0,-4.0,42.0,1644586863.78125,P03,D11,1,1,0
185,-48.0,-4.0,42.0,1644586863.8125,P03,D11,1,1,0
186,-48.0,-4.0,42.0,1644586863.84375,P03,D11,1,1,0
187,-48.0,-4.0,42.0,1644586863.875,P03,D11,1,1,0
188,-48.0,-4.0,42.0,1644586863.90625,P03,D11,1,1,0
189,-48.0,-4.0,42.0,1644586863.9375,P03,D11,1,1,0
190,-48.0,-4.0,42.0,1644586863.96875,P03,D11,1,1,0
191,-48.0,-4.0,42.0,1644586864.0,P03,D11,1,1,0
192,-48.0,-4.0,42.0,1644586864.03125,P03,D11,1,1,0
193,-48.0,-4.0,42.0,1644586864.0625,P03,D11,1,1,0
194,-48.0,-4.0,42.0,1644586864.09375,P03,D11,1,1,0
195,-48.0,-4.0,42.0,1644586864.125,P03,D11,1,1,0
196,-48.0,-4.0,42.0,1644586864.15625,P03,D11,1,1,0
197,-48.0,-4.0,42.0,1644586864.1875,P03,D11,1,1,0
198,-48.0,-4.0,42.0,1644586864.21875,P03,D11,1,1,0
199,-48.0,-4.0,42.0,1644586864.25,P03,D11,1,1,0
200,-48.0,-4.0,42.0,1644586864.28125,P03,D11,1,1,0
201,-47.0,-4.0,42.0,1644586864.3125,P03,D11,1,1,0
202,-47.0,-4.0,42.0,1644586864.34375,P03,D11,1,1,0
203,-47.0,-4.0,42.0,1644586864.375,P03,D11,1,1,0
204,-47.0,-4.0,42.0,1644586864.40625,P03,D11,1,1,0
205,-47.0,-4.0,42.0,1644586864.4375,P03,D11,1,1,0
206,-48.0,-4.0,43.0,1644586864.46875,P03,D11,1,1,0
207,-47.0,-4.0,42.0,1644586864.5,P03,D11,1,1,0
208,-47.0,-4.0,42.0,1644586864.53125,P03,D11,1,1,0
209,-47.0,-4.0,43.0,1644586864.5625,P03,D11,1,1,0
210,-47.0,-4.0,43.0,1644586864.59375,P03,D11,1,1,0
211,-47.0,-4.0,42.0,1644586864.625,P03,D11,1,1,0
212,-47.0,-4.0,42.0,1644586864.65625,P03,D11,1,1,0
213,-47.0,-4.0,43.0,1644586864.6875,P03,D11,1,1,0
214,-47.0,-4.0,43.0,1644586864.71875,P03,D11,1,1,0
215,-47.0,-4.0,42.0,1644586864.75,P03,D11,1,1,0
216,-47.0,-4.0,43.0,1644586864.78125,P03,D11,1,1,0
217,-47.0,-4.0,43.0,1644586864.8125,P03,D11,1,1,0
218,-47.0,-4.0,43.0,1644586864.84375,P03,D11,1,1,0
219,-47.0,-4.0,43.0,1644586864.875,P03,D11,1,1,0
220,-47.0,-4.0,43.0,1644586864.90625,P03,D11,1,1,0
221,-47.0,-4.0,43.0,1644586864.9375,P03,D11,1,1,0
222,-47.0,-4.0,43.0,1644586864.96875,P03,D11,1,1,0
223,-47.0,-4.0,43.0,1644586865.0,P03,D11,1,1,0
224,-47.0,-4.0,43.0,1644586865.03125,P03,D11,1,1,0
225,-47.0,-4.0,43.0,1644586865.0625,P03,D11,1,1,0
226,-47.0,-4.0,43.0,1644586865.09375,P03,D11,1,1,0
227,-47.0,-4.0,43.0,1644586865.125,P03,D11,1,1,0
228,-47.0,-4.0,43.0,1644586865.15625,P03,D11,1,1,0
229,-47.0,-4.0,43.0,1644586865.1875,P03,D11,1,1,0
230,-47.0,-4.0,43.0,1644586865.21875,P03,D11,1,1,0
231,-47.0,-4.0,43.0,1644586865.25,P03,D11,1,1,0
232,-47.0,-4.0,43.0,1644586865.28125,P03,D11,1,1,0
233,-47.0,-4.0,43.0,1644586865.3125,P03,D11,1,1,0
234,-47.0,-4.0,43.0,1644586865.34375,P03,D11,1,1,0
235,-47.0,-4.0,43.0,1644586865.375,P03,D11,1,1,0
236,-47.0,-4.0,43.0,1644586865.40625,P03,D11,1,1,0
237,-47.0,-4.0,43.0,1644586865.4375,P03,D11,1,1,0
238,-47.0,-4.0,43.0,1644586865.46875,P03,D11,1,1,0
239,-47.0,-4.0,43.0,1644586865.5,P03,D11,1,1,0
240,-47.0,-4.0,43.0,1644586865.53125,P03,D11,1,1,0
241,-47.0,-4.0,43.0,1644586865.5625,P03,D11,1,1,0
242,-47.0,-4.0,43.0,1644586865.59375,P03,D11,1,1,0
243,-47.0,-4.0,43.0,1644586865.625,P03,D11,1,1,0
244,-47.0,-4.0,43.0,1644586865.65625,P03,D11,1,1,0
245,-47.0,-4.0,43.0,1644586865.6875,P03,D11,1,1,0
246,-47.0,-4.0,43.0,1644586865.71875,P03,D11,1,1,0
247,-47.0,-4.0,43.0,1644586865.75,P03,D11,1,1,0
248,-47.0,-4.0,43.0,1644586865.78125,P03,D11,1,1,0
249,-47.0,-4.0,43.0,1644586865.8125,P03,D11,1,1,0
250,-47.0,-4.0,43.0,1644586865.84375,P03,D11,1,1,0
251,-47.0,-4.0,43.0,1644586865.875,P03,D11,1,1,0
252,-47.0,-4.0,43.0,1644586865.90625,P03,D11,1,1,0
253,-47.0,-4.0,44.0,1644586865.9375,P03,D11,1,1,0
254,-47.0,-4.0,43.0,1644586865.96875,P03,D11,1,1,0
255,-47.0,-4.0,43.0,1644586866.0,P03,D11,1,1,0
256,-47.0,-4.0,43.0,1644586866.03125,P03,D11,1,1,0
257,-47.0,-4.0,43.0,1644586866.0625,P03,D11,1,1,0
258,-47.0,-4.0,43.0,1644586866.09375,P03,D11,1,1,0
259,-47.0,-4.0,43.0,1644586866.125,P03,D11,1,1,0
260,-47.0,-4.0,43.0,1644586866.15625,P03,D11,1,1,0
261,-47.0,-4.0,43.0,1644586866.1875,P03,D11,1,1,0
262,-47.0,-4.0,43.0,1644586866.21875,P03,D11,1,1,0
263,-47.0,-4.0,43.0,1644586866.25,P03,D11,1,1,0
264,-47.0,-4.0,43.0,1644586866.28125,P03,D11,1,1,0
265,-47.0,-4.0,43.0,1644586866.3125,P03,D11,1,1,0
266,-47.0,-4.0,44.0,1644586866.34375,P03,D11,1,1,0
267,-47.0,-4.0,44.0,1644586866.375,P03,D11,1,1,0
268,-47.0,-4.0,43.0,1644586866.40625,P03,D11,1,1,0
269,-46.0,-4.0,43.0,1644586866.4375,P03,D11,1,1,0
270,-46.0,-4.0,43.0,1644586866.46875,P03,D11,1,1,0
271,-47.0,-4.0,44.0,1644586866.5,P03,D11,1,1,0
272,-47.0,-4.0,43.0,1644586866.53125,P03,D11,1,1,0
273,-47.0,-4.0,43.0,1644586866.5625,P03,D11,1,1,0
274,-47.0,-4.0,44.0,1644586866.59375,P03,D11,1,1,0
275,-46.0,-4.0,43.0,1644586866.625,P03,D11,1,1,0
276,-47.0,-4.0,43.0,1644586866.65625,P03,D11,1,1,0
277,-46.0,-4.0,44.0,1644586866.6875,P03,D11,1,1,0
278,-47.0,-4.0,43.0,1644586866.71875,P03,D11,1,1,0
279,-47.0,-4.0,43.0,1644586866.75,P03,D11,1,1,0
280,-47.0,-4.0,44.0,1644586866.78125,P03,D11,1,1,0
281,-46.0,-4.0,44.0,1644586866.8125,P03,D11,1,1,0
282,-47.0,-4.0,43.0,1644586866.84375,P03,D11,1,1,0
283,-46.0,-4.0,44.0,1644586866.875,P03,D11,1,1,0
284,-47.0,-4.0,44.0,1644586866.90625,P03,D11,1,1,0
285,-46.0,-4.0,44.0,1644586866.9375,P03,D11,1,1,0
286,-46.0,-4.0,44.0,1644586866.96875,P03,D11,1,1,0
287,-47.0,-4.0,44.0,1644586867.0,P03,D11,1,1,0
288,-46.0,-4.0,43.0,1644586867.03125,P03,D11,1,1,0
289,-46.0,-4.0,43.0,1644586867.0625,P03,D11,1,1,0
290,-46.0,-4.0,44.0,1644586867.09375,P03,D11,1,1,0
291,-46.0,-4.0,44.0,1644586867.125,P03,D11,1,1,0
292,-46.0,-4.0,44.0,1644586867.15625,P03,D11,1,1,0
293,-47.0,-4.0,43.0,1644586867.1875,P03,D11,1,1,0
294,-46.0,-4.0,44.0,1644586867.21875,P03,D11,1,1,0
295,-46.0,-4.0,44.0,1644586867.25,P03,D11,1,1,0
296,-47.0,-4.0,43.0,1644586867.28125,P03,D11,1,1,0
297,-47.0,-4.0,44.0,1644586867.3125,P03,D11,1,1,0
298,-46.0,-4.0,44.0,1644586867.34375,P03,D11,1,1,0
299,-46.0,-4.0,44.0,1644586867.375,P03,D11,1,1,0
300,-47.0,-4.0,44.0,1644586867.40625,P03,D11,1,1,0
301,-46.0,-4.0,44.0,1644586867.4375,P03,D11,1,1,0
302,-47.0,-4.0,44.0,1644586867.46875,P03,D11,1,1,0
303,-46.0,-4.0,44.0,1644586867.5,P03,D11,1,1,0
304,-47.0,-4.0,44.0,1644586867.53125,P03,D11,1,1,0
305,-46.0,-4.0,44.0,1644586867.5625,P03,D11,1,1,0
306,-46.0,-4.0,43.0,1644586867.59375,P03,D11,1,1,0
307,-46.0,-4.0,43.0,1644586867.625,P03,D11,1,1,0
308,-47.0,-4.0,43.0,1644586867.65625,P03,D11,1,1,0
309,-46.0,-4.0,44.0,1644586867.6875,P03,D11,1,1,0
310,-46.0,-4.0,44.0,1644586867.71875,P03,D11,1,1,0
311,-47.0,-4.0,44.0,1644586867.75,P03,D11,1,1,0
312,-47.0,-4.0,44.0,1644586867.78125,P03,D11,1,1,0
313,-46.0,-4.0,43.0,1644586867.8125,P03,D11,1,1,0
314,-46.0,-4.0,44.0,1644586867.84375,P03,D11,1,1,0
315,-47.0,-4.0,44.0,1644586867.875,P03,D11,1,1,0
316,-46.0,-4.0,43.0,1644586867.90625,P03,D11,1,1,0
317,-46.0,-4.0,44.0,1644586867.9375,P03,D11,1,1,0
318,-46.0,-4.0,44.0,1644586867.96875,P03,D11,1,1,0
319,-47.0,-4.0,43.0,1644586868.0,P03,D11,1,1,0
320,-46.0,-4.0,44.0,1644586868.03125,P03,D11,1,1,0
321,-46.0,-4.0,44.0,1644586868.0625,P03,D11,1,1,0
322,-46.0,-4.0,44.0,1644586868.09375,P03,D11,1,1,0
323,-46.0,-4.0,43.0,1644586868.125,P03,D11,1,1,0
324,-46.0,-4.0,44.0,1644586868.15625,P03,D11,1,1,0
325,-47.0,-4.0,44.0,1644586868.1875,P03,D11,1,1,0
326,-46.0,-4.0,44.0,1644586868.21875,P03,D11,1,1,0
327,-46.0,-4.0,43.0,1644586868.25,P03,D11,1,1,0
328,-46.0,-4.0,44.0,1644586868.28125,P03,D11,1,1,0
329,-46.0,-4.0,44.0,1644586868.3125,P03,D11,1,1,0
330,-46.0,-4.0,43.0,1644586868.34375,P03,D11,1,1,0
331,-46.0,-4.0,44.0,1644586868.375,P03,D11,1,1,0
332,-46.0,-4.0,43.0,1644586868.40625,P03,D11,1,1,0
333,-46.0,-4.0,44.0,1644586868.4375,P03,D11,1,1,0
334,-46.0,-4.0,44.0,1644586868.46875,P03,D11,1,1,0
335,-47.0,-4.0,43.0,1644586868.5,P03,D11,1,1,0
336,-46.0,-4.0,43.0,1644586868.53125,P03,D11,1,1,0
337,-46.0,-4.0,44.0,1644586868.5625,P03,D11,1,1,0
338,-46.0,-4.0,44.0,1644586868.59375,P03,D11,1,1,0
339,-46.0,-4.0,44.0,1644586868.625,P03,D11,1,1,0
340,-47.0,-4.0,43.0,1644586868.65625,P03,D11,1,1,0
341,-46.0,-4.0,44.0,1644586868.6875,P03,D11,1,1,0
342,-46.0,-4.0,44.0,1644586868.71875,P03,D11,1,1,0
343,-46.0,-4.0,43.0,1644586868.75,P03,D11,1,1,0
344,-46.0,-4.0,44.0,1644586868.78125,P03,D11,1,1,0
345,-46.0,-4.0,44.0,1644586868.8125,P03,D11,1,1,0
346,-46.0,-4.0,44.0,1644586868.84375,P03,D11,1,1,0
347,-46.0,-4.0,44.0,1644586868.875,P03,D11,1,1,0
348,-46.0,-4.0,44.0,1644586868.90625,P03,D11,1,1,0
349,-46.0,-4.0,43.0,1644586868.9375,P03,D11,1,1,0
350,-47.0,-4.0,44.0,1644586868.96875,P03,D11,1,1,0
351,-46.0,-4.0,44.0,1644586869.0,P03,D11,1,1,0
352,-46.0,-4.0,44.0,1644586869.03125,P03,D11,1,1,0
353,-46.0,-4.0,44.0,1644586869.0625,P03,D11,1,1,0
354,-46.0,-4.0,44.0,1644586869.09375,P03,D11,1,1,0
355,-46.0,-4.0,44.0,1644586869.125,P03,D11,1,1,0
356,-46.0,-4.0,44.0,1644586869.15625,P03,D11,1,1,0
357,-46.0,-4.0,44.0,1644586869.1875,P03,D11,1,1,0
358,-46.0,-4.0,44.0,1644586869.21875,P03,D11,1,1,0
359,-46.0,-4.0,44.0,1644586869.25,P03,D11,1,1,0
360,-46.0,-4.0,44.0,1644586869.28125,P03,D11,1,1,0
361,-46.0,-4.0,44.0,1644586869.3125,P03,D11,1,1,0
362,-46.0,-4.0,44.0,1644586869.34375,P03,D11,1,1,0
363,-46.0,-4.0,44.0,1644586869.375,P03,D11,1,1,0
364,-46.0,-4.0,44.0,1644586869.40625,P03,D11,1,1,0
365,-46.0,-4.0,44.0,1644586869.4375,P03,D11,1,1,0
366,-46.0,-4.0,44.0,1644586869.46875,P03,D11,1,1,0
367,-46.0,-4.0,44.0,1644586869.5,P03,D11,1,1,0
368,-46.0,-4.0,44.0,1644586869.53125,P03,D11,1,1,0
369,-46.0,-4.0,44.0,1644586869.5625,P03,D11,1,1,0
370,-46.0,-4.0,44.0,1644586869.59375,P03,D11,1,1,0
371,-46.0,-4.0,44.0,1644586869.625,P03,D11,1,1,0
372,-46.0,-4.0,44.0,1644586869.65625,P03,D11,1,1,0
373,-46.0,-4.0,44.0,1644586869.6875,P03,D11,1,1,0
374,-46.0,-4.0,44.0,1644586869.71875,P03,D11,1,1,0
375,-46.0,-4.0,44.0,1644586869.75,P03,D11,1,1,0
376,-46.0,-4.0,44.0,1644586869.78125,P03,D11,1,1,0
377,-46.0,-4.0,44.0,1644586869.8125,P03,D11,1,1,0
378,-46.0,-4.0,44.0,1644586869.84375,P03,D11,1,1,0
379,-46.0,-4.0,44.0,1644586869.875,P03,D11,1,1,0
380,-47.0,-4.0,43.0,1644586869.90625,P03,D11,1,1,0
381,-46.0,-4.0,44.0,1644586869.9375,P03,D11,1,1,0
382,-46.0,-4.0,44.0,1644586869.96875,P03,D11,1,1,0
383,-46.0,-4.0,44.0,1644586870.0,P03,D11,1,1,0
384,-46.0,-4.0,44.0,1644586870.03125,P03,D11,1,1,0
385,-46.0,-4.0,44.0,1644586870.0625,P03,D11,1,1,0
386,-46.0,-4.0,44.0,1644586870.09375,P03,D11,1,1,0
387,-46.0,-4.0,44.0,1644586870.125,P03,D11,1,1,0
388,-46.0,-4.0,44.0,1644586870.15625,P03,D11,1,1,0
389,-46.0,-4.0,44.0,1644586870.1875,P03,D11,1,1,0
390,-46.0,-4.0,44.0,1644586870.21875,P03,D11,1,1,0
391,-46.0,-4.0,44.0,1644586870.25,P03,D11,1,1,0
392,-46.0,-4.0,44.0,1644586870.28125,P03,D11,1,1,0
393,-46.0,-4.0,44.0,1644586870.3125,P03,D11,1,1,0
394,-46.0,-4.0,44.0,1644586870.34375,P03,D11,1,1,0
395,-46.0,-4.0,44.0,1644586870.375,P03,D11,1,1,0
396,-46.0,-4.0,44.0,1644586870.40625,P03,D11,1,1,0
397,-46.0,-4.0,44.0,1644586870.4375,P03,D11,1,1,0
398,-46.0,-4.0,44.0,1644586870.46875,P03,D11,1,1,0
399,-46.0,-4.0,44.0,1644586870.5,P03,D11,1,1,0
400,-46.0,-4.0,44.0,1644586870.53125,P03,D11,1,1,0
401,-46.0,-4.0,44.0,1644586870.5625,P03,D11,1,1,0
402,-46.0,-4.0,44.0,1644586870.59375,P03,D11,1,1,0
403,-46.0,-4.0,44.0,1644586870.625,P03,D11,1,1,0
404,-46.0,-4.0,44.0,1644586870.65625,P03,D11,1,1,0
405,-46.0,-4.0,44.0,1644586870.6875,P03,D11,1,1,0
406,-46.0,-4.0,44.0,1644586870.71875,P03,D11,1,1,0
407,-46.0,-4.0,44.0,1644586870.75,P03,D11,1,1,0
408,-46.0,-4.0,44.0,1644586870.78125,P03,D11,1,1,0
409,-46.0,-4.0,44.0,1644586870.8125,P03,D11,1,1,0
410,-46.0,-4.0,44.0,1644586870.84375,P03,D11,1,1,0
411,-46.0,-4.0,44.0,1644586870.875,P03,D11,1,1,0
412,-46.0,-4.0,44.0,1644586870.90625,P03,D11,1,1,0
413,-46.0,-4.0,44.0,1644586870.9375,P03,D11,1,1,0
414,-46.0,-4.0,44.0,1644586870.96875,P03,D11,1,1,0
415,-46.0,-4.0,44.0,1644586871.0,P03,D11,1,1,0
416,-46.0,-4.0,44.0,1644586871.03125,P03,D11,1,1,0
417,-46.0,-4.0,44.0,1644586871.0625,P03,D11,1,1,0
418,-46.0,-4.0,44.0,1644586871.09375,P03,D11,1,1,0
419,-46.0,-4.0,44.0,1644586871.125,P03,D11,1,1,0
420,-46.0,-4.0,44.0,1644586871.15625,P03,D11,1,1,0
421,-46.0,-4.0,44.0,1644586871.1875,P03,D11,1,1,0
422,-46.0,-4.0,44.0,1644586871.21875,P03,D11,1,1,0
423,-46.0,-4.0,44.0,1644586871.25,P03,D11,1,1,0
424,-46.0,-4.0,44.0,1644586871.28125,P03,D11,1,1,0
425,-47.0,-4.0,44.0,1644586871.3125,P03,D11,1,1,0
426,-46.0,-4.0,44.0,1644586871.34375,P03,D11,1,1,0
427,-46.0,-4.0,44.0,1644586871.375,P03,D11,1,1,0
428,-46.0,-4.0,44.0,1644586871.40625,P03,D11,1,1,0
429,-46.0,-4.0,44.0,1644586871.4375,P03,D11,1,1,0
430,-46.0,-4.0,44.0,1644586871.46875,P03,D11,1,1,0
431,-46.0,-4.0,44.0,1644586871.5,P03,D11,1,1,0
432,-46.0,-4.0,44.0,1644586871.53125,P03,D11,1,1,0
433,-46.0,-4.0,44.0,1644586871.5625,P03,D11,1,1,0
434,-46.0,-4.0,44.0,1644586871.59375,P03,D11,1,1,0
435,-46.0,-4.0,44.0,1644586871.625,P03,D11,1,1,0
436,-46.0,-4.0,44.0,1644586871.65625,P03,D11,1,1,0
437,-46.0,-4.0,44.0,1644586871.6875,P03,D11,1,1,0
438,-46.0,-4.0,44.0,1644586871.71875,P03,D11,1,1,0
439,-46.0,-4.0,44.0,1644586871.75,P03,D11,1,1,0
440,-46.0,-4.0,44.0,1644586871.78125,P03,D11,1,1,0
441,-46.0,-4.0,44.0,1644586871.8125,P03,D11,1,1,0
442,-46.0,-4.0,44.0,1644586871.84375,P03,D11,1,1,0
443,-46.0,-4.0,44.0,1644586871.875,P03,D11,1,1,0
444,-46.0,-4.0,44.0,1644586871.90625,P03,D11,1,1,0
445,-46.0,-4.0,44.0,1644586871.9375,P03,D11,1,1,0
446,-46.0,-4.0,44.0,1644586871.96875,P03,D11,1,1,0
447,-46.0,-4.0,44.0,1644586872.0,P03,D11,1,1,0
448,-46.0,-4.0,44.0,1644586872.03125,P03,D11,1,1,0
449,-46.0,-4.0,44.0,1644586872.0625,P03,D11,1,1,0
450,-46.0,-4.0,44.0,1644586872.09375,P03,D11,1,1,0
451,-46.0,-4.0,44.0,1644586872.125,P03,D11,1,1,0
452,-46.0,-4.0,44.0,1644586872.15625,P03,D11,1,1,0
453,-46.0,-4.0,44.0,1644586872.1875,P03,D11,1,1,0
454,-46.0,-4.0,43.0,1644586872.21875,P03,D11,1,1,0
455,-46.0,-4.0,44.0,1644586872.25,P03,D11,1,1,0
456,-46.0,-4.0,44.0,1644586872.28125,P03,D11,1,1,0
457,-46.0,-4.0,44.0,1644586872.3125,P03,D11,1,1,0
458,-46.0,-4.0,44.0,1644586872.34375,P03,D11,1,1,0
459,-46.0,-4.0,44.0,1644586872.375,P03,D11,1,1,0
460,-46.0,-4.0,44.0,1644586872.40625,P03,D11,1,1,0
461,-46.0,-4.0,44.0,1644586872.4375,P03,D11,1,1,0
462,-46.0,-4.0,44.0,1644586872.46875,P03,D11,1,1,0
463,-46.0,-4.0,44.0,1644586872.5,P03,D11,1,1,0
464,-46.0,-4.0,44.0,1644586872.53125,P03,D11,1,1,0
465,-46.0,-4.0,44.0,1644586872.5625,P03,D11,1,1,0
466,-46.0,-4.0,44.0,1644586872.59375,P03,D11,1,1,0
467,-46.0,-4.0,44.0,1644586872.625,P03,D11,1,1,0
468,-46.0,-4.0,44.0,1644586872.65625,P03,D11,1,1,0
469,-46.0,-4.0,44.0,1644586872.6875,P03,D11,1,1,0
470,-46.0,-4.0,44.0,1644586872.71875,P03,D11,1,1,0
471,-46.0,-4.0,44.0,1644586872.75,P03,D11,1,1,0
472,-46.0,-4.0,44.0,1644586872.78125,P03,D11,1,1,0
473,-46.0,-4.0,44.0,1644586872.8125,P03,D11,1,1,0
474,-46.0,-4.0,44.0,1644586872.84375,P03,D11,1,1,0
475,-46.0,-4.0,44.0,1644586872.875,P03,D11,1,1,0
476,-46.0,-4.0,44.0,1644586872.90625,P03,D11,1,1,0
477,-46.0,-4.0,44.0,1644586872.9375,P03,D11,1,1,0
478,-46.0,-4.0,44.0,1644586872.96875,P03,D11,1,1,0
479,-46.0,-4.0,44.0,1644586873.0,P03,D11,1,1,0
480,-46.0,-4.0,44.0,1644586873.03125,P03,D11,1,1,0
481,-46.0,-4.0,44.0,1644586873.0625,P03,D11,1,1,0
482,-46.0,-4.0,44.0,1644586873.09375,P03,D11,1,1,0
483,-46.0,-4.0,44.0,1644586873.125,P03,D11,1,1,0
484,-46.0,-4.0,44.0,1644586873.15625,P03,D11,1,1,0
485,-46.0,-4.0,44.0,1644586873.1875,P03,D11,1,1,0
486,-46.0,-4.0,44.0,1644586873.21875,P03,D11,1,1,0
487,-46.0,-4.0,44.0,1644586873.25,P03,D11,1,1,0
488,-46.0,-4.0,44.0,1644586873.28125,P03,D11,1,1,0
489,-46.0,-4.0,44.0,1644586873.3125,P03,D11,1,1,0
490,-46.0,-4.0,44.0,1644586873.34375,P03,D11,1,1,0
491,-46.0,-4.0,44.0,1644586873.375,P03,D11,1,1,0
492,-46.0,-4.0,44.0,1644586873.40625,P03,D11,1,1,0
493,-46.0,-4.0,44.0,1644586873.4375,P03,D11,1,1,0
494,-46.0,-4.0,44.0,1644586873.46875,P03,D11,1,1,0
495,-46.0,-4.0,44.0,1644586873.5,P03,D11,1,1,0
496,-46.0,-4.0,44.0,1644586873.53125,P03,D11,1,1,0
497,-46.0,-4.0,44.0,1644586873.5625,P03,D11,1,1,0
498,-46.0,-4.0,44.0,1644586873.59375,P03,D11,1,1,0
499,-46.0,-4.0,44.0,1644586873.625,P03,D11,1,1,0
500,-46.0,-4.0,44.0,1644586873.65625,P03,D11,1,1,0
501,-46.0,-4.0,44.0,1644586873.6875,P03,D11,1,1,0
502,-46.0,-4.0,44.0,1644586873.71875,P03,D11,1,1,0
503,-46.0,-4.0,44.0,1644586873.75,P03,D11,1,1,0
504,-46.0,-4.0,44.0,1644586873.78125,P03,D11,1,1,0
505,-46.0,-4.0,44.0,1644586873.8125,P03,D11,1,1,0
506,-46.0,-4.0,44.0,1644586873.84375,P03,D11,1,1,0
507,-46.0,-4.0,44.0,1644586873.875,P03,D11,1,1,0
508,-46.0,-4.0,44.0,1644586873.90625,P03,D11,1,1,0
509,-46.0,-4.0,44.0,1644586873.9375,P03,D11,1,1,0
510,-46.0,-4.0,44.0,1644586873.96875,P03,D11,1,1,0
511,-46.0,-4.0,44.0,1644586874.0,P03,D11,1,1,0
512,-46.0,-4.0,44.0,1644586874.03125,P03,D11,1,1,0
513,-46.0,-4.0,44.0,1644586874.0625,P03,D11,1,1,0
514,-46.0,-4.0,44.0,1644586874.09375,P03,D11,1,1,0
515,-46.0,-4.0,44.0,1644586874.125,P03,D11,1,1,0
516,-46.0,-4.0,44.0,1644586874.15625,P03,D11,1,1,0
517,-46.0,-4.0,44.0,1644586874.1875,P03,D11,1,1,0
518,-46.0,-4.0,44.0,1644586874.21875,P03,D11,1,1,0
519,-46.0,-4.0,44.0,1644586874.25,P03,D11,1,1,0
520,-46.0,-4.0,44.0,1644586874.28125,P03,D11,1,1,0
521,-46.0,-4.0,44.0,1644586874.3125,P03,D11,1,1,0
522,-46.0,-4.0,44.0,1644586874.34375,P03,D11,1,1,0
523,-46.0,-4.0,44.0,1644586874.375,P03,D11,1,1,0
524,-46.0,-4.0,44.0,1644586874.40625,P03,D11,1,1,0
525,-46.0,-4.0,44.0,1644586874.4375,P03,D11,1,1,0
526,-46.0,-4.0,44.0,1644586874.46875,P03,D11,1,1,0
527,-46.0,-4.0,44.0,1644586874.5,P03,D11,1,1,0
528,-46.0,-4.0,44.0,1644586874.53125,P03,D11,1,1,0
529,-46.0,-4.0,44.0,1644586874.5625,P03,D11,1,1,0
530,-46.0,-4.0,44.0,1644586874.59375,P03,D11,1,1,0
531,-46.0,-4.0,44.0,1644586874.625,P03,D11,1,1,0
532,-46.0,-4.0,44.0,1644586874.65625,P03,D11,1,1,0
533,-46.0,-4.0,44.0,1644586874.6875,P03,D11,1,1,0
534,-46.0,-4.0,44.0,1644586874.71875,P03,D11,1,1,0
535,-46.0,-4.0,44.0,1644586874.75,P03,D11,1,1,0
536,-46.0,-4.0,44.0,1644586874.78125,P03,D11,1,1,0
537,-46.0,-4.0,44.0,1644586874.8125,P03,D11,1,1,0
538,-46.0,-4.0,44.0,1644586874.84375,P03,D11,1,1,0
539,-46.0,-4.0,44.0,1644586874.875,P03,D11,1,1,0
540,-46.0,-4.0,44.0,1644586874.90625,P03,D11,1,1,0
541,-46.0,-4.0,44.0,1644586874.9375,P03,D11,1,1,0
542,-46.0,-4.0,44.0,1644586874.96875,P03,D11,1,1,0
543,-46.0,-4.0,44.0,1644586875.0,P03,D11,1,1,0
544,-46.0,-4.0,44.0,1644586875.03125,P03,D11,1,1,0
545,-46.0,-4.0,44.0,1644586875.0625,P03,D11,1,1,0
546,-46.0,-4.0,44.0,1644586875.09375,P03,D11,1,1,0
547,-46.0,-4.0,44.0,1644586875.125,P03,D11,1,1,0
548,-46.0,-4.0,44.0,1644586875.15625,P03,D11,1,1,0
549,-46.0,-4.0,44.0,1644586875.1875,P03,D11,1,1,0
550,-46.0,-4.0,44.0,1644586875.21875,P03,D11,1,1,0
551,-46.0,-4.0,44.0,1644586875.25,P03,D11,1,1,0
552,-46.0,-4.0,44.0,1644586875.28125,P03,D11,1,1,0
553,-46.0,-4.0,44.0,1644586875.3125,P03,D11,1,1,0
554,-46.0,-4.0,44.0,1644586875.34375,P03,D11,1,1,0
555,-46.0,-4.0,44.0,1644586875.375,P03,D11,1,1,0
556,-46.0,-4.0,44.0,1644586875.40625,P03,D11,1,1,0
557,-46.0,-4.0,44.0,1644586875.4375,P03,D11,1,1,0
558,-46.0,-4.0,44.0,1644586875.46875,P03,D11,1,1,0
559,-46.0,-4.0,44.0,1644586875.5,P03,D11,1,1,0
560,-46.0,-4.0,44.0,1644586875.53125,P03,D11,1,1,0
561,-46.0,-4.0,44.0,1644586875.5625,P03,D11,1,1,0
562,-46.0,-4.0,44.0,1644586875.59375,P03,D11,1,1,0
563,-46.0,-4.0,44.0,1644586875.625,P03,D11,1,1,0
564,-46.0,-4.0,44.0,1644586875.65625,P03,D11,1,1,0
565,-46.0,-4.0,44.0,1644586875.6875,P03,D11,1,1,0
566,-46.0,-4.0,44.0,1644586875.71875,P03,D11,1,1,0
567,-46.0,-4.0,44.0,1644586875.75,P03,D11,1,1,0
568,-46.0,-4.0,44.0,1644586875.78125,P03,D11,1,1,0
569,-46.0,-4.0,44.0,1644586875.8125,P03,D11,1,1,0
570,-46.0,-4.0,44.0,1644586875.84375,P03,D11,1,1,0
571,-46.0,-4.0,44.0,1644586875.875,P03,D11,1,1,0
572,-46.0,-4.0,44.0,1644586875.90625,P03,D11,1,1,0
573,-46.0,-4.0,44.0,1644586875.9375,P03,D11,1,1,0
574,-46.0,-4.0,44.0,1644586875.96875,P03,D11,1,1,0
575,-46.0,-4.0,44.0,1644586876.0,P03,D11,1,1,0
576,-46.0,-4.0,44.0,1644586876.03125,P03,D11,1,1,0
577,-46.0,-4.0,44.0,1644586876.0625,P03,D11,1,1,0
578,-46.0,-4.0,44.0,1644586876.09375,P03,D11,1,1,0
579,-46.0,-4.0,44.0,1644586876.125,P03,D11,1,1,0
580,-46.0,-4.0,44.0,1644586876.15625,P03,D11,1,1,0
581,-46.0,-4.0,44.0,1644586876.1875,P03,D11,1,1,0
582,-46.0,-4.0,44.0,1644586876.21875,P03,D11,1,1,0
583,-46.0,-4.0,44.0,1644586876.25,P03,D11,1,1,0
584,-46.0,-4.0,44.0,1644586876.28125,P03,D11,1,1,0
585,-46.0,-4.0,44.0,1644586876.3125,P03,D11,1,1,0
586,-46.0,-4.0,44.0,1644586876.34375,P03,D11,1,1,0
587,-46.0,-4.0,44.0,1644586876.375,P03,D11,1,1,0
588,-46.0,-4.0,44.0,1644586876.40625,P03,D11,1,1,0
589,-46.0,-4.0,44.0,1644586876.4375,P03,D11,1,1,0
590,-46.0,-4.0,44.0,1644586876.46875,P03,D11,1,1,0
591,-46.0,-4.0,44.0,1644586876.5,P03,D11,1,1,0
592,-46.0,-4.0,44.0,1644586876.53125,P03,D11,1,1,0
593,-46.0,-4.0,44.0,1644586876.5625,P03,D11,1,1,0
594,-46.0,-4.0,44.0,1644586876.59375,P03,D11,1,1,0
595,-46.0,-4.0,44.0,1644586876.625,P03,D11,1,1,0
596,-46.0,-4.0,44.0,1644586876.65625,P03,D11,1,1,0
597,-46.0,-4.0,44.0,1644586876.6875,P03,D11,1,1,0
598,-46.0,-4.0,44.0,1644586876.71875,P03,D11,1,1,0
599,-46.0,-4.0,44.0,1644586876.75,P03,D11,1,1,0
600,-46.0,-4.0,44.0,1644586876.78125,P03,D11,1,1,0
601,-46.0,-4.0,44.0,1644586876.8125,P03,D11,1,1,0
602,-46.0,-4.0,44.0,1644586876.84375,P03,D11,1,1,0
603,-46.0,-3.0,44.0,1644586876.875,P03,D11,1,1,0
604,-46.0,-4.0,44.0,1644586876.90625,P03,D11,1,1,0
605,-46.0,-4.0,44.0,1644586876.9375,P03,D11,1,1,0
606,-46.0,-4.0,44.0,1644586876.96875,P03,D11,1,1,0
607,-46.0,-4.0,44.0,1644586877.0,P03,D11,1,1,0
608,-46.0,-4.0,44.0,1644586877.03125,P03,D11,1,1,0
609,-46.0,-4.0,44.0,1644586877.0625,P03,D11,1,1,0
610,-46.0,-4.0,44.0,1644586877.09375,P03,D11,1,1,0
611,-46.0,-4.0,44.0,1644586877.125,P03,D11,1,1,0
612,-46.0,-4.0,44.0,1644586877.15625,P03,D11,1,1,0
613,-46.0,-4.0,44.0,1644586877.1875,P03,D11,1,1,0
614,-46.0,-4.0,44.0,1644586877.21875,P03,D11,1,1,0
615,-46.0,-4.0,44.0,1644586877.25,P03,D11,1,1,0
616,-46.0,-4.0,44.0,1644586877.28125,P03,D11,1,1,0
617,-46.0,-4.0,44.0,1644586877.3125,P03,D11,1,1,0
618,-46.0,-4.0,44.0,1644586877.34375,P03,D11,1,1,0
619,-46.0,-4.0,44.0,1644586877.375,P03,D11,1,1,0
620,-46.0,-4.0,44.0,1644586877.40625,P03,D11,1,1,0
621,-46.0,-4.0,44.0,1644586877.4375,P03,D11,1,1,0
622,-46.0,-4.0,44.0,1644586877.46875,P03,D11,1,1,0
623,-46.0,-4.0,44.0,1644586877.5,P03,D11,1,1,0
624,-46.0,-4.0,44.0,1644586877.53125,P03,D11,1,1,0
625,-46.0,-4.0,44.0,1644586877.5625,P03,D11,1,1,0
626,-46.0,-4.0,44.0,1644586877.59375,P03,D11,1,1,0
627,-46.0,-4.0,44.0,1644586877.625,P03,D11,1,1,0
628,-46.0,-4.0,44.0,1644586877.65625,P03,D11,1,1,0
629,-46.0,-4.0,44.0,1644586877.6875,P03,D11,1,1,0
630,-46.0,-4.0,44.0,1644586877.71875,P03,D11,1,1,0
631,-46.0,-4.0,44.0,1644586877.75,P03,D11,1,1,0
632,-46.0,-4.0,44.0,1644586877.78125,P03,D11,1,1,0
633,-46.0,-4.0,44.0,1644586877.8125,P03,D11,1,1,0
634,-46.0,-4.0,44.0,1644586877.84375,P03,D11,1,1,0
635,-46.0,-4.0,44.0,1644586877.875,P03,D11,1,1,0
636,-46.0,-4.0,44.0,1644586877.90625,P03,D11,1,1,0
637,-46.0,-4.0,44.0,1644586877.9375,P03,D11,1,1,0
638,-46.0,-4.0,44.0,1644586877.96875,P03,D11,1,1,0
639,-46.0,-4.0,44.0,1644586878.0,P03,D11,1,1,0
640,-46.0,-4.0,44.0,1644586878.03125,P03,D11,1,1,0
641,-46.0,-4.0,44.0,1644586878.0625,P03,D11,1,1,0
642,-46.0,-4.0,44.0,1644586878.09375,P03,D11,1,1,0
643,-46.0,-4.0,44.0,1644586878.125,P03,D11,1,1,0
644,-46.0,-4.0,44.0,1644586878.15625,P03,D11,1,1,0
645,-46.0,-4.0,44.0,1644586878.1875,P03,D11,1,1,0
646,-46.0,-4.0,44.0,1644586878.21875,P03,D11,1,1,0
647,-46.0,-4.0,44.0,1644586878.25,P03,D11,1,1,0
648,-46.0,-4.0,44.0,1644586878.28125,P03,D11,1,1,0
649,-46.0,-4.0,44.0,1644586878.3125,P03,D11,1,1,0
650,-46.0,-4.0,44.0,1644586878.34375,P03,D11,1,1,0
651,-46.0,-4.0,44.0,1644586878.375,P03,D11,1,1,0
652,-46.0,-4.0,44.0,1644586878.40625,P03,D11,1,1,0
653,-46.0,-4.0,44.0,1644586878.4375,P03,D11,1,1,0
654,-46.0,-4.0,44.0,1644586878.46875,P03,D11,1,1,0
655,-46.0,-4.0,44.0,1644586878.5,P03,D11,1,1,0
656,-46.0,-4.0,44.0,1644586878.53125,P03,D11,1,1,0
657,-46.0,-4.0,44.0,1644586878.5625,P03,D11,1,1,0
658,-46.0,-4.0,44.0,1644586878.59375,P03,D11,1,1,0
659,-46.0,-4.0,44.0,1644586878.625,P03,D11,1,1,0
660,-46.0,-4.0,44.0,1644586878.65625,P03,D11,1,1,0
661,-46.0,-4.0,44.0,1644586878.6875,P03,D11,1,1,0
662,-46.0,-4.0,44.0,1644586878.71875,P03,D11,1,1,0
663,-46.0,-4.0,44.0,1644586878.75,P03,D11,1,1,0
664,-46.0,-4.0,44.0,1644586878.78125,P03,D11,1,1,0
665,-46.0,-4.0,44.0,1644586878.8125,P03,D11,1,1,0
666,-46.0,-4.0,44.0,1644586878.84375,P03,D11,1,1,0
667,-46.0,-4.0,44.0,1644586878.875,P03,D11,1,1,0
668,-46.0,-4.0,44.0,1644586878.90625,P03,D11,1,1,0
669,-46.0,-4.0,44.0,1644586878.9375,P03,D11,1,1,0
670,-46.0,-4.0,44.0,1644586878.96875,P03,D11,1,1,0
671,-46.0,-4.0,44.0,1644586879.0,P03,D11,1,1,0
672,-46.0,-4.0,44.0,1644586879.03125,P03,D11,1,1,0
673,-46.0,-4.0,44.0,1644586879.0625,P03,D11,1,1,0
674,-46.0,-4.0,44.0,1644586879.09375,P03,D11,1,1,0
675,-46.0,-4.0,44.0,1644586879.125,P03,D11,1,1,0
676,-46.0,-4.0,44.0,1644586879.15625,P03,D11,1,1,0
677,-46.0,-4.0,44.0,1644586879.1875,P03,D11,1,1,0
678,-46.0,-4.0,44.0,1644586879.21875,P03,D11,1,1,0
679,-46.0,-4.0,44.0,1644586879.25,P03,D11,1,1,0
680,-46.0,-4.0,44.0,1644586879.28125,P03,D11,1,1,0
681,-46.0,-4.0,44.0,1644586879.3125,P03,D11,1,1,0
682,-46.0,-4.0,44.0,1644586879.34375,P03,D11,1,1,0
683,-46.0,-4.0,44.0,1644586879.375,P03,D11,1,1,0
684,-46.0,-4.0,44.0,1644586879.40625,P03,D11,1,1,0
685,-46.0,-4.0,44.0,1644586879.4375,P03,D11,1,1,0
686,-46.0,-4.0,44.0,1644586879.46875,P03,D11,1,1,0
687,-46.0,-4.0,44.0,1644586879.5,P03,D11,1,1,0
688,-46.0,-4.0,44.0,1644586879.53125,P03,D11,1,1,0
689,-46.0,-4.0,44.0,1644586879.5625,P03,D11,1,1,0
690,-46.0,-4.0,44.0,1644586879.59375,P03,D11,1,1,0
691,-46.0,-4.0,44.0,1644586879.625,P03,D11,1,1,0
692,-46.0,-4.0,44.0,1644586879.65625,P03,D11,1,1,0
693,-46.0,-4.0,44.0,1644586879.6875,P03,D11,1,1,0
694,-46.0,-4.0,44.0,1644586879.71875,P03,D11,1,1,0
695,-46.0,-4.0,44.0,1644586879.75,P03,D11,1,1,0
696,-46.0,-4.0,44.0,1644586879.78125,P03,D11,1,1,0
697,-46.0,-4.0,44.0,1644586879.8125,P03,D11,1,1,0
698,-46.0,-4.0,44.0,1644586879.84375,P03,D11,1,1,0
699,-46.0,-4.0,44.0,1644586879.875,P03,D11,1,1,0
700,-46.0,-4.0,44.0,1644586879.90625,P03,D11,1,1,0
701,-46.0,-4.0,44.0,1644586879.9375,P03,D11,1,1,0
702,-46.0,-4.0,44.0,1644586879.96875,P03,D11,1,1,0
703,-46.0,-4.0,44.0,1644586880.0,P03,D11,1,1,0
704,-46.0,-4.0,44.0,1644586880.03125,P03,D11,1,1,0
705,-46.0,-4.0,44.0,1644586880.0625,P03,D11,1,1,0
706,-46.0,-4.0,44.0,1644586880.09375,P03,D11,1,1,0
707,-46.0,-4.0,44.0,1644586880.125,P03,D11,1,1,0
708,-46.0,-4.0,44.0,1644586880.15625,P03,D11,1,1,0
709,-46.0,-4.0,44.0,1644586880.1875,P03,D11,1,1,0
710,-46.0,-4.0,44.0,1644586880.21875,P03,D11,1,1,0
711,-46.0,-4.0,44.0,1644586880.25,P03,D11,1,1,0
712,-46.0,-4.0,44.0,1644586880.28125,P03,D11,1,1,0
713,-46.0,-4.0,44.0,1644586880.3125,P03,D11,1,1,0
714,-46.0,-4.0,44.0,1644586880.34375,P03,D11,1,1,0
715,-46.0,-4.0,44.0,1644586880.375,P03,D11,1,1,0
716,-46.0,-4.0,44.0,1644586880.40625,P03,D11,1,1,0
717,-46.0,-4.0,44.0,1644586880.4375,P03,D11,1,1,0
718,-46.0,-4.0,44.0,1644586880.46875,P03,D11,1,1,0
719,-46.0,-4.0,44.0,1644586880.5,P03,D11,1,1,0
720,-46.0,-4.0,44.0,1644586880.53125,P03,D11,1,1,0
721,-46.0,-4.0,44.0,1644586880.5625,P03,D11,1,1,0
722,-46.0,-4.0,44.0,1644586880.59375,P03,D11,1,1,0
723,-46.0,-4.0,44.0,1644586880.625,P03,D11,1,1,0
724,-46.0,-4.0,44.0,1644586880.65625,P03,D11,1,1,0
725,-46.0,-4.0,44.0,1644586880.6875,P03,D11,1,1,0
726,-46.0,-4.0,44.0,1644586880.71875,P03,D11,1,1,0
727,-46.0,-4.0,44.0,1644586880.75,P03,D11,1,1,0
728,-46.0,-4.0,44.0,1644586880.78125,P03,D11,1,1,0
729,-46.0,-4.0,44.0,1644586880.8125,P03,D11,1,1,0
730,-46.0,-4.0,44.0,1644586880.84375,P03,D11,1,1,0
731,-46.0,-4.0,44.0,1644586880.875,P03,D11,1,1,0
732,-46.0,-4.0,44.0,1644586880.90625,P03,D11,1,1,0
733,-46.0,-4.0,44.0,1644586880.9375,P03,D11,1,1,0
734,-46.0,-4.0,44.0,1644586880.96875,P03,D11,1,1,0
735,-46.0,-4.0,44.0,1644586881.0,P03,D11,1,1,0
736,-46.0,-4.0,44.0,1644586881.03125,P03,D11,1,1,0
737,-46.0,-4.0,44.0,1644586881.0625,P03,D11,1,1,0
738,-46.0,-4.0,44.0,1644586881.09375,P03,D11,1,1,0
739,-46.0,-4.0,44.0,1644586881.125,P03,D11,1,1,0
740,-46.0,-4.0,44.0,1644586881.15625,P03,D11,1,1,0
741,-46.0,-4.0,44.0,1644586881.1875,P03,D11,1,1,0
742,-46.0,-4.0,44.0,1644586881.21875,P03,D11,1,1,0
743,-46.0,-4.0,44.0,1644586881.25,P03,D11,1,1,0
744,-46.0,-4.0,44.0,1644586881.28125,P03,D11,1,1,0
745,-46.0,-4.0,44.0,1644586881.3125,P03,D11,1,1,0
746,-46.0,-4.0,44.0,1644586881.34375,P03,D11,1,1,0
747,-46.0,-4.0,44.0,1644586881.375,P03,D11,1,1,0
748,-46.0,-4.0,44.0,1644586881.40625,P03,D11,1,1,0
749,-46.0,-4.0,44.0,1644586881.4375,P03,D11,1,1,0
750,-46.0,-4.0,44.0,1644586881.46875,P03,D11,1,1,0
751,-46.0,-4.0,44.0,1644586881.5,P03,D11,1,1,0
752,-46.0,-4.0,44.0,1644586881.53125,P03,D11,1,1,0
753,-46.0,-4.0,44.0,1644586881.5625,P03,D11,1,1,0
754,-46.0,-4.0,44.0,1644586881.59375,P03,D11,1,1,0
755,-46.0,-4.0,44.0,1644586881.625,P03,D11,1,1,0
756,-46.0,-4.0,45.0,1644586881.65625,P03,D11,1,1,0
757,-46.0,-4.0,44.0,1644586881.6875,P03,D11,1,1,0
758,-46.0,-4.0,44.0,1644586881.71875,P03,D11,1,1,0
759,-46.0,-4.0,44.0,1644586881.75,P03,D11,1,1,0
760,-46.0,-4.0,44.0,1644586881.78125,P03,D11,1,1,0
761,-46.0,-4.0,44.0,1644586881.8125,P03,D11,1,1,0
762,-46.0,-4.0,44.0,1644586881.84375,P03,D11,1,1,0
763,-46.0,-4.0,44.0,1644586881.875,P03,D11,1,1,0
764,-46.0,-4.0,44.0,1644586881.90625,P03,D11,1,1,0
765,-46.0,-4.0,44.0,1644586881.9375,P03,D11,1,1,0
766,-46.0,-4.0,44.0,1644586881.96875,P03,D11,1,1,0
767,-46.0,-4.0,44.0,1644586882.0,P03,D11,1,1,0
768,-46.0,-4.0,44.0,1644586882.03125,P03,D11,1,1,0
769,-46.0,-4.0,44.0,1644586882.0625,P03,D11,1,1,0
770,-46.0,-4.0,44.0,1644586882.09375,P03,D11,1,1,0
771,-46.0,-4.0,45.0,1644586882.125,P03,D11,1,1,0
772,-46.0,-4.0,44.0,1644586882.15625,P03,D11,1,1,0
773,-46.0,-4.0,44.0,1644586882.1875,P03,D11,1,1,0
774,-46.0,-4.0,45.0,1644586882.21875,P03,D11,1,1,0
775,-46.0,-4.0,44.0,1644586882.25,P03,D11,1,1,0
776,-46.0,-4.0,44.0,1644586882.28125,P03,D11,1,1,0
777,-46.0,-4.0,44.0,1644586882.3125,P03,D11,1,1,0
778,-46.0,-4.0,44.0,1644586882.34375,P03,D11,1,1,0
779,-46.0,-4.0,44.0,1644586882.375,P03,D11,1,1,0
780,-46.0,-4.0,44.0,1644586882.40625,P03,D11,1,1,0
781,-46.0,-4.0,44.0,1644586882.4375,P03,D11,1,1,0
782,-46.0,-4.0,44.0,1644586882.46875,P03,D11,1,1,0
783,-46.0,-4.0,44.0,1644586882.5,P03,D11,1,1,0
784,-46.0,-4.0,44.0,1644586882.53125,P03,D11,1,1,0
785,-46.0,-4.0,44.0,1644586882.5625,P03,D11,1,1,0
786,-46.0,-4.0,44.0,1644586882.59375,P03,D11,1,1,0
787,-46.0,-4.0,44.0,1644586882.625,P03,D11,1,1,0
788,-46.0,-4.0,44.0,1644586882.65625,P03,D11,1,1,0
789,-46.0,-4.0,44.0,1644586882.6875,P03,D11,1,1,0
790,-46.0,-4.0,44.0,1644586882.71875,P03,D11,1,1,0
791,-46.0,-4.0,44.0,1644586882.75,P03,D11,1,1,0
792,-46.0,-4.0,44.0,1644586882.78125,P03,D11,1,1,0
793,-46.0,-4.0,44.0,1644586882.8125,P03,D11,1,1,0
794,-46.0,-4.0,44.0,1644586882.84375,P03,D11,1,1,0
795,-46.0,-4.0,44.0,1644586882.875,P03,D11,1,1,0
796,-46.0,-4.0,44.0,1644586882.90625,P03,D11,1,1,0
797,-46.0,-4.0,44.0,1644586882.9375,P03,D11,1,1,0
798,-46.0,-4.0,44.0,1644586882.96875,P03,D11,1,1,0
799,-46.0,-4.0,44.0,1644586883.0,P03,D11,1,1,0
800,-46.0,-4.0,44.0,1644586883.03125,P03,D11,1,1,0
801,-46.0,-4.0,44.0,1644586883.0625,P03,D11,1,1,0
802,-46.0,-4.0,44.0,1644586883.09375,P03,D11,1,1,0
803,-46.0,-4.0,44.0,1644586883.125,P03,D11,1,1,0
804,-46.0,-4.0,44.0,1644586883.15625,P03,D11,1,1,0
805,-46.0,-4.0,44.0,1644586883.1875,P03,D11,1,1,0
806,-46.0,-4.0,44.0,1644586883.21875,P03,D11,1,1,0
807,-46.0,-4.0,44.0,1644586883.25,P03,D11,1,1,0
808,-46.0,-4.0,44.0,1644586883.28125,P03,D11,1,1,0
809,-46.0,-4.0,44.0,1644586883.3125,P03,D11,1,1,0
810,-46.0,-4.0,44.0,1644586883.34375,P03,D11,1,1,0
811,-46.0,-4.0,44.0,1644586883.375,P03,D11,1,1,0
812,-46.0,-4.0,44.0,1644586883.40625,P03,D11,1,1,0
813,-46.0,-4.0,44.0,1644586883.4375,P03,D11,1,1,0
814,-46.0,-4.0,44.0,1644586883.46875,P03,D11,1,1,0
815,-46.0,-4.0,44.0,1644586883.5,P03,D11,1,1,0
816,-46.0,-4.0,44.0,1644586883.53125,P03,D11,1,1,0
817,-46.0,-4.0,44.0,1644586883.5625,P03,D11,1,1,0
818,-46.0,-4.0,44.0,1644586883.59375,P03,D11,1,1,0
819,-46.0,-4.0,44.0,1644586883.625,P03,D11,1,1,0
820,-46.0,-4.0,44.0,1644586883.65625,P03,D11,1,1,0
821,-46.0,-4.0,44.0,1644586883.6875,P03,D11,1,1,0
822,-46.0,-4.0,44.0,1644586883.71875,P03,D11,1,1,0
823,-46.0,-4.0,44.0,1644586883.75,P03,D11,1,1,0
824,-46.0,-4.0,44.0,1644586883.78125,P03,D11,1,1,0
825,-46.0,-4.0,45.0,1644586883.8125,P03,D11,1,1,0
826,-46.0,-4.0,44.0,1644586883.84375,P03,D11,1,1,0
827,-46.0,-4.0,44.0,1644586883.875,P03,D11,1,1,0
828,-46.0,-4.0,44.0,1644586883.90625,P03,D11,1,1,0
829,-46.0,-4.0,44.0,1644586883.9375,P03,D11,1,1,0
830,-46.0,-4.0,44.0,1644586883.96875,P03,D11,1,1,0
831,-46.0,-4.0,44.0,1644586884.0,P03,D11,1,1,0
832,-46.0,-4.0,44.0,1644586884.03125,P03,D11,1,1,0
833,-46.0,-4.0,44.0,1644586884.0625,P03,D11,1,1,0
834,-46.0,-4.0,44.0,1644586884.09375,P03,D11,1,1,0
835,-46.0,-4.0,44.0,1644586884.125,P03,D11,1,1,0
836,-46.0,-4.0,44.0,1644586884.15625,P03,D11,1,1,0
837,-46.0,-4.0,44.0,1644586884.1875,P03,D11,1,1,0
838,-46.0,-4.0,44.0,1644586884.21875,P03,D11,1,1,0
839,-46.0,-4.0,44.0,1644586884.25,P03,D11,1,1,0
840,-46.0,-4.0,44.0,1644586884.28125,P03,D11,1,1,0
841,-46.0,-4.0,44.0,1644586884.3125,P03,D11,1,1,0
842,-46.0,-4.0,44.0,1644586884.34375,P03,D11,1,1,0
843,-46.0,-4.0,44.0,1644586884.375,P03,D11,1,1,0
844,-46.0,-4.0,44.0,1644586884.40625,P03,D11,1,1,0
845,-46.0,-4.0,44.0,1644586884.4375,P03,D11,1,1,0
846,-46.0,-4.0,44.0,1644586884.46875,P03,D11,1,1,0
847,-46.0,-4.0,44.0,1644586884.5,P03,D11,1,1,0
848,-46.0,-4.0,44.0,1644586884.53125,P03,D11,1,1,0
849,-46.0,-4.0,44.0,1644586884.5625,P03,D11,1,1,0
850,-46.0,-4.0,44.0,1644586884.59375,P03,D11,1,1,0
851,-46.0,-4.0,44.0,1644586884.625,P03,D11,1,1,0
852,-46.0,-4.0,44.0,1644586884.65625,P03,D11,1,1,0
853,-46.0,-4.0,44.0,1644586884.6875,P03,D11,1,1,0
854,-46.0,-4.0,44.0,1644586884.71875,P03,D11,1,1,0
855,-46.0,-4.0,44.0,1644586884.75,P03,D11,1,1,0
856,-46.0,-4.0,44.0,1644586884.78125,P03,D11,1,1,0
857,-46.0,-4.0,44.0,1644586884.8125,P03,D11,1,1,0
858,-46.0,-4.0,44.0,1644586884.84375,P03,D11,1,1,0
859,-46.0,-4.0,44.0,1644586884.875,P03,D11,1,1,0
860,-46.0,-4.0,44.0,1644586884.90625,P03,D11,1,1,0
861,-46.0,-4.0,44.0,1644586884.9375,P03,D11,1,1,0
862,-46.0,-4.0,44.0,1644586884.96875,P03,D11,1,1,0
863,-46.0,-4.0,44.0,1644586885.0,P03,D11,1,1,0
864,-46.0,-4.0,44.0,1644586885.03125,P03,D11,1,1,0
865,-46.0,-4.0,44.0,1644586885.0625,P03,D11,1,1,0
866,-46.0,-4.0,44.0,1644586885.09375,P03,D11,1,1,0
867,-46.0,-4.0,44.0,1644586885.125,P03,D11,1,1,0
868,-46.0,-4.0,44.0,1644586885.15625,P03,D11,1,1,0
869,-46.0,-4.0,44.0,1644586885.1875,P03,D11,1,1,0
870,-46.0,-4.0,44.0,1644586885.21875,P03,D11,1,1,0
871,-46.0,-4.0,44.0,1644586885.25,P03,D11,1,1,0
872,-46.0,-4.0,44.0,1644586885.28125,P03,D11,1,1,0
873,-46.0,-4.0,44.0,1644586885.3125,P03,D11,1,1,0
874,-46.0,-4.0,44.0,1644586885.34375,P03,D11,1,1,0
875,-46.0,-4.0,44.0,1644586885.375,P03,D11,1,1,0
876,-46.0,-4.0,44.0,1644586885.40625,P03,D11,1,1,0
877,-46.0,-4.0,44.0,1644586885.4375,P03,D11,1,1,0
878,-46.0,-4.0,44.0,1644586885.46875,P03,D11,1,1,0
879,-46.0,-4.0,44.0,1644586885.5,P03,D11,1,1,0
880,-46.0,-4.0,44.0,1644586885.53125,P03,D11,1,1,0
881,-46.0,-4.0,44.0,1644586885.5625,P03,D11,1,1,0
882,-46.0,-4.0,44.0,1644586885.59375,P03,D11,1,1,0
883,-46.0,-4.0,44.0,1644586885.625,P03,D11,1,1,0
884,-46.0,-4.0,44.0,1644586885.65625,P03,D11,1,1,0
885,-46.0,-4.0,44.0,1644586885.6875,P03,D11,1,1,0
886,-46.0,-4.0,44.0,1644586885.71875,P03,D11,1,1,0
887,-46.0,-4.0,44.0,1644586885.75,P03,D11,1,1,0
888,-46.0,-4.0,44.0,1644586885.78125,P03,D11,1,1,0
889,-46.0,-4.0,44.0,1644586885.8125,P03,D11,1,1,0
890,-46.0,-4.0,44.0,1644586885.84375,P03,D11,1,1,0
891,-46.0,-4.0,44.0,1644586885.875,P03,D11,1,1,0
892,-46.0,-4.0,44.0,1644586885.90625,P03,D11,1,1,0
893,-46.0,-4.0,44.0,1644586885.9375,P03,D11,1,1,0
894,-46.0,-4.0,44.0,1644586885.96875,P03,D11,1,1,0
895,-46.0,-4.0,44.0,1644586886.0,P03,D11,1,1,0
896,-46.0,-4.0,44.0,1644586886.03125,P03,D11,1,1,0
897,-46.0,-4.0,44.0,1644586886.0625,P03,D11,1,1,0
898,-46.0,-4.0,44.0,1644586886.09375,P03,D11,1,1,0
899,-46.0,-4.0,44.0,1644586886.125,P03,D11,1,1,0
900,-46.0,-4.0,44.0,1644586886.15625,P03,D11,1,1,0
901,-46.0,-4.0,44.0,1644586886.1875,P03,D11,1,1,0
902,-46.0,-4.0,44.0,1644586886.21875,P03,D11,1,1,0
903,-46.0,-4.0,44.0,1644586886.25,P03,D11,1,1,0
904,-46.0,-4.0,44.0,1644586886.28125,P03,D11,1,1,0
905,-46.0,-4.0,44.0,1644586886.3125,P03,D11,1,1,0
906,-46.0,-4.0,44.0,1644586886.34375,P03,D11,1,1,0
907,-46.0,-4.0,44.0,1644586886.375,P03,D11,1,1,0
908,-46.0,-4.0,44.0,1644586886.40625,P03,D11,1,1,0
909,-46.0,-4.0,44.0,1644586886.4375,P03,D11,1,1,0
910,-46.0,-4.0,44.0,1644586886.46875,P03,D11,1,1,0
911,-46.0,-4.0,44.0,1644586886.5,P03,D11,1,1,0
912,-46.0,-4.0,44.0,1644586886.53125,P03,D11,1,1,0
913,-46.0,-4.0,44.0,1644586886.5625,P03,D11,1,1,0
914,-46.0,-4.0,44.0,1644586886.59375,P03,D11,1,1,0
915,-46.0,-4.0,44.0,1644586886.625,P03,D11,1,1,0
916,-46.0,-4.0,44.0,1644586886.65625,P03,D11,1,1,0
917,-46.0,-4.0,44.0,1644586886.6875,P03,D11,1,1,0
918,-46.0,-4.0,44.0,1644586886.71875,P03,D11,1,1,0
919,-46.0,-4.0,44.0,1644586886.75,P03,D11,1,1,0
920,-46.0,-4.0,44.0,1644586886.78125,P03,D11,1,1,0
921,-46.0,-4.0,44.0,1644586886.8125,P03,D11,1,1,0
922,-46.0,-4.0,44.0,1644586886.84375,P03,D11,1,1,0
923,-46.0,-4.0,44.0,1644586886.875,P03,D11,1,1,0
924,-46.0,-4.0,44.0,1644586886.90625,P03,D11,1,1,0
925,-46.0,-4.0,44.0,1644586886.9375,P03,D11,1,1,0
926,-46.0,-4.0,44.0,1644586886.96875,P03,D11,1,1,0
927,-46.0,-4.0,44.0,1644586887.0,P03,D11,1,1,0
928,-46.0,-4.0,44.0,1644586887.03125,P03,D11,1,1,0
929,-46.0,-4.0,44.0,1644586887.0625,P03,D11,1,1,0
930,-46.0,-4.0,44.0,1644586887.09375,P03,D11,1,1,0
931,-46.0,-4.0,44.0,1644586887.125,P03,D11,1,1,0
932,-46.0,-4.0,44.0,1644586887.15625,P03,D11,1,1,0
933,-46.0,-4.0,44.0,1644586887.1875,P03,D11,1,1,0
934,-46.0,-4.0,44.0,1644586887.21875,P03,D11,1,1,0
935,-46.0,-4.0,44.0,1644586887.25,P03,D11,1,1,0
936,-46.0,-4.0,44.0,1644586887.28125,P03,D11,1,1,0
937,-46.0,-4.0,44.0,1644586887.3125,P03,D11,1,1,0
938,-46.0,-4.0,44.0,1644586887.34375,P03,D11,1,1,0
939,-46.0,-4.0,44.0,1644586887.375,P03,D11,1,1,0
940,-46.0,-4.0,44.0,1644586887.40625,P03,D11,1,1,0
941,-46.0,-4.0,44.0,1644586887.4375,P03,D11,1,1,0
942,-46.0,-4.0,44.0,1644586887.46875,P03,D11,1,1,0
943,-46.0,-4.0,44.0,1644586887.5,P03,D11,1,1,0
944,-46.0,-4.0,44.0,1644586887.53125,P03,D11,1,1,0
945,-46.0,-4.0,44.0,1644586887.5625,P03,D11,1,1,0
946,-46.0,-4.0,44.0,1644586887.59375,P03,D11,1,1,0
947,-46.0,-4.0,44.0,1644586887.625,P03,D11,1,1,0
948,-46.0,-4.0,44.0,1644586887.65625,P03,D11,1,1,0
949,-46.0,-4.0,44.0,1644586887.6875,P03,D11,1,1,0
950,-46.0,-4.0,44.0,1644586887.71875,P03,D11,1,1,0
951,-46.0,-4.0,44.0,1644586887.75,P03,D11,1,1,0
952,-46.0,-4.0,44.0,1644586887.78125,P03,D11,1,1,0
953,-46.0,-4.0,44.0,1644586887.8125,P03,D11,1,1,0
954,-46.0,-4.0,45.0,1644586887.84375,P03,D11,1,1,0
955,-46.0,-4.0,44.0,1644586887.875,P03,D11,1,1,0
956,-46.0,-4.0,44.0,1644586887.90625,P03,D11,1,1,0
957,-46.0,-4.0,44.0,1644586887.9375,P03,D11,1,1,0
958,-46.0,-4.0,44.0,1644586887.96875,P03,D11,1,1,0
959,-46.0,-4.0,44.0,1644586888.0,P03,D11,1,1,0
960,-46.0,-4.0,44.0,1644586888.03125,P03,D11,1,1,0
961,-46.0,-4.0,44.0,1644586888.0625,P03,D11,1,1,0
962,-46.0,-4.0,44.0,1644586888.09375,P03,D11,1,1,0
963,-46.0,-4.0,44.0,1644586888.125,P03,D11,1,1,0
964,-46.0,-4.0,44.0,1644586888.15625,P03,D11,1,1,0
965,-46.0,-4.0,44.0,1644586888.1875,P03,D11,1,1,0
966,-46.0,-4.0,44.0,1644586888.21875,P03,D11,1,1,0
967,-46.0,-4.0,44.0,1644586888.25,P03,D11,1,1,0
968,-46.0,-4.0,44.0,1644586888.28125,P03,D11,1,1,0
969,-46.0,-4.0,44.0,1644586888.3125,P03,D11,1,1,0
970,-46.0,-4.0,44.0,1644586888.34375,P03,D11,1,1,0
971,-46.0,-4.0,44.0,1644586888.375,P03,D11,1,1,0
972,-46.0,-4.0,44.0,1644586888.40625,P03,D11,1,1,0
973,-46.0,-4.0,44.0,1644586888.4375,P03,D11,1,1,0
974,-46.0,-4.0,44.0,1644586888.46875,P03,D11,1,1,0
975,-46.0,-4.0,44.0,1644586888.5,P03,D11,1,1,0
976,-46.0,-4.0,44.0,1644586888.53125,P03,D11,1,1,0
977,-46.0,-4.0,44.0,1644586888.5625,P03,D11,1,1,0
978,-46.0,-4.0,44.0,1644586888.59375,P03,D11,1,1,0
979,-46.0,-4.0,44.0,1644586888.625,P03,D11,1,1,0
980,-46.0,-4.0,44.0,1644586888.65625,P03,D11,1,1,0
981,-46.0,-4.0,44.0,1644586888.6875,P03,D11,1,1,0
982,-46.0,-4.0,44.0,1644586888.71875,P03,D11,1,1,0
983,-46.0,-4.0,45.0,1644586888.75,P03,D11,1,1,0
984,-46.0,-4.0,44.0,1644586888.78125,P03,D11,1,1,0
985,-46.0,-4.0,44.0,1644586888.8125,P03,D11,1,1,0
986,-46.0,-4.0,44.0,1644586888.84375,P03,D11,1,1,0
987,-46.0,-4.0,44.0,1644586888.875,P03,D11,1,1,0
988,-46.0,-4.0,44.0,1644586888.90625,P03,D11,1,1,0
989,-46.0,-4.0,44.0,1644586888.9375,P03,D11,1,1,0
990,-46.0,-4.0,44.0,1644586888.96875,P03,D11,1,1,0
991,-46.0,-4.0,44.0,1644586889.0,P03,D11,1,1,0
992,-46.0,-4.0,44.0,1644586889.03125,P03,D11,1,1,0
993,-46.0,-4.0,44.0,1644586889.0625,P03,D11,1,1,0
994,-46.0,-4.0,44.0,1644586889.09375,P03,D11,1,1,0
995,-46.0,-4.0,44.0,1644586889.125,P03,D11,1,1,0
996,-46.0,-4.0,44.0,1644586889.15625,P03,D11,1,1,0
997,-46.0,-4.0,44.0,1644586889.1875,P03,D11,1,1,0
998,-46.0,-4.0,44.0,1644586889.21875,P03,D11,1,1,0
999,-46.0,-4.0,44.0,1644586889.25,P03,D11,1,1,0
1000,-46.0,-4.0,44.0,1644586889.28125,P03,D11,1,1,0
1001,-46.0,-4.0,44.0,1644586889.3125,P03,D11,1,1,0
1002,-46.0,-4.0,44.0,1644586889.34375,P03,D11,1,1,0
1003,-46.0,-4.0,44.0,1644586889.375,P03,D11,1,1,0
1004,-46.0,-4.0,44.0,1644586889.40625,P03,D11,1,1,0
1005,-46.0,-4.0,44.0,1644586889.4375,P03,D11,1,1,0
1006,-46.0,-4.0,44.0,1644586889.46875,P03,D11,1,1,0
1007,-46.0,-4.0,44.0,1644586889.5,P03,D11,1,1,0
1008,-46.0,-4.0,44.0,1644586889.53125,P03,D11,1,1,0
1009,-46.0,-4.0,44.0,1644586889.5625,P03,D11,1,1,0
1010,-46.0,-4.0,44.0,1644586889.59375,P03,D11,1,1,0
1011,-46.0,-4.0,44.0,1644586889.625,P03,D11,1,1,0
1012,-46.0,-4.0,44.0,1644586889.65625,P03,D11,1,1,0
1013,-46.0,-4.0,44.0,1644586889.6875,P03,D11,1,1,0
1014,-46.0,-4.0,44.0,1644586889.71875,P03,D11,1,1,0
1015,-46.0,-4.0,44.0,1644586889.75,P03,D11,1,1,0
1016,-46.0,-4.0,44.0,1644586889.78125,P03,D11,1,1,0
1017,-46.0,-4.0,44.0,1644586889.8125,P03,D11,1,1,0
1018,-46.0,-4.0,44.0,1644586889.84375,P03,D11,1,1,0
1019,-46.0,-4.0,44.0,1644586889.875,P03,D11,1,1,0
1020,-46.0,-4.0,44.0,1644586889.90625,P03,D11,1,1,0
1021,-46.0,-4.0,44.0,1644586889.9375,P03,D11,1,1,0
1022,-46.0,-4.0,44.0,1644586889.96875,P03,D11,1,1,0
1023,-46.0,-4.0,44.0,1644586890.0,P03,D11,1,1,0
1024,-46.0,-4.0,44.0,1644586890.03125,P03,D11,1,1,0
1025,-46.0,-4.0,44.0,1644586890.0625,P03,D11,1,1,0
1026,-46.0,-4.0,44.0,1644586890.09375,P03,D11,1,1,0
1027,-46.0,-4.0,44.0,1644586890.125,P03,D11,1,1,0
1028,-46.0,-4.0,44.0,1644586890.15625,P03,D11,1,1,0
1029,-46.0,-4.0,44.0,1644586890.1875,P03,D11,1,1,0
1030,-46.0,-4.0,44.0,1644586890.21875,P03,D11,1,1,0
1031,-46.0,-4.0,44.0,1644586890.25,P03,D11,1,1,0
1032,-46.0,-4.0,44.0,1644586890.28125,P03,D11,1,1,0
1033,-46.0,-4.0,44.0,1644586890.3125,P03,D11,1,1,0
1034,-46.0,-4.0,44.0,1644586890.34375,P03,D11,1,1,0
1035,-46.0,-4.0,44.0,1644586890.375,P03,D11,1,1,0
1036,-46.0,-4.0,44.0,1644586890.40625,P03,D11,1,1,0
1037,-46.0,-4.0,44.0,1644586890.4375,P03,D11,1,1,0
1038,-46.0,-4.0,44.0,1644586890.46875,P03,D11,1,1,0
1039,-46.0,-4.0,44.0,1644586890.5,P03,D11,1,1,0
1040,-46.0,-4.0,44.0,1644586890.53125,P03,D11,1,1,0
1041,-46.0,-4.0,44.0,1644586890.5625,P03,D11,1,1,0
1042,-46.0,-4.0,44.0,1644586890.59375,P03,D11,1,1,0
1043,-46.0,-4.0,44.0,1644586890.625,P03,D11,1,1,0
1044,-46.0,-4.0,44.0,1644586890.65625,P03,D11,1,1,0
1045,-46.0,-4.0,44.0,1644586890.6875,P03,D11,1,1,0
1046,-46.0,-4.0,44.0,1644586890.71875,P03,D11,1,1,0
1047,-46.0,-4.0,44.0,1644586890.75,P03,D11,1,1,0
1048,-46.0,-4.0,44.0,1644586890.78125,P03,D11,1,1,0
1049,-46.0,-4.0,44.0,1644586890.8125,P03,D11,1,1,0
1050,-46.0,-4.0,44.0,1644586890.84375,P03,D11,1,1,0
1051,-46.0,-4.0,44.0,1644586890.875,P03,D11,1,1,0
1052,-47.0,-4.0,44.0,1644586890.90625,P03,D11,1,1,0
1053,-46.0,-4.0,44.0,1644586890.9375,P03,D11,1,1,0
1054,-46.0,-4.0,44.0,1644586890.96875,P03,D11,1,1,0
1055,-47.0,-4.0,44.0,1644586891.0,P03,D11,1,1,0
1056,-47.0,-4.0,44.0,1644586891.03125,P03,D11,1,1,0
1057,-46.0,-4.0,44.0,1644586891.0625,P03,D11,1,1,0
1058,-46.0,-4.0,44.0,1644586891.09375,P03,D11,1,1,0
1059,-46.0,-4.0,44.0,1644586891.125,P03,D11,1,1,0
1060,-46.0,-4.0,44.0,1644586891.15625,P03,D11,1,1,0
1061,-46.0,-4.0,44.0,1644586891.1875,P03,D11,1,1,0
1062,-46.0,-4.0,44.0,1644586891.21875,P03,D11,1,1,0
1063,-47.0,-4.0,43.0,1644586891.25,P03,D11,1,1,0
1064,-47.0,-4.0,44.0,1644586891.28125,P03,D11,1,1,0
1065,-46.0,-4.0,44.0,1644586891.3125,P03,D11,1,1,0
1066,-46.0,-4.0,44.0,1644586891.34375,P03,D11,1,1,0
1067,-46.0,-4.0,44.0,1644586891.375,P03,D11,1,1,0
1068,-47.0,-4.0,44.0,1644586891.40625,P03,D11,1,1,0
1069,-47.0,-4.0,44.0,1644586891.4375,P03,D11,1,1,0
1070,-46.0,-4.0,43.0,1644586891.46875,P03,D11,1,1,0
1071,-46.0,-4.0,44.0,1644586891.5,P03,D11,1,1,0
1072,-46.0,-4.0,44.0,1644586891.53125,P03,D11,1,1,0
1073,-47.0,-4.0,44.0,1644586891.5625,P03,D11,1,1,0
1074,-46.0,-4.0,43.0,1644586891.59375,P03,D11,1,1,0
1075,-47.0,-4.0,44.0,1644586891.625,P03,D11,1,1,0
1076,-46.0,-4.0,43.0,1644586891.65625,P03,D11,1,1,0
1077,-46.0,-4.0,44.0,1644586891.6875,P03,D11,1,1,0
1078,-46.0,-4.0,44.0,1644586891.71875,P03,D11,1,1,0
1079,-46.0,-4.0,44.0,1644586891.75,P03,D11,1,1,0
1080,-46.0,-4.0,43.0,1644586891.78125,P03,D11,1,1,0
1081,-46.0,-4.0,44.0,1644586891.8125,P03,D11,1,1,0
1082,-46.0,-4.0,44.0,1644586891.84375,P03,D11,1,1,0
1083,-47.0,-4.0,43.0,1644586891.875,P03,D11,1,1,0
1084,-46.0,-4.0,43.0,1644586891.90625,P03,D11,1,1,0
1085,-46.0,-4.0,44.0,1644586891.9375,P03,D11,1,1,0
1086,-46.0,-4.0,44.0,1644586891.96875,P03,D11,1,1,0
1087,-46.0,-4.0,43.0,1644586892.0,P03,D11,1,1,0
1088,-47.0,-4.0,44.0,1644586892.03125,P03,D11,1,1,0
1089,-46.0,-4.0,44.0,1644586892.0625,P03,D11,1,1,0
1090,-47.0,-4.0,43.0,1644586892.09375,P03,D11,1,1,0
1091,-47.0,-4.0,44.0,1644586892.125,P03,D11,1,1,0
1092,-47.0,-4.0,43.0,1644586892.15625,P03,D11,1,1,0
1093,-47.0,-4.0,43.0,1644586892.1875,P03,D11,1,1,0
1094,-46.0,-4.0,43.0,1644586892.21875,P03,D11,1,1,0
1095,-46.0,-4.0,43.0,1644586892.25,P03,D11,1,1,0
1096,-47.0,-4.0,43.0,1644586892.28125,P03,D11,1,1,0
1097,-47.0,-4.0,44.0,1644586892.3125,P03,D11,1,1,0
1098,-47.0,-4.0,43.0,1644586892.34375,P03,D11,1,1,0
1099,-47.0,-4.0,43.0,1644586892.375,P03,D11,1,1,0
1100,-47.0,-4.0,43.0,1644586892.40625,P03,D11,1,1,0
1101,-47.0,-4.0,43.0,1644586892.4375,P03,D11,1,1,0
1102,-47.0,-4.0,43.0,1644586892.46875,P03,D11,1,1,0
1103,-47.0,-4.0,43.0,1644586892.5,P03,D11,1,1,0
1104,-47.0,-4.0,43.0,1644586892.53125,P03,D11,1,1,0
1105,-47.0,-4.0,43.0,1644586892.5625,P03,D11,1,1,0
1106,-47.0,-4.0,43.0,1644586892.59375,P03,D11,1,1,0
1107,-47.0,-4.0,44.0,1644586892.625,P03,D11,1,1,0
1108,-47.0,-4.0,43.0,1644586892.65625,P03,D11,1,1,0
1109,-47.0,-4.0,43.0,1644586892.6875,P03,D11,1,1,0
1110,-47.0,-3.0,44.0,1644586892.71875,P03,D11,1,1,0
1111,-47.0,-4.0,43.0,1644586892.75,P03,D11,1,1,0
1112,-47.0,-4.0,43.0,1644586892.78125,P03,D11,1,1,0
1113,-47.0,-4.0,43.0,1644586892.8125,P03,D11,1,1,0
1114,-47.0,-4.0,43.0,1644586892.84375,P03,D11,1,1,0
1115,-47.0,-4.0,43.0,1644586892.875,P03,D11,1,1,0
1116,-47.0,-4.0,43.0,1644586892.90625,P03,D11,1,1,0
1117,-47.0,-4.0,43.0,1644586892.9375,P03,D11,1,1,0
1118,-47.0,-4.0,43.0,1644586892.96875,P03,D11,1,1,0
1119,-47.0,-4.0,43.0,1644586893.0,P03,D11,1,1,0
1120,-46.0,-4.0,43.0,1644586893.03125,P03,D11,1,1,0
1121,-46.0,-4.0,43.0,1644586893.0625,P03,D11,1,1,0
1122,-47.0,-4.0,43.0,1644586893.09375,P03,D11,1,1,0
1123,-46.0,-4.0,44.0,1644586893.125,P03,D11,1,1,0
1124,-47.0,-4.0,43.0,1644586893.15625,P03,D11,1,1,0
1125,-47.0,-4.0,43.0,1644586893.1875,P03,D11,1,1,0
1126,-47.0,-3.0,43.0,1644586893.21875,P03,D11,1,1,0
1127,-47.0,-4.0,43.0,1644586893.25,P03,D11,1,1,0
1128,-46.0,-4.0,43.0,1644586893.28125,P03,D11,1,1,0
1129,-47.0,-4.0,43.0,1644586893.3125,P03,D11,1,1,0
1130,-47.0,-4.0,43.0,1644586893.34375,P03,D11,1,1,0
1131,-47.0,-4.0,43.0,1644586893.375,P03,D11,1,1,0
1132,-47.0,-4.0,43.0,1644586893.40625,P03,D11,1,1,0
1133,-47.0,-4.0,43.0,1644586893.4375,P03,D11,1,1,0
1134,-47.0,-4.0,43.0,1644586893.46875,P03,D11,1,1,0
1135,-47.0,-4.0,43.0,1644586893.5,P03,D11,1,1,0
1136,-47.0,-4.0,43.0,1644586893.53125,P03,D11,1,1,0
1137,-47.0,-4.0,43.0,1644586893.5625,P03,D11,1,1,0
1138,-47.0,-4.0,43.0,1644586893.59375,P03,D11,1,1,0
1139,-47.0,-4.0,44.0,1644586893.625,P03,D11,1,1,0
1140,-47.0,-4.0,43.0,1644586893.65625,P03,D11,1,1,0
1141,-47.0,-4.0,43.0,1644586893.6875,P03,D11,1,1,0
1142,-47.0,-4.0,43.0,1644586893.71875,P03,D11,1,1,0
1143,-46.0,-4.0,44.0,1644586893.75,P03,D11,1,1,0
1144,-47.0,-4.0,43.0,1644586893.78125,P03,D11,1,1,0
1145,-47.0,-4.0,43.0,1644586893.8125,P03,D11,1,1,0
1146,-46.0,-4.0,44.0,1644586893.84375,P03,D11,1,1,0
1147,-47.0,-4.0,43.0,1644586893.875,P03,D11,1,1,0
1148,-46.0,-4.0,43.0,1644586893.90625,P03,D11,1,1,0
1149,-47.0,-4.0,43.0,1644586893.9375,P03,D11,1,1,0
1150,-47.0,-4.0,43.0,1644586893.96875,P03,D11,1,1,0
1151,-47.0,-4.0,43.0,1644586894.0,P03,D11,1,1,0
1152,-47.0,-4.0,43.0,1644586894.03125,P03,D11,1,1,0
1153,-47.0,-4.0,43.0,1644586894.0625,P03,D11,1,1,0
1154,-47.0,-4.0,44.0,1644586894.09375,P03,D11,1,1,0
1155,-46.0,-4.0,44.0,1644586894.125,P03,D11,1,1,0
1156,-47.0,-4.0,43.0,1644586894.15625,P03,D11,1,1,0
1157,-47.0,-4.0,43.0,1644586894.1875,P03,D11,1,1,0
1158,-46.0,-4.0,43.0,1644586894.21875,P03,D11,1,1,0
1159,-47.0,-4.0,43.0,1644586894.25,P03,D11,1,1,0
1160,-47.0,-4.0,43.0,1644586894.28125,P03,D11,1,1,0
1161,-46.0,-4.0,43.0,1644586894.3125,P03,D11,1,1,0
1162,-46.0,-4.0,44.0,1644586894.34375,P03,D11,1,1,0
1163,-47.0,-4.0,43.0,1644586894.375,P03,D11,1,1,0
1164,-46.0,-4.0,44.0,1644586894.40625,P03,D11,1,1,0
1165,-46.0,-4.0,44.0,1644586894.4375,P03,D11,1,1,0
1166,-47.0,-4.0,43.0,1644586894.46875,P03,D11,1,1,0
1167,-47.0,-4.0,44.0,1644586894.5,P03,D11,1,1,0
1168,-46.0,-4.0,43.0,1644586894.53125,P03,D11,1,1,0
1169,-47.0,-4.0,44.0,1644586894.5625,P03,D11,1,1,0
1170,-47.0,-4.0,44.0,1644586894.59375,P03,D11,1,1,0
1171,-47.0,-4.0,43.0,1644586894.625,P03,D11,1,1,0
1172,-46.0,-4.0,44.0,1644586894.65625,P03,D11,1,1,0
1173,-47.0,-4.0,43.0,1644586894.6875,P03,D11,1,1,0
1174,-47.0,-4.0,43.0,1644586894.71875,P03,D11,1,1,0
1175,-46.0,-4.0,44.0,1644586894.75,P03,D11,1,1,0
1176,-47.0,-4.0,43.0,1644586894.78125,P03,D11,1,1,0
1177,-46.0,-4.0,44.0,1644586894.8125,P03,D11,1,1,0
1178,-47.0,-4.0,44.0,1644586894.84375,P03,D11,1,1,0
1179,-46.0,-4.0,44.0,1644586894.875,P03,D11,1,1,0
1180,-46.0,-4.0,43.0,1644586894.90625,P03,D11,1,1,0
1181,-47.0,-4.0,44.0,1644586894.9375,P03,D11,1,1,0
1182,-46.0,-4.0,44.0,1644586894.96875,P03,D11,1,1,0
1183,-46.0,-4.0,44.0,1644586895.0,P03,D11,1,1,0
1184,-47.0,-4.0,44.0,1644586895.03125,P03,D11,1,1,0
1185,-46.0,-4.0,43.0,1644586895.0625,P03,D11,1,1,0
1186,-46.0,-4.0,44.0,1644586895.09375,P03,D11,1,1,0
1187,-46.0,-4.0,44.0,1644586895.125,P03,D11,1,1,0
1188,-47.0,-4.0,44.0,1644586895.15625,P03,D11,1,1,0
1189,-46.0,-4.0,43.0,1644586895.1875,P03,D11,1,1,0
1190,-47.0,-4.0,44.0,1644586895.21875,P03,D11,1,1,0
1191,-46.0,-4.0,44.0,1644586895.25,P03,D11,1,1,0
1192,-46.0,-4.0,44.0,1644586895.28125,P03,D11,1,1,0
1193,-46.0,-4.0,44.0,1644586895.3125,P03,D11,1,1,0
1194,-46.0,-4.0,44.0,1644586895.34375,P03,D11,1,1,0
1195,-46.0,-4.0,44.0,1644586895.375,P03,D11,1,1,0
1196,-46.0,-4.0,44.0,1644586895.40625,P03,D11,1,1,0
1197,-46.0,-4.0,44.0,1644586895.4375,P03,D11,1,1,0
1198,-46.0,-4.0,44.0,1644586895.46875,P03,D11,1,1,0
1199,-46.0,-4.0,44.0,1644586895.5,P03,D11,1,1,0
1200,-46.0,-4.0,44.0,1644586895.53125,P03,D11,1,1,0
1201,-46.0,-4.0,44.0,1644586895.5625,P03,D11,1,1,0
1202,-46.0,-4.0,44.0,1644586895.59375,P03,D11,1,1,0
1203,-46.0,-4.0,44.0,1644586895.625,P03,D11,1,1,0
1204,-46.0,-4.0,44.0,1644586895.65625,P03,D11,1,1,0
1205,-46.0,-4.0,44.0,1644586895.6875,P03,D11,1,1,0
1206,-46.0,-4.0,44.0,1644586895.71875,P03,D11,1,1,0
1207,-46.0,-4.0,44.0,1644586895.75,P03,D11,1,1,0
1208,-47.0,-4.0,44.0,1644586895.78125,P03,D11,1,1,0
1209,-46.0,-4.0,44.0,1644586895.8125,P03,D11,1,1,0
1210,-46.0,-4.0,44.0,1644586895.84375,P03,D11,1,1,0
