,acc_x,acc_y,acc_z,timestamp,participant,document,val,arou,eng
0,-8.0,1.0,62.0,1644584709.75,P03,D02,1,1,1
1,-7.0,1.0,62.0,1644584709.78125,P03,D02,1,1,1
2,-8.0,0.0,62.0,1644584709.8125,P03,D02,1,1,1
3,-8.0,0.0,62.0,1644584709.84375,P03,D02,1,1,1
4,-8.0,0.0,62.0,1644584709.875,P03,D02,1,1,1
5,-7.0,1.0,62.0,1644584709.90625,P03,D02,1,1,1
6,-7.0,1.0,62.0,1644584709.9375,P03,D02,1,1,1
7,-8.0,0.0,62.0,1644584709.96875,P03,D02,1,1,1
8,-8.0,0.0,62.0,1644584710.0,P03,D02,1,1,1
9,-7.0,0.0,62.0,1644584710.03125,P03,D02,1,1,1
10,-8.0,1.0,62.0,1644584710.0625,P03,D02,1,1,1
11,-8.0,0.0,62.0,1644584710.09375,P03,D02,1,1,1
12,-7.0,1.0,62.0,1644584710.125,P03,D02,1,1,1
13,-8.0,1.0,62.0,1644584710.15625,P03,D02,1,1,1
14,-8.0,1.0,62.0,1644584710.1875,P03,D02,1,1,1
15,-7.0,0.0,62.0,1644584710.21875,P03,D02,1,1,1
16,-7.0,0.0,62.0,1644584710.25,P03,D02,1,1,1
17,-8.0,1.0,62.0,1644584710.28125,P03,D02,1,1,1
18,-8.0,0.0,62.0,1644584710.3125,P03,D02,1,1,1
19,-8.0,0.0,62.0,1644584710.34375,P03,D02,1,1,1
20,-8.0,0.0,62.0,1644584710.375,P03,D02,1,1,1
21,-7.0,1.0,62.0,1644584710.40625,P03,D02,1,1,1
22,-8.0,0.0,62.0,1644584710.4375,P03,D02,1,1,1
23,-7.0,0.0,62.0,1644584710.46875,P03,D02,1,1,1
24,-8.0,1.0,62.0,1644584710.5,P03,D02,1,1,1
25,-8.0,1.0,62.0,1644584710.53125,P03,D02,1,1,1
26,-8.0,0.0,62.0,1644584710.5625,P03,D02,1,1,1
27,-8.0,0.0,62.0,1644584710.59375,P03,D02,1,1,1
28,-7.0,1.0,62.0,1644584710.625,P03,D02,1,1,1
29,-7.0,1.0,62.0,1644584710.65625,P03,D02,1,1,1
30,-8.0,0.0,62.0,1644584710.6875,P03,D02,1,1,1
31,-8.0,0.0,62.0,1644584710.71875,P03,D02,1,1,1
32,-7.0,0.0,62.0,1644584710.75,P03,D02,1,1,1
33,-8.0,1.0,62.0,1644584710.78125,P03,D02,1,1,1
34,-7.0,0.0,62.0,1644584710.8125,P03,D02,1,1,1
35,-8.0,0.0,62.0,1644584710.84375,P03,D02,1,1,1
36,-8.0,1.0,62.0,1644584710.875,P03,D02,1,1,1
37,-7.0,1.0,62.0,1644584710.90625,P03,D02,1,1,1
38,-7.0,0.0,62.0,1644584710.9375,P03,D02,1,1,1
39,-8.0,1.0,62.0,1644584710.96875,P03,D02,1,1,1
40,-8.0,0.0,62.0,1644584711.0,P03,D02,1,1,1
41,-7.0,1.0,62.0,1644584711.03125,P03,D02,1,1,1
42,-8.0,0.0,62.0,1644584711.0625,P03,D02,1,1,1
43,-8.0,1.0,62.0,1644584711.09375,P03,D02,1,1,1
44,-7.0,1.0,62.0,1644584711.125,P03,D02,1,1,1
45,-8.0,1.0,62.0,1644584711.15625,P03,D02,1,1,1
46,-8.0,0.0,62.0,1644584711.1875,P03,D02,1,1,1
47,-8.0,1.0,62.0,1644584711.21875,P03,D02,1,1,1
48,-8.0,1.0,62.0,1644584711.25,P03,D02,1,1,1
49,-7.0,1.0,62.0,1644584711.28125,P03,D02,1,1,1
50,-8.0,0.0,62.0,1644584711.3125,P03,D02,1,1,1
51,-8.0,0.0,62.0,1644584711.34375,P03,D02,1,1,1
52,-7.0,1.0,62.0,1644584711.375,P03,D02,1,1,1
53,-7.0,1.0,62.0,1644584711.40625,P03,D02,1,1,1
54,-7.0,1.0,62.0,1644584711.4375,P03,D02,1,1,1
55,-9.0,-1.0,62.0,1644584711.46875,P03,D02,1,1,1
56,-8.0,1.0,62.0,1644584711.5,P03,D02,1,1,1
57,-7.0,1.0,62.0,1644584711.53125,P03,D02,1,1,1
58,-8.0,0.0,62.0,1644584711.5625,P03,D02,1,1,1
59,-8.0,1.0,62.0,1644584711.59375,P03,D02,1,1,1
60,-7.0,1.0,62.0,1644584711.625,P03,D02,1,1,1
61,-7.0,1.0,62.0,1644584711.65625,P03,D02,1,1,1
62,-7.0,0.0,62.0,1644584711.6875,P03,D02,1,1,1
63,-8.0,1.0,62.0,1644584711.71875,P03,D02,1,1,1
64,-7.0,1.0,62.0,1644584711.75,P03,D02,1,1,1
65,-8.0,1.0,62.0,1644584711.78125,P03,D02,1,1,1
66,-8.0,1.0,62.0,1644584711.8125,P03,D02,1,1,1
67,-7.0,1.0,62.0,1644584711.84375,P03,D02,1,1,1
68,-7.0,1.0,62.0,1644584711.875,P03,D02,1,1,1
69,-8.0,0.0,62.0,1644584711.90625,P03,D02,1,1,1
70,-7.0,1.0,62.0,1644584711.9375,P03,D02,1,1,1
71,-7.0,1.0,62.0,1644584711.96875,P03,D02,1,1,1
72,-8.0,1.0,62.0,1644584712.0,P03,D02,1,1,1
73,-8.0,0.0,62.0,1644584712.03125,P03,D02,1,1,1
74,-8.0,1.0,62.0,1644584712.0625,P03,D02,1,1,1
75,-7.0,1.0,62.0,1644584712.09375,P03,D02,1,1,1
76,-8.0,1.0,62.0,1644584712.125,P03,D02,1,1,1
77,-8.0,0.0,62.0,1644584712.15625,P03,D02,1,1,1
78,-8.0,1.0,62.0,1644584712.1875,P03,D02,1,1,1
79,-8.0,1.0,62.0,1644584712.21875,P03,D02,1,1,1
80,-8.0,1.0,62.0,1644584712.25,P03,D02,1,1,1
81,-7.0,1.0,62.0,1644584712.28125,P03,D02,1,1,1
82,-8.0,1.0,62.0,1644584712.3125,P03,D02,1,1,1
83,-9.0,0.0,62.0,1644584712.34375,P03,D02,1,1,1
84,-8.0,1.0,62.0,1644584712.375,P03,D02,1,1,1
85,-8.0,1.0,62.0,1644584712.40625,P03,D02,1,1,1
86,-8.0,1.0,62.0,1644584712.4375,P03,D02,1,1,1
87,-8.0,1.0,62.0,1644584712.46875,P03,D02,1,1,1
88,-8.0,1.0,62.0,1644584712.5,P03,D02,1,1,1
89,-8.0,1.0,62.0,1644584712.53125,P03,D02,1,1,1
90,-8.0,1.0,62.0,1644584712.5625,P03,D02,1,1,1
91,-8.0,1.0,62.0,1644584712.59375,P03,D02,1,1,1
92,-7.0,1.0,62.0,1644584712.625,P03,D02,1,1,1
93,-8.0,1.0,62.0,1644584712.65625,P03,D02,1,1,1
94,-8.0,0.0,62.0,1644584712.6875,P03,D02,1,1,1
95,-8.0,1.0,62.0,1644584712.71875,P03,D02,1,1,1
96,-8.0,1.0,62.0,1644584712.75,P03,D02,1,1,1
97,-8.0,1.0,62.0,1644584712.78125,P03,D02,1,1,1
98,-8.0,1.0,62.0,1644584712.8125,P03,D02,1,1,1
99,-9.0,1.0,62.0,1644584712.84375,P03,D02,1,1,1
100,-8.0,1.0,62.0,1644584712.875,P03,D02,1,1,1
101,-8.0,1.0,62.0,1644584712.90625,P03,D02,1,1,1
102,-9.0,1.0,62.0,1644584712.9375,P03,D02,1,1,1
103,-8.0,0.0,61.0,1644584712.96875,P03,D02,1,1,1
104,-7.0,1.0,62.0,1644584713.0,P03,D02,1,1,1
105,-8.0,1.0,62.0,1644584713.03125,P03,D02,1,1,1
106,-8.0,0.0,62.0,1644584713.0625,P03,D02,1,1,1
107,-8.0,1.0,62.0,1644584713.09375,P03,D02,1,1,1
108,-8.0,1.0,62.0,1644584713.125,P03,D02,1,1,1
109,-8.0,1.0,62.0,1644584713.15625,P03,D02,1,1,1
110,-8.0,1.0,62.0,1644584713.1875,P03,D02,1,1,1
111,-8.0,0.0,62.0,1644584713.21875,P03,D02,1,1,1
112,-8.0,0.0,62.0,1644584713.25,P03,D02,1,1,1
113,-8.0,1.0,62.0,1644584713.28125,P03,D02,1,1,1
114,-8.0,1.0,62.0,1644584713.3125,P03,D02,1,1,1
115,-8.0,1.0,62.0,1644584713.34375,P03,D02,1,1,1
116,-8.0,1.0,62.0,1644584713.375,P03,D02,1,1,1
117,-8.0,1.0,62.0,1644584713.40625,P03,D02,1,1,1
118,-8.0,1.0,62.0,1644584713.4375,P03,D02,1,1,1
119,-8.0,1.0,62.0,1644584713.46875,P03,D02,1,1,1
120,-8.0,1.0,62.0,1644584713.5,P03,D02,1,1,1
121,-8.0,1.0,62.0,1644584713.53125,P03,D02,1,1,1
122,-8.0,1.0,62.0,1644584713.5625,P03,D02,1,1,1
123,-8.0,1.0,62.0,1644584713.59375,P03,D02,1,1,1
124,-8.0,1.0,62.0,1644584713.625,P03,D02,1,1,1
125,-8.0,0.0,62.0,1644584713.65625,P03,D02,1,1,1
126,-8.0,1.0,62.0,1644584713.6875,P03,D02,1,1,1
127,-8.0,1.0,62.0,1644584713.71875,P03,D02,1,1,1
128,-8.0,1.0,62.0,1644584713.75,P03,D02,1,1,1
129,-8.0,1.0,62.0,1644584713.78125,P03,D02,1,1,1
130,-8.0,1.0,62.0,1644584713.8125,P03,D02,1,1,1
131,-8.0,1.0,62.0,1644584713.84375,P03,D02,1,1,1
132,-8.0,1.0,62.0,1644584713.875,P03,D02,1,1,1
133,-8.0,1.0,62.0,1644584713.90625,P03,D02,1,1,1
134,-8.0,1.0,62.0,1644584713.9375,P03,D02,1,1,1
135,-8.0,1.0,62.0,1644584713.96875,P03,D02,1,1,1
136,-8.0,1.0,62.0,1644584714.0,P03,D02,1,1,1
137,-8.0,1.0,62.0,1644584714.03125,P03,D02,1,1,1
138,-8.0,1.0,62.0,1644584714.0625,P03,D02,1,1,1
139,-8.0,0.0,62.0,1644584714.09375,P03,D02,1,1,1
140,-8.0,1.0,62.0,1644584714.125,P03,D02,1,1,1
141,-8.0,1.0,62.0,1644584714.15625,P03,D02,1,1,1
142,-8.0,0.0,62.0,1644584714.1875,P03,D02,1,1,1
143,-8.0,1.0,62.0,1644584714.21875,P03,D02,1,1,1
144,-8.0,1.0,62.0,1644584714.25,P03,D02,1,1,1
145,-8.0,1.0,62.0,1644584714.28125,P03,D02,1,1,1
146,-7.0,1.0,62.0,1644584714.3125,P03,D02,1,1,1
147,-8.0,0.0,62.0,1644584714.34375,P03,D02,1,1,1
148,-8.0,0.0,62.0,1644584714.375,P03,D02,1,1,1
149,-8.0,0.0,62.0,1644584714.40625,P03,D02,1,1,1
150,-7.0,0.0,62.0,1644584714.4375,P03,D02,1,1,1
151,-8.0,1.0,62.0,1644584714.46875,P03,D02,1,1,1
152,-8.0,0.0,62.0,1644584714.5,P03,D02,1,1,1
153,-7.0,1.0,62.0,1644584714.53125,P03,D02,1,1,1
154,-8.0,1.0,62.0,1644584714.5625,P03,D02,1,1,1
155,-8.0,0.0,62.0,1644584714.59375,P03,D02,1,1,1
156,-7.0,1.0,62.0,1644584714.625,P03,D02,1,1,1
157,-8.0,1.0,62.0,1644584714.65625,P03,D02,1,1,1
158,-7.0,0.0,62.0,1644584714.6875,P03,D02,1,1,1
159,-8.0,1.0,62.0,1644584714.71875,P03,D02,1,1,1
160,-8.0,1.0,62.0,1644584714.75,P03,D02,1,1,1
161,-7.0,1.0,62.0,1644584714.78125,P03,D02,1,1,1
162,-8.0,1.0,62.0,1644584714.8125,P03,D02,1,1,1
163,-8.0,1.0,62.0,1644584714.84375,P03,D02,1,1,1
164,-8.0,0.0,62.0,1644584714.875,P03,D02,1,1,1
165,-7.0,1.0,62.0,1644584714.90625,P03,D02,1,1,1
166,-8.0,1.0,62.0,1644584714.9375,P03,D02,1,1,1
167,-8.0,1.0,62.0,1644584714.96875,P03,D02,1,1,1
168,-8.0,0.0,62.0,1644584715.0,P03,D02,1,1,1
169,-8.0,1.0,62.0,1644584715.03125,P03,D02,1,1,1
170,-7.0,1.0,62.0,1644584715.0625,P03,D02,1,1,1
171,-8.0,1.0,62.0,1644584715.09375,P03,D02,1,1,1
172,-7.0,0.0,62.0,1644584715.125,P03,D02,1,1,1
173,-7.0,1.0,62.0,1644584715.15625,P03,D02,1,1,1
174,-7.0,1.0,62.0,1644584715.1875,P03,D02,1,1,1
175,-7.0,1.0,62.0,1644584715.21875,P03,D02,1,1,1
176,-8.0,1.0,62.0,1644584715.25,P03,D02,1,1,1
177,-8.0,1.0,62.0,1644584715.28125,P03,D02,1,1,1
178,-7.0,1.0,62.0,1644584715.3125,P03,D02,1,1,1
179,-8.0,1.0,62.0,1644584715.34375,P03,D02,1,1,1
180,-8.0,1.0,62.0,1644584715.375,P03,D02,1,1,1
181,-8.0,0.0,62.0,1644584715.40625,P03,D02,1,1,1
182,-8.0,0.0,62.0,1644584715.4375,P03,D02,1,1,1
183,-7.0,0.0,62.0,1644584715.46875,P03,D02,1,1,1
184,-8.0,1.0,62.0,1644584715.5,P03,D02,1,1,1
185,-8.0,1.0,62.0,1644584715.53125,P03,D02,1,1,1
186,-7.0,1.0,62.0,1644584715.5625,P03,D02,1,1,1
187,-7.0,1.0,62.0,1644584715.59375,P03,D02,1,1,1
188,-8.0,1.0,62.0,1644584715.625,P03,D02,1,1,1
189,-8.0,1.0,62.0,1644584715.65625,P03,D02,1,1,1
190,-7.0,1.0,62.0,1644584715.6875,P03,D02,1,1,1
191,-7.0,1.0,62.0,1644584715.71875,P03,D02,1,1,1
192,-8.0,0.0,62.0,1644584715.75,P03,D02,1,1,1
193,-8.0,1.0,62.0,1644584715.78125,P03,D02,1,1,1
194,-7.0,1.0,62.0,1644584715.8125,P03,D02,1,1,1
195,-8.0,0.0,62.0,1644584715.84375,P03,D02,1,1,1
196,-8.0,0.0,62.0,1644584715.875,P03,D02,1,1,1
197,-8.0,1.0,61.0,1644584715.90625,P03,D02,1,1,1
198,-9.0,0.0,62.0,1644584715.9375,P03,D02,1,1,1
199,-6.0,0.0,62.0,1644584715.96875,P03,D02,1,1,1
200,-7.0,1.0,62.0,1644584716.0,P03,D02,1,1,1
201,-8.0,0.0,62.0,1644584716.03125,P03,D02,1,1,1
202,-8.0,1.0,62.0,1644584716.0625,P03,D02,1,1,1
203,-7.0,1.0,62.0,1644584716.09375,P03,D02,1,1,1
204,-7.0,0.0,62.0,1644584716.125,P03,D02,1,1,1
205,-8.0,1.0,62.0,1644584716.15625,P03,D02,1,1,1
206,-8.0,1.0,62.0,1644584716.1875,P03,D02,1,1,1
207,-7.0,1.0,62.0,1644584716.21875,P03,D02,1,1,1
208,-7.0,1.0,62.0,1644584716.25,P03,D02,1,1,1
209,-8.0,1.0,62.0,1644584716.28125,P03,D02,1,1,1
210,-7.0,1.0,62.0,1644584716.3125,P03,D02,1,1,1
211,-7.0,1.0,62.0,1644584716.34375,P03,D02,1,1,1
212,-8.0,1.0,62.0,1644584716.375,P03,D02,1,1,1
213,-8.0,1.0,62.0,1644584716.40625,P03,D02,1,1,1
214,-8.0,1.0,62.0,1644584716.4375,P03,D02,1,1,1
215,-7.0,1.0,62.0,1644584716.46875,P03,D02,1,1,1
216,-7.0,1.0,62.0,1644584716.5,P03,D02,1,1,1
217,-8.0,1.0,62.0,1644584716.53125,P03,D02,1,1,1
218,-8.0,1.0,62.0,1644584716.5625,P03,D02,1,1,1
219,-8.0,1.0,62.0,1644584716.59375,P03,D02,1,1,1
220,-7.0,1.0,62.0,1644584716.625,P03,D02,1,1,1
221,-7.0,1.0,62.0,1644584716.65625,P03,D02,1,1,1
222,-7.0,0.0,61.0,1644584716.6875,P03,D02,1,1,1
223,-8.0,1.0,62.0,1644584716.71875,P03,D02,1,1,1
224,-8.0,0.0,62.0,1644584716.75,P03,D02,1,1,1
225,-7.0,1.0,62.0,1644584716.78125,P03,D02,1,1,1
226,-7.0,1.0,62.0,1644584716.8125,P03,D02,1,1,1
227,-8.0,1.0,62.0,1644584716.84375,P03,D02,1,1,1
228,-8.0,0.0,62.0,1644584716.875,P03,D02,1,1,1
229,-7.0,1.0,62.0,1644584716.90625,P03,D02,1,1,1
230,-7.0,0.0,62.0,1644584716.9375,P03,D02,1,1,1
231,-7.0,1.0,62.0,1644584716.96875,P03,D02,1,1,1
232,-7.0,0.0,62.0,1644584717.0,P03,D02,1,1,1
233,-8.0,1.0,62.0,1644584717.03125,P03,D02,1,1,1
234,-8.0,0.0,62.0,1644584717.0625,P03,D02,1,1,1
235,-8.0,0.0,62.0,1644584717.09375,P03,D02,1,1,1
236,-8.0,1.0,62.0,1644584717.125,P03,D02,1,1,1
237,-8.0,1.0,62.0,1644584717.15625,P03,D02,1,1,1
238,-8.0,1.0,62.0,1644584717.1875,P03,D02,1,1,1
239,-8.0,1.0,62.0,1644584717.21875,P03,D02,1,1,1
240,-7.0,0.0,62.0,1644584717.25,P03,D02,1,1,1
241,-8.0,1.0,62.0,1644584717.28125,P03,D02,1,1,1
242,-8.0,0.0,62.0,1644584717.3125,P03,D02,1,1,1
243,-7.0,1.0,62.0,1644584717.34375,P03,D02,1,1,1
244,-7.0,0.0,62.0,1644584717.375,P03,D02,1,1,1
245,-8.0,1.0,62.0,1644584717.40625,P03,D02,1,1,1
246,-8.0,0.0,62.0,1644584717.4375,P03,D02,1,1,1
247,-7.0,1.0,62.0,1644584717.46875,P03,D02,1,1,1
248,-8.0,1.0,62.0,1644584717.5,P03,D02,1,1,1
249,-8.0,1.0,62.0,1644584717.53125,P03,D02,1,1,1
250,-7.0,0.0,62.0,1644584717.5625,P03,D02,1,1,1
251,-8.0,1.0,62.0,1644584717.59375,P03,D02,1,1,1
252,-8.0,0.0,62.0,1644584717.625,P03,D02,1,1,1
253,-8.0,1.0,62.0,1644584717.65625,P03,D02,1,1,1
254,-8.0,0.0,62.0,1644584717.6875,P03,D02,1,1,1
255,-8.0,1.0,62.0,1644584717.71875,P03,D02,1,1,1
256,-8.0,0.0,62.0,1644584717.75,P03,D02,1,1,1
257,-8.0,1.0,62.0,1644584717.78125,P03,D02,1,1,1
258,-8.0,1.0,62.0,1644584717.8125,P03,D02,1,1,1
259,-7.0,1.0,62.0,1644584717.84375,P03,D02,1,1,1
260,-7.0,1.0,62.0,1644584717.875,P03,D02,1,1,1
261,-8.0,0.0,62.0,1644584717.90625,P03,D02,1,1,1
262,-8.0,1.0,62.0,1644584717.9375,P03,D02,1,1,1
263,-8.0,1.0,62.0,1644584717.96875,P03,D02,1,1,1
264,-7.0,1.0,62.0,1644584718.0,P03,D02,1,1,1
265,-7.0,0.0,62.0,1644584718.03125,P03,D02,1,1,1
266,-8.0,1.0,62.0,1644584718.0625,P03,D02,1,1,1
267,-7.0,1.0,62.0,1644584718.09375,P03,D02,1,1,1
268,-7.0,1.0,62.0,1644584718.125,P03,D02,1,1,1
269,-8.0,1.0,62.0,1644584718.15625,P03,D02,1,1,1
270,-7.0,1.0,62.0,1644584718.1875,P03,D02,1,1,1
271,-7.0,1.0,62.0,1644584718.21875,P03,D02,1,1,1
272,-7.0,1.0,62.0,1644584718.25,P03,D02,1,1,1
273,-8.0,0.0,62.0,1644584718.28125,P03,D02,1,1,1
274,-8.0,1.0,62.0,1644584718.3125,P03,D02,1,1,1
275,-7.0,0.0,62.0,1644584718.34375,P03,D02,1,1,1
276,-8.0,0.0,62.0,1644584718.375,P03,D02,1,1,1
277,-8.0,0.0,62.0,1644584718.40625,P03,D02,1,1,1
278,-7.0,1.0,62.0,1644584718.4375,P03,D02,1,1,1
279,-7.0,1.0,62.0,1644584718.46875,P03,D02,1,1,1
280,-7.0,1.0,62.0,1644584718.5,P03,D02,1,1,1
281,-8.0,0.0,62.0,1644584718.53125,P03,D02,1,1,1
282,-8.0,1.0,62.0,1644584718.5625,P03,D02,1,1,1
283,-8.0,0.0,62.0,1644584718.59375,P03,D02,1,1,1
284,-7.0,0.0,62.0,1644584718.625,P03,D02,1,1,1
285,-8.0,1.0,62.0,1644584718.65625,P03,D02,1,1,1
286,-7.0,1.0,62.0,1644584718.6875,P03,D02,1,1,1
287,-7.0,1.0,62.0,1644584718.71875,P03,D02,1,1,1
288,-8.0,1.0,62.0,1644584718.75,P03,D02,1,1,1
289,-7.0,1.0,62.0,1644584718.78125,P03,D02,1,1,1
290,-7.0,1.0,62.0,1644584718.8125,P03,D02,1,1,1
291,-8.0,1.0,62.0,1644584718.84375,P03,D02,1,1,1
292,-7.0,1.0,62.0,1644584718.875,P03,D02,1,1,1
293,-8.0,0.0,62.0,1644584718.90625,P03,D02,1,1,1
294,-7.0,1.0,62.0,1644584718.9375,P03,D02,1,1,1
295,-7.0,1.0,62.0,1644584718.96875,P03,D02,1,1,1
296,-7.0,1.0,62.0,1644584719.0,P03,D02,1,1,1
297,-8.0,1.0,62.0,1644584719.03125,P03,D02,1,1,1
298,-8.0,0.0,62.0,1644584719.0625,P03,D02,1,1,1
299,-7.0,1.0,62.0,1644584719.09375,P03,D02,1,1,1
300,-7.0,1.0,62.0,1644584719.125,P03,D02,1,1,1
301,-8.0,1.0,62.0,1644584719.15625,P03,D02,1,1,1
302,-8.0,0.0,62.0,1644584719.1875,P03,D02,1,1,1
303,-7.0,1.0,62.0,1644584719.21875,P03,D02,1,1,1
304,-7.0,1.0,62.0,1644584719.25,P03,D02,1,1,1
305,-7.0,0.0,62.0,1644584719.28125,P03,D02,1,1,1
306,-8.0,1.0,62.0,1644584719.3125,P03,D02,1,1,1
307,-7.0,1.0,62.0,1644584719.34375,P03,D02,1,1,1
308,-7.0,1.0,62.0,1644584719.375,P03,D02,1,1,1
309,-8.0,0.0,62.0,1644584719.40625,P03,D02,1,1,1
310,-8.0,0.0,62.0,1644584719.4375,P03,D02,1,1,1
311,-7.0,1.0,62.0,1644584719.46875,P03,D02,1,1,1
312,-7.0,1.0,62.0,1644584719.5,P03,D02,1,1,1
313,-8.0,0.0,62.0,1644584719.53125,P03,D02,1,1,1
314,-8.0,0.0,62.0,1644584719.5625,P03,D02,1,1,1
315,-7.0,1.0,62.0,1644584719.59375,P03,D02,1,1,1
316,-8.0,1.0,62.0,1644584719.625,P03,D02,1,1,1
317,-8.0,0.0,62.0,1644584719.65625,P03,D02,1,1,1
318,-7.0,1.0,62.0,1644584719.6875,P03,D02,1,1,1
319,-8.0,0.0,62.0,1644584719.71875,P03,D02,1,1,1
320,-8.0,1.0,62.0,1644584719.75,P03,D02,1,1,1
321,-7.0,1.0,62.0,1644584719.78125,P03,D02,1,1,1
322,-8.0,0.0,62.0,1644584719.8125,P03,D02,1,1,1
323,-8.0,1.0,62.0,1644584719.84375,P03,D02,1,1,1
324,-7.0,0.0,62.0,1644584719.875,P03,D02,1,1,1
325,-7.0,1.0,62.0,1644584719.90625,P03,D02,1,1,1
326,-7.0,1.0,62.0,1644584719.9375,P03,D02,1,1,1
327,-7.0,1.0,62.0,1644584719.96875,P03,D02,1,1,1
328,-8.0,1.0,62.0,1644584720.0,P03,D02,1,1,1
329,-7.0,1.0,62.0,1644584720.03125,P03,D02,1,1,1
330,-8.0,0.0,62.0,1644584720.0625,P03,D02,1,1,1
331,-8.0,1.0,62.0,1644584720.09375,P03,D02,1,1,1
332,-7.0,1.0,62.0,1644584720.125,P03,D02,1,1,1
333,-7.0,0.0,62.0,1644584720.15625,P03,D02,1,1,1
334,-8.0,0.0,62.0,1644584720.1875,P03,D02,1,1,1
335,-7.0,0.0,62.0,1644584720.21875,P03,D02,1,1,1
336,-7.0,0.0,62.0,1644584720.25,P03,D02,1,1,1
337,-8.0,1.0,62.0,1644584720.28125,P03,D02,1,1,1
338,-7.0,1.0,62.0,1644584720.3125,P03,D02,1,1,1
339,-7.0,1.0,62.0,1644584720.34375,P03,D02,1,1,1
340,-7.0,1.0,62.0,1644584720.375,P03,D02,1,1,1
341,-8.0,1.0,62.0,1644584720.40625,P03,D02,1,1,1
342,-7.0,0.0,62.0,1644584720.4375,P03,D02,1,1,1
343,-7.0,1.0,62.0,1644584720.46875,P03,D02,1,1,1
344,-8.0,0.0,62.0,1644584720.5,P03,D02,1,1,1
345,-7.0,1.0,62.0,1644584720.53125,P03,D02,1,1,1
346,-8.0,0.0,62.0,1644584720.5625,P03,D02,1,1,1
347,-8.0,0.0,62.0,1644584720.59375,P03,D02,1,1,1
348,-7.0,0.0,62.0,1644584720.625,P03,D02,1,1,1
349,-7.0,0.0,62.0,1644584720.65625,P03,D02,1,1,1
350,-8.0,1.0,62.0,1644584720.6875,P03,D02,1,1,1
351,-7.0,1.0,62.0,1644584720.71875,P03,D02,1,1,1
352,-7.0,1.0,62.0,1644584720.75,P03,D02,1,1,1
353,-8.0,1.0,62.0,1644584720.78125,P03,D02,1,1,1
354,-7.0,0.0,62.0,1644584720.8125,P03,D02,1,1,1
355,-8.0,1.0,62.0,1644584720.84375,P03,D02,1,1,1
356,-7.0,1.0,62.0,1644584720.875,P03,D02,1,1,1
357,-7.0,0.0,62.0,1644584720.90625,P03,D02,1,1,1
358,-8.0,0.0,62.0,1644584720.9375,P03,D02,1,1,1
359,-7.0,1.0,62.0,1644584720.96875,P03,D02,1,1,1
360,-8.0,1.0,62.0,1644584721.0,P03,D02,1,1,1
361,-8.0,0.0,62.0,1644584721.03125,P03,D02,1,1,1
362,-7.0,1.0,62.0,1644584721.0625,P03,D02,1,1,1
363,-8.0,1.0,62.0,1644584721.09375,P03,D02,1,1,1
364,-8.0,1.0,62.0,1644584721.125,P03,D02,1,1,1
365,-7.0,1.0,62.0,1644584721.15625,P03,D02,1,1,1
366,-8.0,0.0,62.0,1644584721.1875,P03,D02,1,1,1
367,-7.0,1.0,62.0,1644584721.21875,P03,D02,1,1,1
368,-7.0,1.0,62.0,1644584721.25,P03,D02,1,1,1
369,-8.0,0.0,62.0,1644584721.28125,P03,D02,1,1,1
370,-8.0,1.0,62.0,1644584721.3125,P03,D02,1,1,1
371,-7.0,1.0,62.0,1644584721.34375,P03,D02,1,1,1
372,-8.0,1.0,62.0,1644584721.375,P03,D02,1,1,1
373,-8.0,1.0,62.0,1644584721.40625,P03,D02,1,1,1
374,-7.0,0.0,62.0,1644584721.4375,P03,D02,1,1,1
375,-8.0,0.0,62.0,1644584721.46875,P03,D02,1,1,1
376,-7.0,0.0,62.0,1644584721.5,P03,D02,1,1,1
377,-7.0,0.0,62.0,1644584721.53125,P03,D02,1,1,1
378,-8.0,1.0,62.0,1644584721.5625,P03,D02,1,1,1
379,-8.0,0.0,62.0,1644584721.59375,P03,D02,1,1,1
380,-8.0,1.0,62.0,1644584721.625,P03,D02,1,1,1
381,-8.0,0.0,62.0,1644584721.65625,P03,D02,1,1,1
382,-7.0,1.0,62.0,1644584721.6875,P03,D02,1,1,1
383,-8.0,1.0,62.0,1644584721.71875,P03,D02,1,1,1
384,-7.0,1.0,62.0,1644584721.75,P03,D02,1,1,1
385,-7.0,1.0,62.0,1644584721.78125,P03,D02,1,1,1
386,-8.0,1.0,62.0,1644584721.8125,P03,D02,1,1,1
387,-7.0,0.0,62.0,1644584721.84375,P03,D02,1,1,1
388,-7.0,1.0,62.0,1644584721.875,P03,D02,1,1,1
389,-7.0,1.0,62.0,1644584721.90625,P03,D02,1,1,1
390,-8.0,0.0,62.0,1644584721.9375,P03,D02,1,1,1
391,-8.0,1.0,62.0,1644584721.96875,P03,D02,1,1,1
392,-7.0,1.0,62.0,1644584722.0,P03,D02,1,1,1
393,-8.0,1.0,62.0,1644584722.03125,P03,D02,1,1,1
394,-8.0,1.0,62.0,1644584722.0625,P03,D02,1,1,1
395,-7.0,1.0,62.0,1644584722.09375,P03,D02,1,1,1
396,-7.0,1.0,62.0,1644584722.125,P03,D02,1,1,1
397,-8.0,1.0,62.0,1644584722.15625,P03,D02,1,1,1
398,-8.0,1.0,62.0,1644584722.1875,P03,D02,1,1,1
399,-8.0,1.0,62.0,1644584722.21875,P03,D02,1,1,1
400,-7.0,1.0,62.0,1644584722.25,P03,D02,1,1,1
401,-8.0,1.0,62.0,1644584722.28125,P03,D02,1,1,1
402,-8.0,0.0,62.0,1644584722.3125,P03,D02,1,1,1
403,-7.0,0.0,62.0,1644584722.34375,P03,D02,1,1,1
404,-8.0,0.0,62.0,1644584722.375,P03,D02,1,1,1
405,-8.0,1.0,62.0,1644584722.40625,P03,D02,1,1,1
406,-7.0,1.0,62.0,1644584722.4375,P03,D02,1,1,1
407,-8.0,0.0,62.0,1644584722.46875,P03,D02,1,1,1
408,-8.0,1.0,62.0,1644584722.5,P03,D02,1,1,1
409,-7.0,1.0,62.0,1644584722.53125,P03,D02,1,1,1
410,-8.0,0.0,62.0,1644584722.5625,P03,D02,1,1,1
411,-8.0,1.0,62.0,1644584722.59375,P03,D02,1,1,1
412,-8.0,1.0,62.0,1644584722.625,P03,D02,1,1,1
413,-8.0,1.0,62.0,1644584722.65625,P03,D02,1,1,1
414,-8.0,1.0,62.0,1644584722.6875,P03,D02,1,1,1
415,-7.0,0.0,62.0,1644584722.71875,P03,D02,1,1,1
416,-7.0,1.0,62.0,1644584722.75,P03,D02,1,1,1
417,-8.0,1.0,62.0,1644584722.78125,P03,D02,1,1,1
418,-8.0,1.0,62.0,1644584722.8125,P03,D02,1,1,1
419,-7.0,1.0,62.0,1644584722.84375,P03,D02,1,1,1
420,-7.0,1.0,62.0,1644584722.875,P03,D02,1,1,1
421,-8.0,1.0,62.0,1644584722.90625,P03,D02,1,1,1
422,-8.0,0.0,62.0,1644584722.9375,P03,D02,1,1,1
423,-8.0,1.0,62.0,1644584722.96875,P03,D02,1,1,1
424,-8.0,1.0,62.0,1644584723.0,P03,D02,1,1,1
425,-8.0,0.0,62.0,1644584723.03125,P03,D02,1,1,1
426,-8.0,1.0,62.0,1644584723.0625,P03,D02,1,1,1
427,-8.0,1.0,62.0,1644584723.09375,P03,D02,1,1,1
428,-8.0,1.0,62.0,1644584723.125,P03,D02,1,1,1
429,-8.0,1.0,62.0,1644584723.15625,P03,D02,1,1,1
430,-8.0,0.0,62.0,1644584723.1875,P03,D02,1,1,1
431,-8.0,1.0,62.0,1644584723.21875,P03,D02,1,1,1
432,-8.0,1.0,62.0,1644584723.25,P03,D02,1,1,1
433,-8.0,1.0,62.0,1644584723.28125,P03,D02,1,1,1
434,-8.0,1.0,62.0,1644584723.3125,P03,D02,1,1,1
435,-7.0,1.0,62.0,1644584723.34375,P03,D02,1,1,1
436,-8.0,1.0,62.0,1644584723.375,P03,D02,1,1,1
437,-8.0,1.0,62.0,1644584723.40625,P03,D02,1,1,1
438,-8.0,1.0,62.0,1644584723.4375,P03,D02,1,1,1
439,-8.0,1.0,62.0,1644584723.46875,P03,D02,1,1,1
440,-8.0,1.0,62.0,1644584723.5,P03,D02,1,1,1
441,-8.0,1.0,62.0,1644584723.53125,P03,D02,1,1,1
442,-8.0,0.0,62.0,1644584723.5625,P03,D02,1,1,1
443,-8.0,1.0,62.0,1644584723.59375,P03,D02,1,1,1
444,-8.0,0.0,62.0,1644584723.625,P03,D02,1,1,1
445,-8.0,1.0,62.0,1644584723.65625,P03,D02,1,1,1
446,-8.0,1.0,62.0,1644584723.6875,P03,D02,1,1,1
447,-8.0,1.0,62.0,1644584723.71875,P03,D02,1,1,1
448,-8.0,1.0,62.0,1644584723.75,P03,D02,1,1,1
449,-8.0,1.0,62.0,1644584723.78125,P03,D02,1,1,1
450,-8.0,1.0,62.0,1644584723.8125,P03,D02,1,1,1
451,-8.0,1.0,62.0,1644584723.84375,P03,D02,1,1,1
452,-8.0,1.0,62.0,1644584723.875,P03,D02,1,1,1
453,-8.0,1.0,62.0,1644584723.90625,P03,D02,1,1,1
454,-8.0,1.0,62.0,1644584723.9375,P03,D02,1,1,1
455,-8.0,1.0,62.0,1644584723.96875,P03,D02,1,1,1
456,-8.0,1.0,62.0,1644584724.0,P03,D02,1,1,1
457,-8.0,1.0,62.0,1644584724.03125,P03,D02,1,1,1
458,-8.0,1.0,62.0,1644584724.0625,P03,D02,1,1,1
459,-8.0,1.0,62.0,1644584724.09375,P03,D02,1,1,1
460,-8.0,1.0,62.0,1644584724.125,P03,D02,1,1,1
461,-8.0,1.0,62.0,1644584724.15625,P03,D02,1,1,1
462,-8.0,1.0,62.0,1644584724.1875,P03,D02,1,1,1
463,-8.0,0.0,62.0,1644584724.21875,P03,D02,1,1,1
464,-8.0,1.0,62.0,1644584724.25,P03,D02,1,1,1
465,-8.0,1.0,62.0,1644584724.28125,P03,D02,1,1,1
466,-8.0,1.0,62.0,1644584724.3125,P03,D02,1,1,1
467,-8.0,1.0,62.0,1644584724.34375,P03,D02,1,1,1
468,-8.0,1.0,62.0,1644584724.375,P03,D02,1,1,1
469,-8.0,1.0,62.0,1644584724.40625,P03,D02,1,1,1
470,-8.0,1.0,62.0,1644584724.4375,P03,D02,1,1,1
471,-8.0,0.0,62.0,1644584724.46875,P03,D02,1,1,1
472,-8.0,1.0,62.0,1644584724.5,P03,D02,1,1,1
473,-8.0,1.0,62.0,1644584724.53125,P03,D02,1,1,1
474,-8.0,1.0,62.0,1644584724.5625,P03,D02,1,1,1
475,-8.0,1.0,62.0,1644584724.59375,P03,D02,1,1,1
476,-8.0,1.0,62.0,1644584724.625,P03,D02,1,1,1
477,-8.0,1.0,62.0,1644584724.65625,P03,D02,1,1,1
478,-8.0,1.0,62.0,1644584724.6875,P03,D02,1,1,1
479,-8.0,1.0,62.0,1644584724.71875,P03,D02,1,1,1
480,-8.0,1.0,62.0,1644584724.75,P03,D02,1,1,1
481,-8.0,1.0,62.0,1644584724.78125,P03,D02,1,1,1
482,-8.0,1.0,62.0,1644584724.8125,P03,D02,1,1,1
483,-8.0,0.0,62.0,1644584724.84375,P03,D02,1,1,1
484,-8.0,1.0,62.0,1644584724.875,P03,D02,1,1,1
485,-8.0,1.0,62.0,1644584724.90625,P03,D02,1,1,1
486,-8.0,1.0,62.0,1644584724.9375,P03,D02,1,1,1
487,-8.0,1.0,62.0,1644584724.96875,P03,D02,1,1,1
488,-8.0,1.0,62.0,1644584725.0,P03,D02,1,1,1
489,-8.0,1.0,62.0,1644584725.03125,P03,D02,1,1,1
490,-7.0,0.0,62.0,1644584725.0625,P03,D02,1,1,1
491,-8.0,1.0,62.0,1644584725.09375,P03,D02,1,1,1
492,-8.0,1.0,62.0,1644584725.125,P03,D02,1,1,1
493,-8.0,1.0,62.0,1644584725.15625,P03,D02,1,1,1
494,-8.0,0.0,62.0,1644584725.1875,P03,D02,1,1,1
495,-8.0,1.0,62.0,1644584725.21875,P03,D02,1,1,1
496,-7.0,0.0,62.0,1644584725.25,P03,D02,1,1,1
497,-8.0,1.0,62.0,1644584725.28125,P03,D02,1,1,1
498,-8.0,1.0,62.0,1644584725.3125,P03,D02,1,1,1
499,-8.0,1.0,62.0,1644584725.34375,P03,D02,1,1,1
500,-8.0,1.0,62.0,1644584725.375,P03,D02,1,1,1
501,-8.0,1.0,62.0,1644584725.40625,P03,D02,1,1,1
502,-8.0,1.0,62.0,1644584725.4375,P03,D02,1,1,1
503,-8.0,0.0,62.0,1644584725.46875,P03,D02,1,1,1
504,-8.0,1.0,62.0,1644584725.5,P03,D02,1,1,1
505,-8.0,1.0,62.0,1644584725.53125,P03,D02,1,1,1
506,-8.0,1.0,62.0,1644584725.5625,P03,D02,1,1,1
507,-8.0,1.0,62.0,1644584725.59375,P03,D02,1,1,1
508,-8.0,1.0,62.0,1644584725.625,P03,D02,1,1,1
509,-8.0,1.0,62.0,1644584725.65625,P03,D02,1,1,1
510,-8.0,1.0,62.0,1644584725.6875,P03,D02,1,1,1
511,-8.0,1.0,62.0,1644584725.71875,P03,D02,1,1,1
512,-7.0,1.0,62.0,1644584725.75,P03,D02,1,1,1
513,-8.0,1.0,62.0,1644584725.78125,P03,D02,1,1,1
514,-8.0,1.0,62.0,1644584725.8125,P03,D02,1,1,1
515,-8.0,1.0,62.0,1644584725.84375,P03,D02,1,1,1
516,-8.0,1.0,62.0,1644584725.875,P03,D02,1,1,1
517,-8.0,1.0,62.0,1644584725.90625,P03,D02,1,1,1
518,-7.0,1.0,62.0,1644584725.9375,P03,D02,1,1,1
519,-8.0,1.0,62.0,1644584725.96875,P03,D02,1,1,1
520,-8.0,1.0,62.0,1644584726.0,P03,D02,1,1,1
521,-7.0,1.0,62.0,1644584726.03125,P03,D02,1,1,1
522,-7.0,1.0,62.0,1644584726.0625,P03,D02,1,1,1
523,-8.0,1.0,62.0,1644584726.09375,P03,D02,1,1,1
524,-8.0,1.0,62.0,1644584726.125,P03,D02,1,1,1
525,-7.0,1.0,62.0,1644584726.15625,P03,D02,1,1,1
526,-8.0,1.0,62.0,1644584726.1875,P03,D02,1,1,1
527,-8.0,1.0,62.0,1644584726.21875,P03,D02,1,1,1
528,-8.0,0.0,62.0,1644584726.25,P03,D02,1,1,1
529,-8.0,1.0,62.0,1644584726.28125,P03,D02,1,1,1
530,-8.0,1.0,62.0,1644584726.3125,P03,D02,1,1,1
531,-8.0,1.0,62.0,1644584726.34375,P03,D02,1,1,1
532,-8.0,1.0,62.0,1644584726.375,P03,D02,1,1,1
533,-7.0,1.0,62.0,1644584726.40625,P03,D02,1,1,1
534,-8.0,1.0,62.0,1644584726.4375,P03,D02,1,1,1
535,-8.0,1.0,62.0,1644584726.46875,P03,D02,1,1,1
536,-7.0,1.0,62.0,1644584726.5,P03,D02,1,1,1
537,-8.0,1.0,62.0,1644584726.53125,P03,D02,1,1,1
538,-8.0,1.0,62.0,1644584726.5625,P03,D02,1,1,1
539,-7.0,1.0,62.0,1644584726.59375,P03,D02,1,1,1
540,-7.0,1.0,62.0,1644584726.625,P03,D02,1,1,1
541,-8.0,1.0,62.0,1644584726.65625,P03,D02,1,1,1
542,-8.0,1.0,62.0,1644584726.6875,P03,D02,1,1,1
543,-8.0,1.0,62.0,1644584726.71875,P03,D02,1,1,1
544,-8.0,1.0,62.0,1644584726.75,P03,D02,1,1,1
545,-7.0,1.0,62.0,1644584726.78125,P03,D02,1,1,1
546,-8.0,0.0,62.0,1644584726.8125,P03,D02,1,1,1
547,-8.0,0.0,62.0,1644584726.84375,P03,D02,1,1,1
548,-7.0,1.0,62.0,1644584726.875,P03,D02,1,1,1
549,-7.0,1.0,62.0,1644584726.90625,P03,D02,1,1,1
550,-8.0,1.0,62.0,1644584726.9375,P03,D02,1,1,1
551,-8.0,1.0,62.0,1644584726.96875,P03,D02,1,1,1
552,-8.0,1.0,62.0,1644584727.0,P03,D02,1,1,1
553,-8.0,1.0,62.0,1644584727.03125,P03,D02,1,1,1
554,-7.0,0.0,62.0,1644584727.0625,P03,D02,1,1,1
555,-8.0,1.0,62.0,1644584727.09375,P03,D02,1,1,1
556,-8.0,1.0,62.0,1644584727.125,P03,D02,1,1,1
557,-7.0,1.0,62.0,1644584727.15625,P03,D02,1,1,1
558,-8.0,1.0,62.0,1644584727.1875,P03,D02,1,1,1
559,-8.0,0.0,62.0,1644584727.21875,P03,D02,1,1,1
560,-7.0,0.0,62.0,1644584727.25,P03,D02,1,1,1
561,-8.0,1.0,62.0,1644584727.28125,P03,D02,1,1,1
562,-7.0,1.0,62.0,1644584727.3125,P03,D02,1,1,1
563,-7.0,1.0,62.0,1644584727.34375,P03,D02,1,1,1
564,-7.0,1.0,62.0,1644584727.375,P03,D02,1,1,1
565,-8.0,0.0,62.0,1644584727.40625,P03,D02,1,1,1
566,-8.0,0.0,62.0,1644584727.4375,P03,D02,1,1,1
567,-7.0,1.0,62.0,1644584727.46875,P03,D02,1,1,1
568,-7.0,1.0,62.0,1644584727.5,P03,D02,1,1,1
569,-8.0,0.0,62.0,1644584727.53125,P03,D02,1,1,1
570,-8.0,1.0,62.0,1644584727.5625,P03,D02,1,1,1
571,-7.0,1.0,62.0,1644584727.59375,P03,D02,1,1,1
572,-8.0,1.0,62.0,1644584727.625,P03,D02,1,1,1
573,-7.0,1.0,62.0,1644584727.65625,P03,D02,1,1,1
574,-7.0,1.0,62.0,1644584727.6875,P03,D02,1,1,1
575,-8.0,1.0,62.0,1644584727.71875,P03,D02,1,1,1
576,-7.0,1.0,62.0,1644584727.75,P03,D02,1,1,1
577,-7.0,1.0,62.0,1644584727.78125,P03,D02,1,1,1
578,-8.0,1.0,62.0,1644584727.8125,P03,D02,1,1,1
579,-8.0,1.0,62.0,1644584727.84375,P03,D02,1,1,1
580,-7.0,1.0,62.0,1644584727.875,P03,D02,1,1,1
581,-8.0,1.0,62.0,1644584727.90625,P03,D02,1,1,1
582,-8.0,1.0,62.0,1644584727.9375,P03,D02,1,1,1
583,-7.0,1.0,62.0,1644584727.96875,P03,D02,1,1,1
584,-8.0,0.0,62.0,1644584728.0,P03,D02,1,1,1
585,-8.0,1.0,62.0,1644584728.03125,P03,D02,1,1,1
586,-7.0,1.0,62.0,1644584728.0625,P03,D02,1,1,1
587,-7.0,1.0,62.0,1644584728.09375,P03,D02,1,1,1
588,-8.0,1.0,62.0,1644584728.125,P03,D02,1,1,1
589,-7.0,1.0,62.0,1644584728.15625,P03,D02,1,1,1
590,-7.0,1.0,62.0,1644584728.1875,P03,D02,1,1,1
591,-8.0,1.0,62.0,1644584728.21875,P03,D02,1,1,1
592,-8.0,1.0,62.0,1644584728.25,P03,D02,1,1,1
593,-7.0,0.0,62.0,1644584728.28125,P03,D02,1,1,1
594,-7.0,1.0,62.0,1644584728.3125,P03,D02,1,1,1
595,-8.0,0.0,62.0,1644584728.34375,P03,D02,1,1,1
596,-8.0,0.0,62.0,1644584728.375,P03,D02,1,1,1
597,-7.0,1.0,62.0,1644584728.40625,P03,D02,1,1,1
598,-8.0,1.0,62.0,1644584728.4375,P03,D02,1,1,1
599,-8.0,0.0,62.0,1644584728.46875,P03,D02,1,1,1
600,-7.0,1.0,62.0,1644584728.5,P03,D02,1,1,1
601,-8.0,1.0,62.0,1644584728.53125,P03,D02,1,1,1
602,-8.0,1.0,62.0,1644584728.5625,P03,D02,1,1,1
603,-8.0,1.0,62.0,1644584728.59375,P03,D02,1,1,1
604,-7.0,1.0,62.0,1644584728.625,P03,D02,1,1,1
605,-8.0,1.0,62.0,1644584728.65625,P03,D02,1,1,1
606,-8.0,1.0,62.0,1644584728.6875,P03,D02,1,1,1
607,-7.0,1.0,62.0,1644584728.71875,P03,D02,1,1,1
608,-8.0,0.0,62.0,1644584728.75,P03,D02,1,1,1
609,-8.0,1.0,62.0,1644584728.78125,P03,D02,1,1,1
610,-7.0,1.0,62.0,1644584728.8125,P03,D02,1,1,1
611,-8.0,1.0,62.0,1644584728.84375,P03,D02,1,1,1
612,-8.0,1.0,62.0,1644584728.875,P03,D02,1,1,1
613,-7.0,1.0,62.0,1644584728.90625,P03,D02,1,1,1
614,-8.0,0.0,62.0,1644584728.9375,P03,D02,1,1,1
615,-8.0,1.0,62.0,1644584728.96875,P03,D02,1,1,1
616,-7.0,1.0,62.0,1644584729.0,P03,D02,1,1,1
617,-7.0,1.0,62.0,1644584729.03125,P03,D02,1,1,1
618,-8.0,1.0,62.0,1644584729.0625,P03,D02,1,1,1
619,-8.0,1.0,62.0,1644584729.09375,P03,D02,1,1,1
620,-8.0,0.0,62.0,1644584729.125,P03,D02,1,1,1
621,-7.0,1.0,62.0,1644584729.15625,P03,D02,1,1,1
622,-7.0,1.0,62.0,1644584729.1875,P03,D02,1,1,1
623,-8.0,0.0,62.0,1644584729.21875,P03,D02,1,1,1
624,-7.0,1.0,62.0,1644584729.25,P03,D02,1,1,1
625,-7.0,1.0,62.0,1644584729.28125,P03,D02,1,1,1
626,-8.0,0.0,62.0,1644584729.3125,P03,D02,1,1,1
627,-8.0,1.0,62.0,1644584729.34375,P03,D02,1,1,1
628,-8.0,0.0,62.0,1644584729.375,P03,D02,1,1,1
629,-8.0,1.0,62.0,1644584729.40625,P03,D02,1,1,1
630,-7.0,1.0,62.0,1644584729.4375,P03,D02,1,1,1
631,-7.0,1.0,62.0,1644584729.46875,P03,D02,1,1,1
632,-8.0,0.0,62.0,1644584729.5,P03,D02,1,1,1
633,-8.0,1.0,62.0,1644584729.53125,P03,D02,1,1,1
634,-7.0,1.0,62.0,1644584729.5625,P03,D02,1,1,1
635,-8.0,0.0,62.0,1644584729.59375,P03,D02,1,1,1
636,-8.0,1.0,62.0,1644584729.625,P03,D02,1,1,1
637,-7.0,0.0,62.0,1644584729.65625,P03,D02,1,1,1
638,-8.0,1.0,62.0,1644584729.6875,P03,D02,1,1,1
639,-8.0,1.0,62.0,1644584729.71875,P03,D02,1,1,1
640,-7.0,1.0,62.0,1644584729.75,P03,D02,1,1,1
641,-7.0,1.0,62.0,1644584729.78125,P03,D02,1,1,1
642,-8.0,1.0,62.0,1644584729.8125,P03,D02,1,1,1
643,-8.0,1.0,62.0,1644584729.84375,P03,D02,1,1,1
644,-8.0,1.0,62.0,1644584729.875,P03,D02,1,1,1
645,-8.0,1.0,62.0,1644584729.90625,P03,D02,1,1,1
646,-8.0,0.0,62.0,1644584729.9375,P03,D02,1,1,1
647,-8.0,1.0,62.0,1644584729.96875,P03,D02,1,1,1
648,-7.0,1.0,62.0,1644584730.0,P03,D02,1,1,1
649,-8.0,1.0,62.0,1644584730.03125,P03,D02,1,1,1
650,-8.0,1.0,62.0,1644584730.0625,P03,D02,1,1,1
651,-8.0,0.0,62.0,1644584730.09375,P03,D02,1,1,1
652,-7.0,1.0,62.0,1644584730.125,P03,D02,1,1,1
653,-7.0,1.0,62.0,1644584730.15625,P03,D02,1,1,1
654,-8.0,1.0,62.0,1644584730.1875,P03,D02,1,1,1
655,-7.0,1.0,62.0,1644584730.21875,P03,D02,1,1,1
656,-7.0,1.0,62.0,1644584730.25,P03,D02,1,1,1
657,-8.0,1.0,62.0,1644584730.28125,P03,D02,1,1,1
658,-8.0,0.0,62.0,1644584730.3125,P03,D02,1,1,1
659,-8.0,1.0,62.0,1644584730.34375,P03,D02,1,1,1
660,-7.0,1.0,62.0,1644584730.375,P03,D02,1,1,1
661,-7.0,1.0,62.0,1644584730.40625,P03,D02,1,1,1
662,-8.0,1.0,62.0,1644584730.4375,P03,D02,1,1,1
663,-8.0,1.0,62.0,1644584730.46875,P03,D02,1,1,1
664,-8.0,1.0,62.0,1644584730.5,P03,D02,1,1,1
665,-8.0,1.0,62.0,1644584730.53125,P03,D02,1,1,1
666,-8.0,1.0,62.0,1644584730.5625,P03,D02,1,1,1
667,-8.0,1.0,62.0,1644584730.59375,P03,D02,1,1,1
668,-8.0,0.0,62.0,1644584730.625,P03,D02,1,1,1
669,-8.0,1.0,62.0,1644584730.65625,P03,D02,1,1,1
670,-7.0,1.0,62.0,1644584730.6875,P03,D02,1,1,1
671,-8.0,1.0,62.0,1644584730.71875,P03,D02,1,1,1
672,-8.0,0.0,62.0,1644584730.75,P03,D02,1,1,1
673,-8.0,1.0,62.0,1644584730.78125,P03,D02,1,1,1
674,-8.0,1.0,62.0,1644584730.8125,P03,D02,1,1,1
675,-7.0,1.0,62.0,1644584730.84375,P03,D02,1,1,1
676,-8.0,1.0,62.0,1644584730.875,P03,D02,1,1,1
677,-8.0,1.0,62.0,1644584730.90625,P03,D02,1,1,1
678,-8.0,1.0,62.0,1644584730.9375,P03,D02,1,1,1
679,-8.0,1.0,62.0,1644584730.96875,P03,D02,1,1,1
680,-8.0,1.0,62.0,1644584731.0,P03,D02,1,1,1
681,-8.0,1.0,62.0,1644584731.03125,P03,D02,1,1,1
682,-8.0,1.0,62.0,1644584731.0625,P03,D02,1,1,1
683,-8.0,1.0,62.0,1644584731.09375,P03,D02,1,1,1
684,-8.0,1.0,62.0,1644584731.125,P03,D02,1,1,1
685,-7.0,1.0,62.0,1644584731.15625,P03,D02,1,1,1
686,-8.0,1.0,62.0,1644584731.1875,P03,D02,1,1,1
687,-8.0,1.0,62.0,1644584731.21875,P03,D02,1,1,1
688,-8.0,1.0,62.0,1644584731.25,P03,D02,1,1,1
689,-8.0,1.0,62.0,1644584731.28125,P03,D02,1,1,1
690,-8.0,1.0,62.0,1644584731.3125,P03,D02,1,1,1
691,-8.0,1.0,62.0,1644584731.34375,P03,D02,1,1,1
692,-8.0,1.0,62.0,1644584731.375,P03,D02,1,1,1
693,-8.0,1.0,62.0,1644584731.40625,P03,D02,1,1,1
694,-7.0,1.0,62.0,1644584731.4375,P03,D02,1,1,1
695,-8.0,1.0,62.0,1644584731.46875,P03,D02,1,1,1
696,-8.0,1.0,62.0,1644584731.5,P03,D02,1,1,1
697,-8.0,1.0,62.0,1644584731.53125,P03,D02,1,1,1
698,-8.0,1.0,62.0,1644584731.5625,P03,D02,1,1,1
699,-7.0,1.0,62.0,1644584731.59375,P03,D02,1,1,1
700,-8.0,1.0,62.0,1644584731.625,P03,D02,1,1,1
701,-8.0,1.0,62.0,1644584731.65625,P03,D02,1,1,1
702,-8.0,1.0,62.0,1644584731.6875,P03,D02,1,1,1
703,-8.0,1.0,62.0,1644584731.71875,P03,D02,1,1,1
704,-8.0,1.0,62.0,1644584731.75,P03,D02,1,1,1
705,-8.0,1.0,62.0,1644584731.78125,P03,D02,1,1,1
706,-8.0,1.0,62.0,1644584731.8125,P03,D02,1,1,1
707,-8.0,1.0,62.0,1644584731.84375,P03,D02,1,1,1
708,-8.0,1.0,62.0,1644584731.875,P03,D02,1,1,1
709,-8.0,1.0,62.0,1644584731.90625,P03,D02,1,1,1
710,-8.0,1.0,62.0,1644584731.9375,P03,D02,1,1,1
711,-8.0,1.0,62.0,1644584731.96875,P03,D02,1,1,1
712,-8.0,1.0,62.0,1644584732.0,P03,D02,1,1,1
713,-7.0,1.0,62.0,1644584732.03125,P03,D02,1,1,1
714,-8.0,1.0,62.0,1644584732.0625,P03,D02,1,1,1
715,-8.0,1.0,62.0,1644584732.09375,P03,D02,1,1,1
716,-7.0,1.0,62.0,1644584732.125,P03,D02,1,1,1
717,-8.0,1.0,62.0,1644584732.15625,P03,D02,1,1,1
718,-8.0,1.0,62.0,1644584732.1875,P03,D02,1,1,1
719,-8.0,1.0,62.0,1644584732.21875,P03,D02,1,1,1
720,-8.0,1.0,62.0,1644584732.25,P03,D02,1,1,1
721,-7.0,1.0,62.0,1644584732.28125,P03,D02,1,1,1
722,-8.0,1.0,62.0,1644584732.3125,P03,D02,1,1,1
723,-8.0,1.0,61.0,1644584732.34375,P03,D02,1,1,1
724,-8.0,1.0,62.0,1644584732.375,P03,D02,1,1,1
725,-8.0,1.0,62.0,1644584732.40625,P03,D02,1,1,1
726,-8.0,1.0,62.0,1644584732.4375,P03,D02,1,1,1
727,-8.0,1.0,62.0,1644584732.46875,P03,D02,1,1,1
728,-8.0,0.0,62.0,1644584732.5,P03,D02,1,1,1
729,-8.0,1.0,62.0,1644584732.53125,P03,D02,1,1,1
730,-7.0,1.0,62.0,1644584732.5625,P03,D02,1,1,1
731,-8.0,1.0,62.0,1644584732.59375,P03,D02,1,1,1
732,-8.0,1.0,62.0,1644584732.625,P03,D02,1,1,1
733,-7.0,1.0,62.0,1644584732.65625,P03,D02,1,1,1
734,-7.0,1.0,62.0,1644584732.6875,P03,D02,1,1,1
735,-8.0,1.0,62.0,1644584732.71875,P03,D02,1,1,1
736,-8.0,1.0,62.0,1644584732.75,P03,D02,1,1,1
737,-8.0,1.0,62.0,1644584732.78125,P03,D02,1,1,1
738,-7.0,0.0,62.0,1644584732.8125,P03,D02,1,1,1
739,-7.0,1.0,62.0,1644584732.84375,P03,D02,1,1,1
740,-8.0,1.0,62.0,1644584732.875,P03,D02,1,1,1
741,-8.0,1.0,62.0,1644584732.90625,P03,D02,1,1,1
742,-8.0,1.0,62.0,1644584732.9375,P03,D02,1,1,1
743,-8.0,0.0,62.0,1644584732.96875,P03,D02,1,1,1
744,-7.0,1.0,62.0,1644584733.0,P03,D02,1,1,1
745,-8.0,1.0,62.0,1644584733.03125,P03,D02,1,1,1
746,-8.0,0.0,62.0,1644584733.0625,P03,D02,1,1,1
747,-8.0,0.0,62.0,1644584733.09375,P03,D02,1,1,1
748,-7.0,1.0,62.0,1644584733.125,P03,D02,1,1,1
749,-7.0,1.0,62.0,1644584733.15625,P03,D02,1,1,1
750,-8.0,1.0,62.0,1644584733.1875,P03,D02,1,1,1
751,-8.0,0.0,62.0,1644584733.21875,P03,D02,1,1,1
752,-7.0,1.0,62.0,1644584733.25,P03,D02,1,1,1
753,-7.0,1.0,62.0,1644584733.28125,P03,D02,1,1,1
754,-8.0,1.0,62.0,1644584733.3125,P03,D02,1,1,1
755,-8.0,1.0,62.0,1644584733.34375,P03,D02,1,1,1
756,-8.0,0.0,62.0,1644584733.375,P03,D02,1,1,1
757,-7.0,1.0,62.0,1644584733.40625,P03,D02,1,1,1
758,-7.0,1.0,62.0,1644584733.4375,P03,D02,1,1,1
759,-8.0,1.0,62.0,1644584733.46875,P03,D02,1,1,1
760,-7.0,1.0,62.0,1644584733.5,P03,D02,1,1,1
761,-7.0,1.0,62.0,1644584733.53125,P03,D02,1,1,1
762,-8.0,1.0,62.0,1644584733.5625,P03,D02,1,1,1
763,-7.0,1.0,62.0,1644584733.59375,P03,D02,1,1,1
764,-7.0,1.0,62.0,1644584733.625,P03,D02,1,1,1
765,-8.0,1.0,62.0,1644584733.65625,P03,D02,1,1,1
766,-7.0,1.0,62.0,1644584733.6875,P03,D02,1,1,1
767,-7.0,1.0,62.0,1644584733.71875,P03,D02,1,1,1
768,-8.0,1.0,62.0,1644584733.75,P03,D02,1,1,1
769,-8.0,1.0,62.0,1644584733.78125,P03,D02,1,1,1
770,-7.0,1.0,62.0,1644584733.8125,P03,D02,1,1,1
771,-8.0,1.0,62.0,1644584733.84375,P03,D02,1,1,1
772,-8.0,1.0,62.0,1644584733.875,P03,D02,1,1,1
773,-7.0,1.0,62.0,1644584733.90625,P03,D02,1,1,1
774,-7.0,1.0,62.0,1644584733.9375,P03,D02,1,1,1
775,-8.0,1.0,62.0,1644584733.96875,P03,D02,1,1,1
776,-7.0,1.0,62.0,1644584734.0,P03,D02,1,1,1
777,-8.0,0.0,62.0,1644584734.03125,P03,D02,1,1,1
778,-7.0,1.0,62.0,1644584734.0625,P03,D02,1,1,1
779,-8.0,0.0,62.0,1644584734.09375,P03,D02,1,1,1
780,-8.0,1.0,62.0,1644584734.125,P03,D02,1,1,1
781,-7.0,0.0,62.0,1644584734.15625,P03,D02,1,1,1
782,-8.0,1.0,62.0,1644584734.1875,P03,D02,1,1,1
783,-8.0,1.0,62.0,1644584734.21875,P03,D02,1,1,1
784,-7.0,1.0,62.0,1644584734.25,P03,D02,1,1,1
785,-8.0,0.0,62.0,1644584734.28125,P03,D02,1,1,1
786,-8.0,1.0,62.0,1644584734.3125,P03,D02,1,1,1
787,-7.0,1.0,62.0,1644584734.34375,P03,D02,1,1,1
788,-8.0,1.0,62.0,1644584734.375,P03,D02,1,1,1
789,-8.0,1.0,62.0,1644584734.40625,P03,D02,1,1,1
790,-7.0,1.0,62.0,1644584734.4375,P03,D02,1,1,1
791,-7.0,1.0,62.0,1644584734.46875,P03,D02,1,1,1
792,-8.0,1.0,62.0,1644584734.5,P03,D02,1,1,1
793,-7.0,1.0,62.0,1644584734.53125,P03,D02,1,1,1
794,-8.0,1.0,62.0,1644584734.5625,P03,D02,1,1,1
795,-7.0,1.0,62.0,1644584734.59375,P03,D02,1,1,1
796,-7.0,1.0,62.0,1644584734.625,P03,D02,1,1,1
797,-8.0,1.0,62.0,1644584734.65625,P03,D02,1,1,1
798,-8.0,0.0,62.0,1644584734.6875,P03,D02,1,1,1
799,-7.0,1.0,62.0,1644584734.71875,P03,D02,1,1,1
800,-8.0,1.0,62.0,1644584734.75,P03,D02,1,1,1
801,-8.0,0.0,62.0,1644584734.78125,P03,D02,1,1,1
802,-8.0,1.0,62.0,1644584734.8125,P03,D02,1,1,1
803,-8.0,1.0,62.0,1644584734.84375,P03,D02,1,1,1
804,-8.0,1.0,62.0,1644584734.875,P03,D02,1,1,1
805,-8.0,1.0,62.0,1644584734.90625,P03,D02,1,1,1
806,-8.0,0.0,62.0,1644584734.9375,P03,D02,1,1,1
807,-7.0,1.0,62.0,1644584734.96875,P03,D02,1,1,1
808,-8.0,1.0,62.0,1644584735.0,P03,D02,1,1,1
809,-8.0,0.0,62.0,1644584735.03125,P03,D02,1,1,1
810,-7.0,1.0,62.0,1644584735.0625,P03,D02,1,1,1
811,-7.0,1.0,62.0,1644584735.09375,P03,D02,1,1,1
812,-8.0,1.0,62.0,1644584735.125,P03,D02,1,1,1
813,-8.0,1.0,62.0,1644584735.15625,P03,D02,1,1,1
814,-8.0,1.0,62.0,1644584735.1875,P03,D02,1,1,1
815,-8.0,1.0,62.0,1644584735.21875,P03,D02,1,1,1
816,-8.0,0.0,62.0,1644584735.25,P03,D02,1,1,1
817,-8.0,1.0,62.0,1644584735.28125,P03,D02,1,1,1
818,-8.0,1.0,62.0,1644584735.3125,P03,D02,1,1,1
819,-7.0,1.0,62.0,1644584735.34375,P03,D02,1,1,1
820,-7.0,1.0,62.0,1644584735.375,P03,D02,1,1,1
821,-8.0,1.0,62.0,1644584735.40625,P03,D02,1,1,1
822,-8.0,1.0,62.0,1644584735.4375,P03,D02,1,1,1
823,-8.0,1.0,62.0,1644584735.46875,P03,D02,1,1,1
824,-8.0,0.0,62.0,1644584735.5,P03,D02,1,1,1
825,-8.0,1.0,62.0,1644584735.53125,P03,D02,1,1,1
826,-7.0,1.0,62.0,1644584735.5625,P03,D02,1,1,1
827,-8.0,1.0,62.0,1644584735.59375,P03,D02,1,1,1
828,-8.0,1.0,62.0,1644584735.625,P03,D02,1,1,1
829,-8.0,1.0,62.0,1644584735.65625,P03,D02,1,1,1
830,-7.0,1.0,62.0,1644584735.6875,P03,D02,1,1,1
831,-8.0,1.0,62.0,1644584735.71875,P03,D02,1,1,1
832,-8.0,1.0,62.0,1644584735.75,P03,D02,1,1,1
833,-8.0,0.0,62.0,1644584735.78125,P03,D02,1,1,1
834,-8.0,1.0,62.0,1644584735.8125,P03,D02,1,1,1
835,-8.0,1.0,62.0,1644584735.84375,P03,D02,1,1,1
836,-8.0,1.0,62.0,1644584735.875,P03,D02,1,1,1
837,-8.0,1.0,62.0,1644584735.90625,P03,D02,1,1,1
838,-7.0,1.0,62.0,1644584735.9375,P03,D02,1,1,1
839,-8.0,1.0,62.0,1644584735.96875,P03,D02,1,1,1
840,-8.0,1.0,62.0,1644584736.0,P03,D02,1,1,1
841,-8.0,1.0,62.0,1644584736.03125,P03,D02,1,1,1
842,-8.0,1.0,62.0,1644584736.0625,P03,D02,1,1,1
843,-8.0,1.0,62.0,1644584736.09375,P03,D02,1,1,1
844,-8.0,1.0,62.0,1644584736.125,P03,D02,1,1,1
845,-8.0,1.0,62.0,1644584736.15625,P03,D02,1,1,1
846,-8.0,1.0,62.0,1644584736.1875,P03,D02,1,1,1
847,-8.0,1.0,62.0,1644584736.21875,P03,D02,1,1,1
848,-8.0,1.0,62.0,1644584736.25,P03,D02,1,1,1
849,-8.0,1.0,62.0,1644584736.28125,P03,D02,1,1,1
850,-8.0,1.0,62.0,1644584736.3125,P03,D02,1,1,1
851,-8.0,1.0,62.0,1644584736.34375,P03,D02,1,1,1
852,-8.0,1.0,62.0,1644584736.375,P03,D02,1,1,1
853,-8.0,0.0,62.0,1644584736.40625,P03,D02,1,1,1
854,-7.0,1.0,62.0,1644584736.4375,P03,D02,1,1,1
855,-8.0,1.0,62.0,1644584736.46875,P03,D02,1,1,1
856,-7.0,1.0,62.0,1644584736.5,P03,D02,1,1,1
857,-8.0,1.0,62.0,1644584736.53125,P03,D02,1,1,1
858,-8.0,1.0,62.0,1644584736.5625,P03,D02,1,1,1
859,-8.0,0.0,62.0,1644584736.59375,P03,D02,1,1,1
860,-8.0,1.0,62.0,1644584736.625,P03,D02,1,1,1
861,-8.0,1.0,62.0,1644584736.65625,P03,D02,1,1,1
862,-8.0,1.0,62.0,1644584736.6875,P03,D02,1,1,1
863,-8.0,1.0,62.0,1644584736.71875,P03,D02,1,1,1
864,-8.0,1.0,62.0,1644584736.75,P03,D02,1,1,1
865,-8.0,1.0,62.0,1644584736.78125,P03,D02,1,1,1
866,-8.0,1.0,62.0,1644584736.8125,P03,D02,1,1,1
867,-8.0,1.0,62.0,1644584736.84375,P03,D02,1,1,1
868,-8.0,1.0,62.0,1644584736.875,P03,D02,1,1,1
869,-8.0,1.0,62.0,1644584736.90625,P03,D02,1,1,1
870,-8.0,1.0,62.0,1644584736.9375,P03,D02,1,1,1
871,-8.0,1.0,62.0,1644584736.96875,P03,D02,1,1,1
872,-8.0,1.0,62.0,1644584737.0,P03,D02,1,1,1
873,-8.0,1.0,62.0,1644584737.03125,P03,D02,1,1,1
874,-8.0,1.0,62.0,1644584737.0625,P03,D02,1,1,1
875,-8.0,1.0,62.0,1644584737.09375,P03,D02,1,1,1
876,-8.0,1.0,62.0,1644584737.125,P03,D02,1,1,1
877,-8.0,1.0,62.0,1644584737.15625,P03,D02,1,1,1
878,-8.0,0.0,62.0,1644584737.1875,P03,D02,1,1,1
879,-9.0,1.0,62.0,1644584737.21875,P03,D02,1,1,1
880,-8.0,1.0,62.0,1644584737.25,P03,D02,1,1,1
881,-8.0,1.0,62.0,1644584737.28125,P03,D02,1,1,1
882,-8.0,0.0,62.0,1644584737.3125,P03,D02,1,1,1
883,-8.0,1.0,62.0,1644584737.34375,P03,D02,1,1,1
884,-8.0,1.0,62.0,1644584737.375,P03,D02,1,1,1
885,-8.0,1.0,62.0,1644584737.40625,P03,D02,1,1,1
886,-8.0,1.0,62.0,1644584737.4375,P03,D02,1,1,1
887,-8.0,0.0,62.0,1644584737.46875,P03,D02,1,1,1
888,-8.0,1.0,62.0,1644584737.5,P03,D02,1,1,1
889,-8.0,1.0,62.0,1644584737.53125,P03,D02,1,1,1
890,-8.0,1.0,62.0,1644584737.5625,P03,D02,1,1,1
891,-8.0,1.0,62.0,1644584737.59375,P03,D02,1,1,1
892,-8.0,1.0,62.0,1644584737.625,P03,D02,1,1,1
893,-8.0,1.0,62.0,1644584737.65625,P03,D02,1,1,1
894,-8.0,0.0,62.0,1644584737.6875,P03,D02,1,1,1
895,-8.0,1.0,62.0,1644584737.71875,P03,D02,1,1,1
896,-8.0,0.0,62.0,1644584737.75,P03,D02,1,1,1
897,-8.0,1.0,62.0,1644584737.78125,P03,D02,1,1,1
898,-8.0,1.0,62.0,1644584737.8125,P03,D02,1,1,1
899,-8.0,1.0,62.0,1644584737.84375,P03,D02,1,1,1
900,-8.0,1.0,62.0,1644584737.875,P03,D02,1,1,1
901,-8.0,1.0,62.0,1644584737.90625,P03,D02,1,1,1
902,-8.0,1.0,62.0,1644584737.9375,P03,D02,1,1,1
903,-8.0,1.0,62.0,1644584737.96875,P03,D02,1,1,1
904,-8.0,1.0,62.0,1644584738.0,P03,D02,1,1,1
905,-8.0,1.0,62.0,1644584738.03125,P03,D02,1,1,1
906,-8.0,1.0,62.0,1644584738.0625,P03,D02,1,1,1
907,-8.0,1.0,62.0,1644584738.09375,P03,D02,1,1,1
908,-8.0,1.0,62.0,1644584738.125,P03,D02,1,1,1
909,-7.0,1.0,62.0,1644584738.15625,P03,D02,1,1,1
910,-8.0,0.0,62.0,1644584738.1875,P03,D02,1,1,1
911,-8.0,1.0,62.0,1644584738.21875,P03,D02,1,1,1
912,-8.0,1.0,62.0,1644584738.25,P03,D02,1,1,1
913,-8.0,1.0,62.0,1644584738.28125,P03,D02,1,1,1
914,-8.0,1.0,62.0,1644584738.3125,P03,D02,1,1,1
915,-8.0,1.0,62.0,1644584738.34375,P03,D02,1,1,1
916,-8.0,1.0,62.0,1644584738.375,P03,D02,1,1,1
917,-8.0,1.0,62.0,1644584738.40625,P03,D02,1,1,1
918,-8.0,1.0,62.0,1644584738.4375,P03,D02,1,1,1
919,-8.0,1.0,62.0,1644584738.46875,P03,D02,1,1,1
920,-8.0,1.0,62.0,1644584738.5,P03,D02,1,1,1
921,-8.0,1.0,62.0,1644584738.53125,P03,D02,1,1,1
922,-8.0,1.0,62.0,1644584738.5625,P03,D02,1,1,1
923,-8.0,1.0,62.0,1644584738.59375,P03,D02,1,1,1
924,-8.0,1.0,62.0,1644584738.625,P03,D02,1,1,1
925,-7.0,1.0,62.0,1644584738.65625,P03,D02,1,1,1
926,-8.0,1.0,62.0,1644584738.6875,P03,D02,1,1,1
927,-8.0,1.0,62.0,1644584738.71875,P03,D02,1,1,1
928,-8.0,1.0,62.0,1644584738.75,P03,D02,1,1,1
929,-8.0,1.0,62.0,1644584738.78125,P03,D02,1,1,1
930,-8.0,1.0,62.0,1644584738.8125,P03,D02,1,1,1
931,-8.0,1.0,62.0,1644584738.84375,P03,D02,1,1,1
932,-8.0,1.0,62.0,1644584738.875,P03,D02,1,1,1
933,-8.0,0.0,62.0,1644584738.90625,P03,D02,1,1,1
934,-7.0,1.0,62.0,1644584738.9375,P03,D02,1,1,1
935,-8.0,1.0,62.0,1644584738.96875,P03,D02,1,1,1
936,-8.0,1.0,62.0,1644584739.0,P03,D02,1,1,1
937,-8.0,1.0,62.0,1644584739.03125,P03,D02,1,1,1
938,-8.0,1.0,62.0,1644584739.0625,P03,D02,1,1,1
939,-8.0,1.0,62.0,1644584739.09375,P03,D02,1,1,1
940,-8.0,1.0,62.0,1644584739.125,P03,D02,1,1,1
941,-8.0,1.0,62.0,1644584739.15625,P03,D02,1,1,1
942,-8.0,1.0,62.0,1644584739.1875,P03,D02,1,1,1
943,-8.0,1.0,62.0,1644584739.21875,P03,D02,1,1,1
944,-8.0,1.0,62.0,1644584739.25,P03,D02,1,1,1
945,-8.0,1.0,62.0,1644584739.28125,P03,D02,1,1,1
946,-8.0,1.0,62.0,1644584739.3125,P03,D02,1,1,1
947,-8.0,1.0,62.0,1644584739.34375,P03,D02,1,1,1
948,-8.0,1.0,62.0,1644584739.375,P03,D02,1,1,1
949,-8.0,1.0,62.0,1644584739.40625,P03,D02,1,1,1
950,-8.0,1.0,62.0,1644584739.4375,P03,D02,1,1,1
951,-7.0,1.0,62.0,1644584739.46875,P03,D02,1,1,1
952,-7.0,1.0,62.0,1644584739.5,P03,D02,1,1,1
953,-8.0,0.0,61.0,1644584739.53125,P03,D02,1,1,1
954,-8.0,1.0,62.0,1644584739.5625,P03,D02,1,1,1
955,-8.0,1.0,62.0,1644584739.59375,P03,D02,1,1,1
956,-8.0,1.0,62.0,1644584739.625,P03,D02,1,1,1
957,-8.0,1.0,62.0,1644584739.65625,P03,D02,1,1,1
958,-8.0,0.0,62.0,1644584739.6875,P03,D02,1,1,1
959,-8.0,1.0,62.0,1644584739.71875,P03,D02,1,1,1
960,-8.0,1.0,62.0,1644584739.75,P03,D02,1,1,1
961,-8.0,1.0,62.0,1644584739.78125,P03,D02,1,1,1
962,-8.0,1.0,62.0,1644584739.8125,P03,D02,1,1,1
963,-8.0,1.0,62.0,1644584739.84375,P03,D02,1,1,1
964,-7.0,1.0,62.0,1644584739.875,P03,D02,1,1,1
965,-8.0,1.0,62.0,1644584739.90625,P03,D02,1,1,1
966,-8.0,1.0,62.0,1644584739.9375,P03,D02,1,1,1
967,-7.0,1.0,62.0,1644584739.96875,P03,D02,1,1,1
968,-8.0,1.0,62.0,1644584740.0,P03,D02,1,1,1
969,-8.0,1.0,62.0,1644584740.03125,P03,D02,1,1,1
970,-8.0,1.0,62.0,1644584740.0625,P03,D02,1,1,1
971,-8.0,1.0,62.0,1644584740.09375,P03,D02,1,1,1
972,-8.0,1.0,62.0,1644584740.125,P03,D02,1,1,1
973,-8.0,1.0,62.0,1644584740.15625,P03,D02,1,1,1
974,-8.0,1.0,62.0,1644584740.1875,P03,D02,1,1,1
975,-8.0,1.0,62.0,1644584740.21875,P03,D02,1,1,1
976,-8.0,1.0,62.0,1644584740.25,P03,D02,1,1,1
977,-8.0,1.0,62.0,1644584740.28125,P03,D02,1,1,1
978,-7.0,1.0,62.0,1644584740.3125,P03,D02,1,1,1
979,-8.0,0.0,62.0,1644584740.34375,P03,D02,1,1,1
980,-8.0,1.0,62.0,1644584740.375,P03,D02,1,1,1
981,-8.0,1.0,62.0,1644584740.40625,P03,D02,1,1,1
982,-8.0,1.0,62.0,1644584740.4375,P03,D02,1,1,1
983,-7.0,1.0,62.0,1644584740.46875,P03,D02,1,1,1
984,-7.0,1.0,62.0,1644584740.5,P03,D02,1,1,1
985,-8.0,1.0,62.0,1644584740.53125,P03,D02,1,1,1
986,-7.0,1.0,62.0,1644584740.5625,P03,D02,1,1,1
987,-8.0,1.0,62.0,1644584740.59375,P03,D02,1,1,1
988,-8.0,1.0,62.0,1644584740.625,P03,D02,1,1,1
989,-7.0,1.0,62.0,1644584740.65625,P03,D02,1,1,1
990,-8.0,1.0,62.0,1644584740.6875,P03,D02,1,1,1
991,-8.0,1.0,62.0,1644584740.71875,P03,D02,1,1,1
992,-7.0,1.0,62.0,1644584740.75,P03,D02,1,1,1
993,-8.0,1.0,62.0,1644584740.78125,P03,D02,1,1,1
994,-8.0,1.0,62.0,1644584740.8125,P03,D02,1,1,1
995,-7.0,1.0,62.0,1644584740.84375,P03,D02,1,1,1
996,-8.0,1.0,62.0,1644584740.875,P03,D02,1,1,1
997,-8.0,0.0,62.0,1644584740.90625,P03,D02,1,1,1
998,-7.0,1.0,62.0,1644584740.9375,P03,D02,1,1,1
999,-8.0,1.0,62.0,1644584740.96875,P03,D02,1,1,1
1000,-8.0,1.0,62.0,1644584741.0,P03,D02,1,1,1
1001,-7.0,0.0,62.0,1644584741.03125,P03,D02,1,1,1
1002,-8.0,1.0,62.0,1644584741.0625,P03,D02,1,1,1
1003,-8.0,0.0,62.0,1644584741.09375,P03,D02,1,1,1
1004,-8.0,1.0,62.0,1644584741.125,P03,D02,1,1,1
1005,-8.0,1.0,62.0,1644584741.15625,P03,D02,1,1,1
1006,-8.0,1.0,62.0,1644584741.1875,P03,D02,1,1,1
1007,-8.0,1.0,62.0,1644584741.21875,P03,D02,1,1,1
1008,-7.0,1.0,62.0,1644584741.25,P03,D02,1,1,1
1009,-8.0,1.0,62.0,1644584741.28125,P03,D02,1,1,1
1010,-8.0,1.0,62.0,1644584741.3125,P03,D02,1,1,1
1011,-8.0,1.0,62.0,1644584741.34375,P03,D02,1,1,1
1012,-8.0,1.0,62.0,1644584741.375,P03,D02,1,1,1
1013,-7.0,1.0,62.0,1644584741.40625,P03,D02,1,1,1
1014,-7.0,1.0,62.0,1644584741.4375,P03,D02,1,1,1
1015,-8.0,0.0,62.0,1644584741.46875,P03,D02,1,1,1
1016,-8.0,1.0,62.0,1644584741.5,P03,D02,1,1,1
1017,-8.0,1.0,62.0,1644584741.53125,P03,D02,1,1,1
1018,-8.0,1.0,62.0,1644584741.5625,P03,D02,1,1,1
1019,-8.0,1.0,62.0,1644584741.59375,P03,D02,1,1,1
1020,-8.0,1.0,62.0,1644584741.625,P03,D02,1,1,1
1021,-8.0,1.0,62.0,1644584741.65625,P03,D02,1,1,1
1022,-7.0,1.0,62.0,1644584741.6875,P03,D02,1,1,1
1023,-8.0,1.0,62.0,1644584741.71875,P03,D02,1,1,1
1024,-8.0,1.0,62.0,1644584741.75,P03,D02,1,1,1
1025,-8.0,1.0,62.0,1644584741.78125,P03,D02,1,1,1
1026,-7.0,1.0,62.0,1644584741.8125,P03,D02,1,1,1
1027,-8.0,1.0,62.0,1644584741.84375,P03,D02,1,1,1
1028,-8.0,1.0,62.0,1644584741.875,P03,D02,1,1,1
1029,-8.0,1.0,62.0,1644584741.90625,P03,D02,1,1,1
1030,-8.0,1.0,62.0,1644584741.9375,P03,D02,1,1,1
1031,-8.0,1.0,62.0,1644584741.96875,P03,D02,1,1,1
1032,-8.0,1.0,62.0,1644584742.0,P03,D02,1,1,1
1033,-8.0,1.0,62.0,1644584742.03125,P03,D02,1,1,1
1034,-8.0,1.0,62.0,1644584742.0625,P03,D02,1,1,1
1035,-8.0,1.0,62.0,1644584742.09375,P03,D02,1,1,1
1036,-7.0,1.0,62.0,1644584742.125,P03,D02,1,1,1
1037,-7.0,1.0,62.0,1644584742.15625,P03,D02,1,1,1
1038,-8.0,1.0,62.0,1644584742.1875,P03,D02,1,1,1
1039,-8.0,1.0,62.0,1644584742.21875,P03,D02,1,1,1
1040,-7.0,1.0,62.0,1644584742.25,P03,D02,1,1,1
1041,-8.0,1.0,62.0,1644584742.28125,P03,D02,1,1,1
1042,-8.0,0.0,62.0,1644584742.3125,P03,D02,1,1,1
1043,-8.0,1.0,62.0,1644584742.34375,P03,D02,1,1,1
1044,-7.0,1.0,62.0,1644584742.375,P03,D02,1,1,1
1045,-8.0,1.0,62.0,1644584742.40625,P03,D02,1,1,1
1046,-8.0,1.0,62.0,1644584742.4375,P03,D02,1,1,1
1047,-7.0,1.0,62.0,1644584742.46875,P03,D02,1,1,1
1048,-8.0,1.0,62.0,1644584742.5,P03,D02,1,1,1
1049,-8.0,0.0,62.0,1644584742.53125,P03,D02,1,1,1
1050,-7.0,1.0,62.0,1644584742.5625,P03,D02,1,1,1
1051,-8.0,1.0,62.0,1644584742.59375,P03,D02,1,1,1
1052,-8.0,1.0,62.0,1644584742.625,P03,D02,1,1,1
1053,-7.0,0.0,62.0,1644584742.65625,P03,D02,1,1,1
1054,-8.0,1.0,62.0,1644584742.6875,P03,D02,1,1,1
1055,-8.0,1.0,62.0,1644584742.71875,P03,D02,1,1,1
1056,-8.0,1.0,62.0,1644584742.75,P03,D02,1,1,1
1057,-8.0,1.0,62.0,1644584742.78125,P03,D02,1,1,1
1058,-8.0,1.0,62.0,1644584742.8125,P03,D02,1,1,1
1059,-7.0,1.0,62.0,1644584742.84375,P03,D02,1,1,1
1060,-8.0,1.0,62.0,1644584742.875,P03,D02,1,1,1
1061,-8.0,1.0,62.0,1644584742.90625,P03,D02,1,1,1
1062,-8.0,1.0,62.0,1644584742.9375,P03,D02,1,1,1
1063,-7.0,0.0,62.0,1644584742.96875,P03,D02,1,1,1
1064,-8.0,0.0,62.0,1644584743.0,P03,D02,1,1,1
1065,-8.0,0.0,62.0,1644584743.03125,P03,D02,1,1,1
1066,-7.0,1.0,62.0,1644584743.0625,P03,D02,1,1,1
1067,-8.0,1.0,62.0,1644584743.09375,P03,D02,1,1,1
1068,-8.0,1.0,62.0,1644584743.125,P03,D02,1,1,1
1069,-8.0,1.0,62.0,1644584743.15625,P03,D02,1,1,1
1070,-7.0,1.0,62.0,1644584743.1875,P03,D02,1,1,1
1071,-8.0,1.0,62.0,1644584743.21875,P03,D02,1,1,1
1072,-8.0,0.0,62.0,1644584743.25,P03,D02,1,1,1
1073,-8.0,1.0,62.0,1644584743.28125,P03,D02,1,1,1
1074,-7.0,1.0,62.0,1644584743.3125,P03,D02,1,1,1
1075,-8.0,1.0,62.0,1644584743.34375,P03,D02,1,1,1
1076,-8.0,0.0,62.0,1644584743.375,P03,D02,1,1,1
1077,-8.0,1.0,62.0,1644584743.40625,P03,D02,1,1,1
1078,-8.0,1.0,62.0,1644584743.4375,P03,D02,1,1,1
1079,-8.0,1.0,62.0,1644584743.46875,P03,D02,1,1,1
1080,-8.0,0.0,62.0,1644584743.5,P03,D02,1,1,1
1081,-8.0,1.0,62.0,1644584743.53125,P03,D02,1,1,1
1082,-8.0,1.0,62.0,1644584743.5625,P03,D02,1,1,1
1083,-7.0,1.0,62.0,1644584743.59375,P03,D02,1,1,1
1084,-8.0,0.0,62.0,1644584743.625,P03,D02,1,1,1
1085,-8.0,1.0,62.0,1644584743.65625,P03,D02,1,1,1
1086,-7.0,1.0,62.0,1644584743.6875,P03,D02,1,1,1
1087,-8.0,0.0,62.0,1644584743.71875,P03,D02,1,1,1
1088,-8.0,1.0,62.0,1644584743.75,P03,D02,1,1,1
1089,-8.0,1.0,62.0,1644584743.78125,P03,D02,1,1,1
1090,-8.0,1.0,62.0,1644584743.8125,P03,D02,1,1,1
1091,-8.0,1.0,62.0,1644584743.84375,P03,D02,1,1,1
1092,-7.0,0.0,62.0,1644584743.875,P03,D02,1,1,1
1093,-8.0,1.0,62.0,1644584743.90625,P03,D02,1,1,1
1094,-8.0,1.0,62.0,1644584743.9375,P03,D02,1,1,1
1095,-7.0,1.0,62.0,1644584743.96875,P03,D02,1,1,1
1096,-8.0,1.0,62.0,1644584744.0,P03,D02,1,1,1
1097,-8.0,1.0,62.0,1644584744.03125,P03,D02,1,1,1
1098,-8.0,1.0,62.0,1644584744.0625,P03,D02,1,1,1
1099,-8.0,1.0,62.0,1644584744.09375,P03,D02,1,1,1
1100,-8.0,1.0,62.0,1644584744.125,P03,D02,1,1,1
1101,-8.0,1.0,62.0,1644584744.15625,P03,D02,1,1,1
1102,-7.0,1.0,62.0,1644584744.1875,P03,D02,1,1,1
1103,-8.0,1.0,62.0,1644584744.21875,P03,D02,1,1,1
1104,-8.0,0.0,62.0,1644584744.25,P03,D02,1,1,1
1105,-8.0,1.0,62.0,1644584744.28125,P03,D02,1,1,1
1106,-8.0,1.0,62.0,1644584744.3125,P03,D02,1,1,1
1107,-8.0,0.0,62.0,1644584744.34375,P03,D02,1,1,1
1108,-8.0,1.0,62.0,1644584744.375,P03,D02,1,1,1
1109,-8.0,1.0,62.0,1644584744.40625,P03,D02,1,1,1
1110,-8.0,1.0,62.0,1644584744.4375,P03,D02,1,1,1
1111,-8.0,1.0,62.0,1644584744.46875,P03,D02,1,1,1
1112,-8.0,1.0,62.0,1644584744.5,P03,D02,1,1,1
1113,-8.0,1.0,62.0,1644584744.53125,P03,D02,1,1,1
1114,-7.0,1.0,62.0,1644584744.5625,P03,D02,1,1,1
1115,-8.0,1.0,62.0,1644584744.59375,P03,D02,1,1,1
1116,-8.0,1.0,62.0,1644584744.625,P03,D02,1,1,1
1117,-7.0,1.0,62.0,1644584744.65625,P03,D02,1,1,1
1118,-7.0,1.0,62.0,1644584744.6875,P03,D02,1,1,1
1119,-8.0,1.0,62.0,1644584744.71875,P03,D02,1,1,1
1120,-8.0,1.0,62.0,1644584744.75,P03,D02,1,1,1
1121,-8.0,1.0,62.0,1644584744.78125,P03,D02,1,1,1
1122,-8.0,1.0,62.0,1644584744.8125,P03,D02,1,1,1
1123,-8.0,1.0,62.0,1644584744.84375,P03,D02,1,1,1
1124,-8.0,1.0,62.0,1644584744.875,P03,D02,1,1,1
1125,-8.0,1.0,62.0,1644584744.90625,P03,D02,1,1,1
1126,-8.0,1.0,62.0,1644584744.9375,P03,D02,1,1,1
1127,-8.0,1.0,62.0,1644584744.96875,P03,D02,1,1,1
1128,-8.0,1.0,62.0,1644584745.0,P03,D02,1,1,1
1129,-8.0,1.0,62.0,1644584745.03125,P03,D02,1,1,1
1130,-8.0,1.0,62.0,1644584745.0625,P03,D02,1,1,1
1131,-8.0,1.0,62.0,1644584745.09375,P03,D02,1,1,1
1132,-8.0,1.0,62.0,1644584745.125,P03,D02,1,1,1
1133,-8.0,1.0,62.0,1644584745.15625,P03,D02,1,1,1
1134,-8.0,1.0,62.0,1644584745.1875,P03,D02,1,1,1
1135,-8.0,1.0,62.0,1644584745.21875,P03,D02,1,1,1
1136,-8.0,1.0,62.0,1644584745.25,P03,D02,1,1,1
1137,-8.0,1.0,62.0,1644584745.28125,P03,D02,1,1,1
1138,-8.0,1.0,62.0,1644584745.3125,P03,D02,1,1,1
1139,-8.0,1.0,62.0,1644584745.34375,P03,D02,1,1,1
1140,-8.0,1.0,62.0,1644584745.375,P03,D02,1,1,1
1141,-8.0,1.0,62.0,1644584745.40625,P03,D02,1,1,1
1142,-8.0,1.0,62.0,1644584745.4375,P03,D02,1,1,1
1143,-8.0,1.0,62.0,1644584745.46875,P03,D02,1,1,1
1144,-8.0,1.0,62.0,1644584745.5,P03,D02,1,1,1
1145,-8.0,1.0,62.0,1644584745.53125,P03,D02,1,1,1
1146,-8.0,1.0,62.0,1644584745.5625,P03,D02,1,1,1
1147,-8.0,1.0,62.0,1644584745.59375,P03,D02,1,1,1
1148,-8.0,1.0,62.0,1644584745.625,P03,D02,1,1,1
1149,-8.0,1.0,62.0,1644584745.65625,P03,D02,1,1,1
1150,-8.0,1.0,62.0,1644584745.6875,P03,D02,1,1,1
1151,-8.0,1.0,62.0,1644584745.71875,P03,D02,1,1,1
1152,-8.0,1.0,62.0,1644584745.75,P03,D02,1,1,1
1153,-8.0,1.0,62.0,1644584745.78125,P03,D02,1,1,1
1154,-8.0,1.0,62.0,1644584745.8125,P03,D02,1,1,1
1155,-8.0,1.0,62.0,1644584745.84375,P03,D02,1,1,1
1156,-7.0,1.0,62.0,1644584745.875,P03,D02,1,1,1
1157,-8.0,1.0,62.0,1644584745.90625,P03,D02,1,1,1
1158,-8.0,0.0,62.0,1644584745.9375,P03,D02,1,1,1
1159,-8.0,1.0,62.0,1644584745.96875,P03,D02,1,1,1
1160,-8.0,1.0,62.0,1644584746.0,P03,D02,1,1,1
1161,-8.0,1.0,62.0,1644584746.03125,P03,D02,1,1,1
1162,-8.0,1.0,62.0,1644584746.0625,P03,D02,1,1,1
1163,-8.0,1.0,62.0,1644584746.09375,P03,D02,1,1,1
1164,-8.0,1.0,62.0,1644584746.125,P03,D02,1,1,1
1165,-8.0,1.0,62.0,1644584746.15625,P03,D02,1,1,1
1166,-8.0,1.0,62.0,1644584746.1875,P03,D02,1,1,1
1167,-8.0,1.0,62.0,1644584746.21875,P03,D02,1,1,1
1168,-7.0,1.0,62.0,1644584746.25,P03,D02,1,1,1
1169,-8.0,1.0,62.0,1644584746.28125,P03,D02,1,1,1
1170,-8.0,1.0,62.0,1644584746.3125,P03,D02,1,1,1
1171,-8.0,1.0,62.0,1644584746.34375,P03,D02,1,1,1
1172,-8.0,1.0,62.0,1644584746.375,P03,D02,1,1,1
1173,-8.0,1.0,62.0,1644584746.40625,P03,D02,1,1,1
1174,-8.0,1.0,62.0,1644584746.4375,P03,D02,1,1,1
1175,-8.0,1.0,62.0,1644584746.46875,P03,D02,1,1,1
1176,-7.0,1.0,62.0,1644584746.5,P03,D02,1,1,1
1177,-8.0,1.0,62.0,1644584746.53125,P03,D02,1,1,1
1178,-8.0,1.0,62.0,1644584746.5625,P03,D02,1,1,1
1179,-8.0,1.0,62.0,1644584746.59375,P03,D02,1,1,1
1180,-8.0,1.0,62.0,1644584746.625,P03,D02,1,1,1
1181,-8.0,1.0,62.0,1644584746.65625,P03,D02,1,1,1
1182,-9.0,0.0,62.0,1644584746.6875,P03,D02,1,1,1
1183,-7.0,1.0,62.0,1644584746.71875,P03,D02,1,1,1
1184,-8.0,1.0,62.0,1644584746.75,P03,D02,1,1,1
1185,-9.0,1.0,62.0,1644584746.78125,P03,D02,1,1,1
1186,-8.0,0.0,62.0,1644584746.8125,P03,D02,1,1,1
1187,-8.0,1.0,62.0,1644584746.84375,P03,D02,1,1,1
1188,-8.0,0.0,62.0,1644584746.875,P03,D02,1,1,1
1189,-7.0,0.0,62.0,1644584746.90625,P03,D02,1,1,1
1190,-8.0,1.0,62.0,1644584746.9375,P03,D02,1,1,1
1191,-8.0,1.0,62.0,1644584746.96875,P03,D02,1,1,1
1192,-8.0,1.0,62.0,1644584747.0,P03,D02,1,1,1
1193,-8.0,1.0,62.0,1644584747.03125,P03,D02,1,1,1
1194,-8.0,1.0,62.0,1644584747.0625,P03,D02,1,1,1
1195,-8.0,1.0,62.0,1644584747.09375,P03,D02,1,1,1
1196,-8.0,1.0,62.0,1644584747.125,P03,D02,1,1,1
1197,-8.0,1.0,62.0,1644584747.15625,P03,D02,1,1,1
1198,-8.0,1.0,62.0,1644584747.1875,P03,D02,1,1,1
1199,-8.0,1.0,62.0,1644584747.21875,P03,D02,1,1,1
1200,-8.0,1.0,62.0,1644584747.25,P03,D02,1,1,1
1201,-8.0,1.0,62.0,1644584747.28125,P03,D02,1,1,1
1202,-9.0,1.0,62.0,1644584747.3125,P03,D02,1,1,1
1203,-8.0,1.0,62.0,1644584747.34375,P03,D02,1,1,1
1204,-8.0,1.0,62.0,1644584747.375,P03,D02,1,1,1
1205,-8.0,1.0,62.0,1644584747.40625,P03,D02,1,1,1
1206,-8.0,1.0,62.0,1644584747.4375,P03,D02,1,1,1
1207,-8.0,1.0,62.0,1644584747.46875,P03,D02,1,1,1
1208,-8.0,1.0,62.0,1644584747.5,P03,D02,1,1,1
1209,-9.0,1.0,62.0,1644584747.53125,P03,D02,1,1,1
1210,-9.0,1.0,62.0,1644584747.5625,P03,D02,1,1,1
1211,-6.0,0.0,62.0,1644584747.59375,P03,D02,1,1,1
1212,-7.0,1.0,63.0,1644584747.625,P03,D02,1,1,1
1213,-9.0,1.0,62.0,1644584747.65625,P03,D02,1,1,1
1214,-9.0,1.0,62.0,1644584747.6875,P03,D02,1,1,1
1215,-7.0,1.0,62.0,1644584747.71875,P03,D02,1,1,1
1216,-8.0,1.0,62.0,1644584747.75,P03,D02,1,1,1
1217,-9.0,1.0,62.0,1644584747.78125,P03,D02,1,1,1
1218,-8.0,1.0,62.0,1644584747.8125,P03,D02,1,1,1
1219,-8.0,1.0,62.0,1644584747.84375,P03,D02,1,1,1
1220,-8.0,1.0,62.0,1644584747.875,P03,D02,1,1,1
1221,-8.0,1.0,62.0,1644584747.90625,P03,D02,1,1,1
1222,-8.0,1.0,62.0,1644584747.9375,P03,D02,1,1,1
1223,-8.0,1.0,62.0,1644584747.96875,P03,D02,1,1,1
1224,-8.0,1.0,62.0,1644584748.0,P03,D02,1,1,1
1225,-8.0,1.0,62.0,1644584748.03125,P03,D02,1,1,1
1226,-8.0,1.0,62.0,1644584748.0625,P03,D02,1,1,1
1227,-8.0,1.0,62.0,1644584748.09375,P03,D02,1,1,1
1228,-8.0,1.0,62.0,1644584748.125,P03,D02,1,1,1
1229,-8.0,1.0,62.0,1644584748.15625,P03,D02,1,1,1
1230,-8.0,1.0,62.0,1644584748.1875,P03,D02,1,1,1
1231,-8.0,1.0,62.0,1644584748.21875,P03,D02,1,1,1
1232,-8.0,1.0,62.0,1644584748.25,P03,D02,1,1,1
1233,-8.0,1.0,62.0,1644584748.28125,P03,D02,1,1,1
1234,-8.0,1.0,62.0,1644584748.3125,P03,D02,1,1,1
1235,-8.0,1.0,62.0,1644584748.34375,P03,D02,1,1,1
1236,-8.0,1.0,62.0,1644584748.375,P03,D02,1,1,1
1237,-8.0,1.0,62.0,1644584748.40625,P03,D02,1,1,1
1238,-8.0,1.0,62.0,1644584748.4375,P03,D02,1,1,1
1239,-8.0,1.0,62.0,1644584748.46875,P03,D02,1,1,1
1240,-8.0,1.0,62.0,1644584748.5,P03,D02,1,1,1
1241,-8.0,1.0,62.0,1644584748.53125,P03,D02,1,1,1
1242,-8.0,1.0,62.0,1644584748.5625,P03,D02,1,1,1
1243,-8.0,1.0,62.0,1644584748.59375,P03,D02,1,1,1
1244,-8.0,1.0,62.0,1644584748.625,P03,D02,1,1,1
1245,-8.0,1.0,62.0,1644584748.65625,P03,D02,1,1,1
1246,-8.0,1.0,62.0,1644584748.6875,P03,D02,1,1,1
1247,-8.0,1.0,62.0,1644584748.71875,P03,D02,1,1,1
1248,-8.0,1.0,62.0,1644584748.75,P03,D02,1,1,1
1249,-7.0,1.0,62.0,1644584748.78125,P03,D02,1,1,1
1250,-8.0,1.0,62.0,1644584748.8125,P03,D02,1,1,1
1251,-8.0,1.0,62.0,1644584748.84375,P03,D02,1,1,1
1252,-8.0,1.0,62.0,1644584748.875,P03,D02,1,1,1
1253,-8.0,1.0,62.0,1644584748.90625,P03,D02,1,1,1
1254,-8.0,1.0,62.0,1644584748.9375,P03,D02,1,1,1
1255,-8.0,1.0,62.0,1644584748.96875,P03,D02,1,1,1
1256,-8.0,1.0,62.0,1644584749.0,P03,D02,1,1,1
1257,-8.0,1.0,62.0,1644584749.03125,P03,D02,1,1,1
1258,-8.0,1.0,62.0,1644584749.0625,P03,D02,1,1,1
1259,-8.0,1.0,62.0,1644584749.09375,P03,D02,1,1,1
1260,-8.0,1.0,62.0,1644584749.125,P03,D02,1,1,1
1261,-8.0,1.0,62.0,1644584749.15625,P03,D02,1,1,1
1262,-8.0,1.0,62.0,1644584749.1875,P03,D02,1,1,1
1263,-8.0,1.0,62.0,1644584749.21875,P03,D02,1,1,1
1264,-8.0,1.0,62.0,1644584749.25,P03,D02,1,1,1
1265,-8.0,1.0,62.0,1644584749.28125,P03,D02,1,1,1
1266,-8.0,1.0,62.0,1644584749.3125,P03,D02,1,1,1
1267,-8.0,1.0,62.0,1644584749.34375,P03,D02,1,1,1
1268,-7.0,1.0,62.0,1644584749.375,P03,D02,1,1,1
1269,-8.0,1.0,62.0,1644584749.40625,P03,D02,1,1,1
1270,-8.0,1.0,62.0,1644584749.4375,P03,D02,1,1,1
1271,-8.0,1.0,62.0,1644584749.46875,P03,D02,1,1,1
1272,-7.0,0.0,62.0,1644584749.5,P03,D02,1,1,1
1273,-7.0,1.0,62.0,1644584749.53125,P03,D02,1,1,1
1274,-8.0,1.0,62.0,1644584749.5625,P03,D02,1,1,1
1275,-8.0,1.0,62.0,1644584749.59375,P03,D02,1,1,1
1276,-8.0,1.0,62.0,1644584749.625,P03,D02,1,1,1
1277,-7.0,1.0,62.0,1644584749.65625,P03,D02,1,1,1
1278,-7.0,1.0,62.0,1644584749.6875,P03,D02,1,1,1
1279,-8.0,1.0,62.0,1644584749.71875,P03,D02,1,1,1
1280,-8.0,1.0,62.0,1644584749.75,P03,D02,1,1,1
1281,-7.0,1.0,62.0,1644584749.78125,P03,D02,1,1,1
1282,-7.0,1.0,62.0,1644584749.8125,P03,D02,1,1,1
1283,-8.0,0.0,62.0,1644584749.84375,P03,D02,1,1,1
1284,-7.0,1.0,62.0,1644584749.875,P03,D02,1,1,1
1285,-8.0,1.0,62.0,1644584749.90625,P03,D02,1,1,1
1286,-7.0,1.0,62.0,1644584749.9375,P03,D02,1,1,1
1287,-7.0,1.0,62.0,1644584749.96875,P03,D02,1,1,1
1288,-8.0,1.0,62.0,1644584750.0,P03,D02,1,1,1
1289,-8.0,0.0,62.0,1644584750.03125,P03,D02,1,1,1
1290,-7.0,1.0,62.0,1644584750.0625,P03,D02,1,1,1
1291,-8.0,1.0,62.0,1644584750.09375,P03,D02,1,1,1
1292,-8.0,1.0,62.0,1644584750.125,P03,D02,1,1,1
1293,-7.0,1.0,62.0,1644584750.15625,P03,D02,1,1,1
1294,-8.0,1.0,62.0,1644584750.1875,P03,D02,1,1,1
1295,-7.0,1.0,62.0,1644584750.21875,P03,D02,1,1,1
1296,-8.0,1.0,62.0,1644584750.25,P03,D02,1,1,1
1297,-8.0,1.0,62.0,1644584750.28125,P03,D02,1,1,1
1298,-7.0,1.0,62.0,1644584750.3125,P03,D02,1,1,1
1299,-8.0,1.0,62.0,1644584750.34375,P03,D02,1,1,1
1300,-8.0,1.0,62.0,1644584750.375,P03,D02,1,1,1
1301,-7.0,0.0,62.0,1644584750.40625,P03,D02,1,1,1
1302,-7.0,1.0,62.0,1644584750.4375,P03,D02,1,1,1
1303,-7.0,1.0,62.0,1644584750.46875,P03,D02,1,1,1
1304,-7.0,1.0,62.0,1644584750.5,P03,D02,1,1,1
1305,-8.0,1.0,62.0,1644584750.53125,P03,D02,1,1,1
1306,-7.0,1.0,62.0,1644584750.5625,P03,D02,1,1,1
1307,-7.0,1.0,62.0,1644584750.59375,P03,D02,1,1,1
1308,-7.0,1.0,62.0,1644584750.625,P03,D02,1,1,1
1309,-8.0,1.0,62.0,1644584750.65625,P03,D02,1,1,1
1310,-7.0,1.0,62.0,1644584750.6875,P03,D02,1,1,1
1311,-7.0,1.0,62.0,1644584750.71875,P03,D02,1,1,1
1312,-8.0,1.0,62.0,1644584750.75,P03,D02,1,1,1
1313,-8.0,1.0,62.0,1644584750.78125,P03,D02,1,1,1
1314,-7.0,1.0,62.0,1644584750.8125,P03,D02,1,1,1
1315,-7.0,1.0,62.0,1644584750.84375,P03,D02,1,1,1
1316,-8.0,1.0,62.0,1644584750.875,P03,D02,1,1,1
1317,-7.0,1.0,62.0,1644584750.90625,P03,D02,1,1,1
1318,-8.0,1.0,62.0,1644584750.9375,P03,D02,1,1,1
1319,-8.0,1.0,62.0,1644584750.96875,P03,D02,1,1,1
1320,-7.0,1.0,62.0,1644584751.0,P03,D02,1,1,1
1321,-7.0,1.0,62.0,1644584751.03125,P03,D02,1,1,1
1322,-8.0,1.0,62.0,1644584751.0625,P03,D02,1,1,1
1323,-8.0,1.0,62.0,1644584751.09375,P03,D02,1,1,1
1324,-8.0,1.0,62.0,1644584751.125,P03,D02,1,1,1
1325,-7.0,1.0,62.0,1644584751.15625,P03,D02,1,1,1
1326,-8.0,1.0,62.0,1644584751.1875,P03,D02,1,1,1
1327,-8.0,1.0,62.0,1644584751.21875,P03,D02,1,1,1
1328,-8.0,1.0,62.0,1644584751.25,P03,D02,1,1,1
1329,-7.0,1.0,62.0,1644584751.28125,P03,D02,1,1,1
1330,-8.0,1.0,62.0,1644584751.3125,P03,D02,1,1,1
1331,-8.0,1.0,62.0,1644584751.34375,P03,D02,1,1,1
1332,-8.0,1.0,62.0,1644584751.375,P03,D02,1,1,1
1333,-8.0,1.0,62.0,1644584751.40625,P03,D02,1,1,1
1334,-8.0,1.0,62.0,1644584751.4375,P03,D02,1,1,1
1335,-8.0,0.0,62.0,1644584751.46875,P03,D02,1,1,1
1336,-8.0,1.0,62.0,1644584751.5,P03,D02,1,1,1
1337,-8.0,1.0,62.0,1644584751.53125,P03,D02,1,1,1
1338,-8.0,1.0,62.0,1644584751.5625,P03,D02,1,1,1
1339,-8.0,1.0,62.0,1644584751.59375,P03,D02,1,1,1
1340,-8.0,1.0,62.0,1644584751.625,P03,D02,1,1,1
1341,-8.0,1.0,62.0,1644584751.65625,P03,D02,1,1,1
1342,-8.0,1.0,62.0,1644584751.6875,P03,D02,1,1,1
1343,-8.0,1.0,62.0,1644584751.71875,P03,D02,1,1,1
1344,-8.0,1.0,62.0,1644584751.75,P03,D02,1,1,1
1345,-8.0,1.0,62.0,1644584751.78125,P03,D02,1,1,1
1346,-8.0,1.0,62.0,1644584751.8125,P03,D02,1,1,1
1347,-8.0,1.0,62.0,1644584751.84375,P03,D02,1,1,1
1348,-8.0,1.0,62.0,1644584751.875,P03,D02,1,1,1
1349,-8.0,1.0,62.0,1644584751.90625,P03,D02,1,1,1
1350,-8.0,1.0,62.0,1644584751.9375,P03,D02,1,1,1
1351,-8.0,1.0,62.0,1644584751.96875,P03,D02,1,1,1
1352,-8.0,1.0,62.0,1644584752.0,P03,D02,1,1,1
1353,-8.0,1.0,62.0,1644584752.03125,P03,D02,1,1,1
1354,-8.0,1.0,62.0,1644584752.0625,P03,D02,1,1,1
1355,-8.0,1.0,62.0,1644584752.09375,P03,D02,1,1,1
1356,-8.0,1.0,62.0,1644584752.125,P03,D02,1,1,1
1357,-8.0,1.0,62.0,1644584752.15625,P03,D02,1,1,1
1358,-8.0,1.0,62.0,1644584752.1875,P03,D02,1,1,1
1359,-8.0,1.0,62.0,1644584752.21875,P03,D02,1,1,1
1360,-8.0,1.0,62.0,1644584752.25,P03,D02,1,1,1
1361,-8.0,1.0,62.0,1644584752.28125,P03,D02,1,1,1
1362,-8.0,1.0,62.0,1644584752.3125,P03,D02,1,1,1
1363,-8.0,1.0,62.0,1644584752.34375,P03,D02,1,1,1
1364,-8.0,1.0,62.0,1644584752.375,P03,D02,1,1,1
1365,-8.0,1.0,62.0,1644584752.40625,P03,D02,1,1,1
1366,-8.0,1.0,62.0,1644584752.4375,P03,D02,1,1,1
1367,-8.0,1.0,62.0,1644584752.46875,P03,D02,1,1,1
1368,-8.0,1.0,62.0,1644584752.5,P03,D02,1,1,1
1369,-8.0,1.0,62.0,1644584752.53125,P03,D02,1,1,1
1370,-8.0,1.0,62.0,1644584752.5625,P03,D02,1,1,1
1371,-8.0,1.0,62.0,1644584752.59375,P03,D02,1,1,1
1372,-8.0,1.0,62.0,1644584752.625,P03,D02,1,1,1
1373,-8.0,1.0,62.0,1644584752.65625,P03,D02,1,1,1
1374,-9.0,1.0,62.0,1644584752.6875,P03,D02,1,1,1
1375,-8.0,1.0,62.0,1644584752.71875,P03,D02,1,1,1
1376,-8.0,1.0,62.0,1644584752.75,P03,D02,1,1,1
1377,-8.0,1.0,62.0,1644584752.78125,P03,D02,1,1,1
1378,-8.0,1.0,62.0,1644584752.8125,P03,D02,1,1,1
1379,-8.0,1.0,62.0,1644584752.84375,P03,D02,1,1,1
1380,-8.0,1.0,62.0,1644584752.875,P03,D02,1,1,1
1381,-8.0,0.0,62.0,1644584752.90625,P03,D02,1,1,1
1382,-8.0,1.0,62.0,1644584752.9375,P03,D02,1,1,1
1383,-8.0,1.0,62.0,1644584752.96875,P03,D02,1,1,1
1384,-8.0,0.0,62.0,1644584753.0,P03,D02,1,1,1
1385,-8.0,1.0,62.0,1644584753.03125,P03,D02,1,1,1
1386,-8.0,1.0,62.0,1644584753.0625,P03,D02,1,1,1
1387,-8.0,1.0,62.0,1644584753.09375,P03,D02,1,1,1
1388,-8.0,1.0,62.0,1644584753.125,P03,D02,1,1,1
1389,-8.0,1.0,62.0,1644584753.15625,P03,D02,1,1,1
1390,-8.0,1.0,62.0,1644584753.1875,P03,D02,1,1,1
1391,-9.0,1.0,62.0,1644584753.21875,P03,D02,1,1,1
1392,-8.0,1.0,62.0,1644584753.25,P03,D02,1,1,1
1393,-8.0,1.0,62.0,1644584753.28125,P03,D02,1,1,1
1394,-8.0,1.0,62.0,1644584753.3125,P03,D02,1,1,1
1395,-8.0,1.0,62.0,1644584753.34375,P03,D02,1,1,1
1396,-8.0,1.0,62.0,1644584753.375,P03,D02,1,1,1
1397,-8.0,1.0,62.0,1644584753.40625,P03,D02,1,1,1
1398,-8.0,1.0,62.0,1644584753.4375,P03,D02,1,1,1
1399,-8.0,1.0,62.0,1644584753.46875,P03,D02,1,1,1
1400,-9.0,1.0,62.0,1644584753.5,P03,D02,1,1,1
1401,-8.0,1.0,62.0,1644584753.53125,P03,D02,1,1,1
1402,-8.0,1.0,62.0,1644584753.5625,P03,D02,1,1,1
1403,-9.0,1.0,62.0,1644584753.59375,P03,D02,1,1,1
1404,-8.0,1.0,62.0,1644584753.625,P03,D02,1,1,1
1405,-8.0,1.0,62.0,1644584753.65625,P03,D02,1,1,1
1406,-9.0,1.0,62.0,1644584753.6875,P03,D02,1,1,1
1407,-8.0,1.0,62.0,1644584753.71875,P03,D02,1,1,1
1408,-8.0,1.0,62.0,1644584753.75,P03,D02,1,1,1
1409,-8.0,1.0,62.0,1644584753.78125,P03,D02,1,1,1
1410,-8.0,1.0,62.0,1644584753.8125,P03,D02,1,1,1
1411,-8.0,1.0,62.0,1644584753.84375,P03,D02,1,1,1
1412,-9.0,1.0,62.0,1644584753.875,P03,D02,1,1,1
1413,-8.0,1.0,62.0,1644584753.90625,P03,D02,1,1,1
1414,-8.0,1.0,62.0,1644584753.9375,P03,D02,1,1,1
1415,-8.0,1.0,62.0,1644584753.96875,P03,D02,1,1,1
1416,-8.0,1.0,62.0,1644584754.0,P03,D02,1,1,1
1417,-8.0,1.0,62.0,1644584754.03125,P03,D02,1,1,1
1418,-8.0,1.0,62.0,1644584754.0625,P03,D02,1,1,1
1419,-8.0,1.0,62.0,1644584754.09375,P03,D02,1,1,1
1420,-8.0,1.0,62.0,1644584754.125,P03,D02,1,1,1
1421,-8.0,1.0,62.0,1644584754.15625,P03,D02,1,1,1
1422,-8.0,1.0,62.0,1644584754.1875,P03,D02,1,1,1
1423,-8.0,1.0,62.0,1644584754.21875,P03,D02,1,1,1
1424,-8.0,1.0,62.0,1644584754.25,P03,D02,1,1,1
1425,-8.0,1.0,62.0,1644584754.28125,P03,D02,1,1,1
1426,-9.0,1.0,62.0,1644584754.3125,P03,D02,1,1,1
1427,-8.0,1.0,62.0,1644584754.34375,P03,D02,1,1,1
1428,-8.0,1.0,62.0,1644584754.375,P03,D02,1,1,1
1429,-8.0,1.0,62.0,1644584754.40625,P03,D02,1,1,1
1430,-8.0,1.0,62.0,1644584754.4375,P03,D02,1,1,1
1431,-9.0,1.0,62.0,1644584754.46875,P03,D02,1,1,1
1432,-8.0,1.0,62.0,1644584754.5,P03,D02,1,1,1
1433,-8.0,1.0,62.0,1644584754.53125,P03,D02,1,1,1
1434,-8.0,1.0,62.0,1644584754.5625,P03,D02,1,1,1
1435,-8.0,1.0,62.0,1644584754.59375,P03,D02,1,1,1
1436,-8.0,0.0,62.0,1644584754.625,P03,D02,1,1,1
1437,-8.0,1.0,62.0,1644584754.65625,P03,D02,1,1,1
1438,-8.0,1.0,62.0,1644584754.6875,P03,D02,1,1,1
1439,-8.0,1.0,62.0,1644584754.71875,P03,D02,1,1,1
1440,-9.0,1.0,62.0,1644584754.75,P03,D02,1,1,1
1441,-8.0,1.0,62.0,1644584754.78125,P03,D02,1,1,1
1442,-8.0,1.0,62.0,1644584754.8125,P03,D02,1,1,1
1443,-8.0,1.0,62.0,1644584754.84375,P03,D02,1,1,1
1444,-8.0,1.0,62.0,1644584754.875,P03,D02,1,1,1
1445,-8.0,1.0,62.0,1644584754.90625,P03,D02,1,1,1
1446,-8.0,1.0,62.0,1644584754.9375,P03,D02,1,1,1
1447,-8.0,1.0,62.0,1644584754.96875,P03,D02,1,1,1
1448,-8.0,1.0,62.0,1644584755.0,P03,D02,1,1,1
1449,-8.0,1.0,62.0,1644584755.03125,P03,D02,1,1,1
1450,-8.0,1.0,62.0,1644584755.0625,P03,D02,1,1,1
1451,-8.0,1.0,62.0,1644584755.09375,P03,D02,1,1,1
1452,-8.0,1.0,62.0,1644584755.125,P03,D02,1,1,1
1453,-8.0,1.0,62.0,1644584755.15625,P03,D02,1,1,1
1454,-8.0,1.0,62.0,1644584755.1875,P03,D02,1,1,1
1455,-8.0,1.0,62.0,1644584755.21875,P03,D02,1,1,1
1456,-8.0,1.0,62.0,1644584755.25,P03,D02,1,1,1
1457,-8.0,1.0,62.0,1644584755.28125,P03,D02,1,1,1
1458,-8.0,1.0,62.0,1644584755.3125,P03,D02,1,1,1
1459,-8.0,1.0,62.0,1644584755.34375,P03,D02,1,1,1
1460,-8.0,1.0,62.0,1644584755.375,P03,D02,1,1,1
1461,-8.0,0.0,62.0,1644584755.40625,P03,D02,1,1,1
1462,-8.0,1.0,62.0,1644584755.4375,P03,D02,1,1,1
1463,-8.0,1.0,62.0,1644584755.46875,P03,D02,1,1,1
1464,-8.0,1.0,62.0,1644584755.5,P03,D02,1,1,1
1465,-8.0,1.0,62.0,1644584755.53125,P03,D02,1,1,1
1466,-8.0,1.0,62.0,1644584755.5625,P03,D02,1,1,1
1467,-8.0,1.0,62.0,1644584755.59375,P03,D02,1,1,1
1468,-8.0,1.0,62.0,1644584755.625,P03,D02,1,1,1
1469,-8.0,1.0,62.0,1644584755.65625,P03,D02,1,1,1
1470,-8.0,1.0,62.0,1644584755.6875,P03,D02,1,1,1
1471,-8.0,1.0,62.0,1644584755.71875,P03,D02,1,1,1
1472,-8.0,1.0,62.0,1644584755.75,P03,D02,1,1,1
1473,-8.0,1.0,62.0,1644584755.78125,P03,D02,1,1,1
1474,-8.0,1.0,62.0,1644584755.8125,P03,D02,1,1,1
1475,-8.0,1.0,62.0,1644584755.84375,P03,D02,1,1,1
1476,-8.0,1.0,62.0,1644584755.875,P03,D02,1,1,1
1477,-8.0,1.0,62.0,1644584755.90625,P03,D02,1,1,1
1478,-8.0,1.0,62.0,1644584755.9375,P03,D02,1,1,1
1479,-8.0,1.0,62.0,1644584755.96875,P03,D02,1,1,1
1480,-8.0,1.0,62.0,1644584756.0,P03,D02,1,1,1
1481,-8.0,1.0,62.0,1644584756.03125,P03,D02,1,1,1
1482,-8.0,1.0,62.0,1644584756.0625,P03,D02,1,1,1
1483,-7.0,1.0,62.0,1644584756.09375,P03,D02,1,1,1
1484,-8.0,1.0,62.0,1644584756.125,P03,D02,1,1,1
1485,-8.0,1.0,62.0,1644584756.15625,P03,D02,1,1,1
1486,-8.0,1.0,62.0,1644584756.1875,P03,D02,1,1,1
1487,-8.0,1.0,62.0,1644584756.21875,P03,D02,1,1,1
1488,-7.0,1.0,62.0,1644584756.25,P03,D02,1,1,1
1489,-8.0,1.0,62.0,1644584756.28125,P03,D02,1,1,1
1490,-8.0,1.0,62.0,1644584756.3125,P03,D02,1,1,1
1491,-7.0,1.0,62.0,1644584756.34375,P03,D02,1,1,1
1492,-8.0,1.0,62.0,1644584756.375,P03,D02,1,1,1
1493,-8.0,1.0,62.0,1644584756.40625,P03,D02,1,1,1
1494,-8.0,1.0,62.0,1644584756.4375,P03,D02,1,1,1
1495,-8.0,1.0,62.0,1644584756.46875,P03,D02,1,1,1
1496,-8.0,1.0,62.0,1644584756.5,P03,D02,1,1,1
1497,-8.0,1.0,62.0,1644584756.53125,P03,D02,1,1,1
1498,-8.0,1.0,62.0,1644584756.5625,P03,D02,1,1,1
1499,-8.0,1.0,62.0,1644584756.59375,P03,D02,1,1,1
1500,-8.0,1.0,62.0,1644584756.625,P03,D02,1,1,1
1501,-8.0,1.0,62.0,1644584756.65625,P03,D02,1,1,1
1502,-8.0,1.0,62.0,1644584756.6875,P03,D02,1,1,1
1503,-8.0,1.0,62.0,1644584756.71875,P03,D02,1,1,1
1504,-7.0,1.0,62.0,1644584756.75,P03,D02,1,1,1
1505,-8.0,1.0,62.0,1644584756.78125,P03,D02,1,1,1
1506,-8.0,1.0,62.0,1644584756.8125,P03,D02,1,1,1
1507,-7.0,1.0,62.0,1644584756.84375,P03,D02,1,1,1
1508,-7.0,1.0,62.0,1644584756.875,P03,D02,1,1,1
1509,-8.0,0.0,62.0,1644584756.90625,P03,D02,1,1,1
1510,-8.0,1.0,62.0,1644584756.9375,P03,D02,1,1,1
1511,-8.0,1.0,62.0,1644584756.96875,P03,D02,1,1,1
1512,-7.0,1.0,62.0,1644584757.0,P03,D02,1,1,1
1513,-7.0,1.0,62.0,1644584757.03125,P03,D02,1,1,1
1514,-8.0,1.0,62.0,1644584757.0625,P03,D02,1,1,1
1515,-8.0,1.0,62.0,1644584757.09375,P03,D02,1,1,1
1516,-8.0,1.0,62.0,1644584757.125,P03,D02,1,1,1
1517,-8.0,1.0,62.0,1644584757.15625,P03,D02,1,1,1
1518,-8.0,1.0,62.0,1644584757.1875,P03,D02,1,1,1
1519,-8.0,1.0,62.0,1644584757.21875,P03,D02,1,1,1
1520,-7.0,1.0,62.0,1644584757.25,P03,D02,1,1,1
1521,-8.0,1.0,62.0,1644584757.28125,P03,D02,1,1,1
1522,-8.0,1.0,62.0,1644584757.3125,P03,D02,1,1,1
1523,-7.0,1.0,62.0,1644584757.34375,P03,D02,1,1,1
1524,-8.0,1.0,62.0,1644584757.375,P03,D02,1,1,1
1525,-8.0,1.0,62.0,1644584757.40625,P03,D02,1,1,1
1526,-7.0,1.0,62.0,1644584757.4375,P03,D02,1,1,1
1527,-8.0,1.0,62.0,1644584757.46875,P03,D02,1,1,1
1528,-8.0,1.0,62.0,1644584757.5,P03,D02,1,1,1
1529,-7.0,0.0,62.0,1644584757.53125,P03,D02,1,1,1
1530,-8.0,1.0,62.0,1644584757.5625,P03,D02,1,1,1
1531,-8.0,1.0,62.0,1644584757.59375,P03,D02,1,1,1
1532,-7.0,1.0,62.0,1644584757.625,P03,D02,1,1,1
1533,-8.0,1.0,62.0,1644584757.65625,P03,D02,1,1,1
1534,-8.0,1.0,62.0,1644584757.6875,P03,D02,1,1,1
1535,-7.0,1.0,62.0,1644584757.71875,P03,D02,1,1,1
1536,-7.0,1.0,62.0,1644584757.75,P03,D02,1,1,1
1537,-8.0,1.0,62.0,1644584757.78125,P03,D02,1,1,1
1538,-8.0,1.0,62.0,1644584757.8125,P03,D02,1,1,1
1539,-8.0,1.0,62.0,1644584757.84375,P03,D02,1,1,1
1540,-7.0,1.0,62.0,1644584757.875,P03,D02,1,1,1
1541,-8.0,1.0,62.0,1644584757.90625,P03,D02,1,1,1
1542,-8.0,1.0,62.0,1644584757.9375,P03,D02,1,1,1
1543,-8.0,1.0,62.0,1644584757.96875,P03,D02,1,1,1
1544,-8.0,1.0,62.0,1644584758.0,P03,D02,1,1,1
1545,-7.0,1.0,62.0,1644584758.03125,P03,D02,1,1,1
1546,-7.0,1.0,62.0,1644584758.0625,P03,D02,1,1,1
1547,-8.0,1.0,62.0,1644584758.09375,P03,D02,1,1,1
1548,-8.0,1.0,62.0,1644584758.125,P03,D02,1,1,1
1549,-8.0,0.0,62.0,1644584758.15625,P03,D02,1,1,1
1550,-8.0,1.0,62.0,1644584758.1875,P03,D02,1,1,1
1551,-8.0,1.0,62.0,1644584758.21875,P03,D02,1,1,1
1552,-7.0,1.0,62.0,1644584758.25,P03,D02,1,1,1
1553,-6.0,1.0,62.0,1644584758.28125,P03,D02,1,1,1
1554,-7.0,0.0,62.0,1644584758.3125,P03,D02,1,1,1
1555,-8.0,1.0,62.0,1644584758.34375,P03,D02,1,1,1
1556,-7.0,1.0,62.0,1644584758.375,P03,D02,1,1,1
1557,-7.0,1.0,62.0,1644584758.40625,P03,D02,1,1,1
1558,-8.0,1.0,62.0,1644584758.4375,P03,D02,1,1,1
1559,-7.0,1.0,62.0,1644584758.46875,P03,D02,1,1,1
1560,-7.0,0.0,62.0,1644584758.5,P03,D02,1,1,1
1561,-8.0,0.0,62.0,1644584758.53125,P03,D02,1,1,1
1562,-7.0,1.0,62.0,1644584758.5625,P03,D02,1,1,1
1563,-7.0,1.0,62.0,1644584758.59375,P03,D02,1,1,1
1564,-7.0,1.0,62.0,1644584758.625,P03,D02,1,1,1
1565,-8.0,0.0,62.0,1644584758.65625,P03,D02,1,1,1
1566,-6.0,1.0,62.0,1644584758.6875,P03,D02,1,1,1
1567,-7.0,1.0,62.0,1644584758.71875,P03,D02,1,1,1
1568,-6.0,0.0,62.0,1644584758.75,P03,D02,1,1,1
1569,-7.0,1.0,62.0,1644584758.78125,P03,D02,1,1,1
1570,-6.0,0.0,62.0,1644584758.8125,P03,D02,1,1,1
1571,-6.0,1.0,62.0,1644584758.84375,P03,D02,1,1,1
1572,-6.0,1.0,62.0,1644584758.875,P03,D02,1,1,1
1573,-6.0,0.0,62.0,1644584758.90625,P03,D02,1,1,1
1574,-5.0,1.0,62.0,1644584758.9375,P03,D02,1,1,1
1575,-5.0,1.0,62.0,1644584758.96875,P03,D02,1,1,1
1576,-5.0,1.0,62.0,1644584759.0,P03,D02,1,1,1
1577,-5.0,1.0,62.0,1644584759.03125,P03,D02,1,1,1
1578,-5.0,1.0,62.0,1644584759.0625,P03,D02,1,1,1
1579,-6.0,1.0,62.0,1644584759.09375,P03,D02,1,1,1
1580,-7.0,1.0,62.0,1644584759.125,P03,D02,1,1,1
1581,-4.0,0.0,62.0,1644584759.15625,P03,D02,1,1,1
1582,-4.0,1.0,62.0,1644584759.1875,P03,D02,1,1,1
1583,-6.0,1.0,62.0,1644584759.21875,P03,D02,1,1,1
1584,-2.0,0.0,62.0,1644584759.25,P03,D02,1,1,1
1585,-2.0,1.0,63.0,1644584759.28125,P03,D02,1,1,1
1586,-5.0,0.0,62.0,1644584759.3125,P03,D02,1,1,1
1587,-5.0,1.0,62.0,1644584759.34375,P03,D02,1,1,1
1588,-1.0,1.0,63.0,1644584759.375,P03,D02,1,1,1
1589,-3.0,1.0,62.0,1644584759.40625,P03,D02,1,1,1
1590,-3.0,1.0,62.0,1644584759.4375,P03,D02,1,1,1
1591,-3.0,1.0,62.0,1644584759.46875,P03,D02,1,1,1
1592,-4.0,0.0,62.0,1644584759.5,P03,D02,1,1,1
1593,-4.0,1.0,62.0,1644584759.53125,P03,D02,1,1,1
1594,-4.0,1.0,62.0,1644584759.5625,P03,D02,1,1,1
1595,-4.0,1.0,62.0,1644584759.59375,P03,D02,1,1,1
1596,-4.0,1.0,62.0,1644584759.625,P03,D02,1,1,1
1597,-4.0,1.0,62.0,1644584759.65625,P03,D02,1,1,1
1598,-4.0,1.0,62.0,1644584759.6875,P03,D02,1,1,1
1599,-4.0,1.0,62.0,1644584759.71875,P03,D02,1,1,1
1600,-4.0,0.0,62.0,1644584759.75,P03,D02,1,1,1
1601,-4.0,1.0,62.0,1644584759.78125,P03,D02,1,1,1
1602,-5.0,1.0,62.0,1644584759.8125,P03,D02,1,1,1
1603,-4.0,1.0,62.0,1644584759.84375,P03,D02,1,1,1
1604,-4.0,1.0,62.0,1644584759.875,P03,D02,1,1,1
1605,-4.0,1.0,62.0,1644584759.90625,P03,D02,1,1,1
1606,-5.0,1.0,62.0,1644584759.9375,P03,D02,1,1,1
1607,-4.0,0.0,62.0,1644584759.96875,P03,D02,1,1,1
1608,-4.0,1.0,62.0,1644584760.0,P03,D02,1,1,1
1609,-4.0,1.0,62.0,1644584760.03125,P03,D02,1,1,1
1610,-5.0,1.0,62.0,1644584760.0625,P03,D02,1,1,1
1611,-4.0,1.0,62.0,1644584760.09375,P03,D02,1,1,1
1612,-5.0,1.0,62.0,1644584760.125,P03,D02,1,1,1
1613,-6.0,0.0,62.0,1644584760.15625,P03,D02,1,1,1
1614,-5.0,1.0,62.0,1644584760.1875,P03,D02,1,1,1
1615,-5.0,1.0,62.0,1644584760.21875,P03,D02,1,1,1
1616,-5.0,1.0,62.0,1644584760.25,P03,D02,1,1,1
1617,-5.0,1.0,62.0,1644584760.28125,P03,D02,1,1,1
1618,-4.0,1.0,62.0,1644584760.3125,P03,D02,1,1,1
1619,-5.0,1.0,62.0,1644584760.34375,P03,D02,1,1,1
1620,-5.0,1.0,62.0,1644584760.375,P03,D02,1,1,1
1621,-5.0,1.0,62.0,1644584760.40625,P03,D02,1,1,1
1622,-5.0,1.0,62.0,1644584760.4375,P03,D02,1,1,1
1623,-5.0,1.0,62.0,1644584760.46875,P03,D02,1,1,1
1624,-5.0,1.0,62.0,1644584760.5,P03,D02,1,1,1
1625,-5.0,1.0,62.0,1644584760.53125,P03,D02,1,1,1
1626,-5.0,1.0,62.0,1644584760.5625,P03,D02,1,1,1
1627,-5.0,1.0,62.0,1644584760.59375,P03,D02,1,1,1
1628,-5.0,0.0,62.0,1644584760.625,P03,D02,1,1,1
1629,-5.0,1.0,62.0,1644584760.65625,P03,D02,1,1,1
1630,-4.0,1.0,62.0,1644584760.6875,P03,D02,1,1,1
1631,-5.0,1.0,62.0,1644584760.71875,P03,D02,1,1,1
1632,-5.0,1.0,62.0,1644584760.75,P03,D02,1,1,1
1633,-5.0,1.0,62.0,1644584760.78125,P03,D02,1,1,1
1634,-6.0,1.0,62.0,1644584760.8125,P03,D02,1,1,1
1635,-5.0,1.0,62.0,1644584760.84375,P03,D02,1,1,1
1636,-4.0,1.0,62.0,1644584760.875,P03,D02,1,1,1
1637,-5.0,1.0,62.0,1644584760.90625,P03,D02,1,1,1
1638,-5.0,1.0,62.0,1644584760.9375,P03,D02,1,1,1
1639,-5.0,1.0,62.0,1644584760.96875,P03,D02,1,1,1
1640,-5.0,1.0,62.0,1644584761.0,P03,D02,1,1,1
1641,-5.0,1.0,62.0,1644584761.03125,P03,D02,1,1,1
1642,-5.0,1.0,62.0,1644584761.0625,P03,D02,1,1,1
1643,-5.0,1.0,62.0,1644584761.09375,P03,D02,1,1,1
1644,-5.0,1.0,62.0,1644584761.125,P03,D02,1,1,1
1645,-5.0,1.0,62.0,1644584761.15625,P03,D02,1,1,1
1646,-5.0,0.0,62.0,1644584761.1875,P03,D02,1,1,1
1647,-5.0,1.0,62.0,1644584761.21875,P03,D02,1,1,1
1648,-5.0,1.0,62.0,1644584761.25,P03,D02,1,1,1
1649,-5.0,1.0,62.0,1644584761.28125,P03,D02,1,1,1
1650,-5.0,1.0,62.0,1644584761.3125,P03,D02,1,1,1
1651,-5.0,0.0,62.0,1644584761.34375,P03,D02,1,1,1
1652,-5.0,1.0,62.0,1644584761.375,P03,D02,1,1,1
1653,-5.0,1.0,62.0,1644584761.40625,P03,D02,1,1,1
1654,-5.0,0.0,62.0,1644584761.4375,P03,D02,1,1,1
1655,-5.0,1.0,62.0,1644584761.46875,P03,D02,1,1,1
1656,-5.0,1.0,62.0,1644584761.5,P03,D02,1,1,1
1657,-5.0,1.0,62.0,1644584761.53125,P03,D02,1,1,1
1658,-5.0,1.0,62.0,1644584761.5625,P03,D02,1,1,1
1659,-5.0,1.0,62.0,1644584761.59375,P03,D02,1,1,1
1660,-5.0,1.0,62.0,1644584761.625,P03,D02,1,1,1
1661,-5.0,1.0,62.0,1644584761.65625,P03,D02,1,1,1
1662,-6.0,1.0,62.0,1644584761.6875,P03,D02,1,1,1
1663,-5.0,1.0,62.0,1644584761.71875,P03,D02,1,1,1
1664,-5.0,1.0,62.0,1644584761.75,P03,D02,1,1,1
1665,-5.0,1.0,62.0,1644584761.78125,P03,D02,1,1,1
1666,-5.0,1.0,62.0,1644584761.8125,P03,D02,1,1,1
1667,-5.0,1.0,62.0,1644584761.84375,P03,D02,1,1,1
1668,-5.0,1.0,62.0,1644584761.875,P03,D02,1,1,1
1669,-5.0,1.0,62.0,1644584761.90625,P03,D02,1,1,1
1670,-5.0,1.0,62.0,1644584761.9375,P03,D02,1,1,1
1671,-6.0,0.0,62.0,1644584761.96875,P03,D02,1,1,1
1672,-5.0,1.0,62.0,1644584762.0,P03,D02,1,1,1
1673,-5.0,1.0,63.0,1644584762.03125,P03,D02,1,1,1
1674,-6.0,1.0,62.0,1644584762.0625,P03,D02,1,1,1
1675,-5.0,1.0,62.0,1644584762.09375,P03,D02,1,1,1
1676,-5.0,1.0,62.0,1644584762.125,P03,D02,1,1,1
1677,-5.0,1.0,62.0,1644584762.15625,P03,D02,1,1,1
1678,-5.0,1.0,62.0,1644584762.1875,P03,D02,1,1,1
1679,-5.0,1.0,62.0,1644584762.21875,P03,D02,1,1,1
1680,-5.0,1.0,62.0,1644584762.25,P03,D02,1,1,1
1681,-6.0,1.0,62.0,1644584762.28125,P03,D02,1,1,1
1682,-5.0,1.0,62.0,1644584762.3125,P03,D02,1,1,1
1683,-5.0,1.0,62.0,1644584762.34375,P03,D02,1,1,1
1684,-5.0,1.0,62.0,1644584762.375,P03,D02,1,1,1
1685,-6.0,1.0,62.0,1644584762.40625,P03,D02,1,1,1
1686,-5.0,1.0,62.0,1644584762.4375,P03,D02,1,1,1
1687,-5.0,1.0,62.0,1644584762.46875,P03,D02,1,1,1
1688,-6.0,1.0,62.0,1644584762.5,P03,D02,1,1,1
1689,-5.0,1.0,62.0,1644584762.53125,P03,D02,1,1,1
1690,-5.0,1.0,62.0,1644584762.5625,P03,D02,1,1,1
1691,-6.0,0.0,62.0,1644584762.59375,P03,D02,1,1,1
1692,-6.0,0.0,62.0,1644584762.625,P03,D02,1,1,1
1693,-5.0,1.0,62.0,1644584762.65625,P03,D02,1,1,1
1694,-6.0,1.0,62.0,1644584762.6875,P03,D02,1,1,1
1695,-6.0,1.0,62.0,1644584762.71875,P03,D02,1,1,1
1696,-6.0,1.0,62.0,1644584762.75,P03,D02,1,1,1
1697,-6.0,1.0,62.0,1644584762.78125,P03,D02,1,1,1
1698,-6.0,1.0,62.0,1644584762.8125,P03,D02,1,1,1
1699,-6.0,1.0,62.0,1644584762.84375,P03,D02,1,1,1
1700,-5.0,1.0,62.0,1644584762.875,P03,D02,1,1,1
1701,-5.0,1.0,62.0,1644584762.90625,P03,D02,1,1,1
1702,-6.0,1.0,62.0,1644584762.9375,P03,D02,1,1,1
1703,-6.0,1.0,62.0,1644584762.96875,P03,D02,1,1,1
1704,-6.0,1.0,62.0,1644584763.0,P03,D02,1,1,1
1705,-6.0,1.0,62.0,1644584763.03125,P03,D02,1,1,1
1706,-6.0,1.0,62.0,1644584763.0625,P03,D02,1,1,1
1707,-6.0,1.0,62.0,1644584763.09375,P03,D02,1,1,1
1708,-6.0,1.0,62.0,1644584763.125,P03,D02,1,1,1
1709,-6.0,1.0,62.0,1644584763.15625,P03,D02,1,1,1
1710,-5.0,1.0,62.0,1644584763.1875,P03,D02,1,1,1
1711,-6.0,1.0,62.0,1644584763.21875,P03,D02,1,1,1
1712,-5.0,1.0,62.0,1644584763.25,P03,D02,1,1,1
1713,-6.0,1.0,62.0,1644584763.28125,P03,D02,1,1,1
1714,-6.0,1.0,62.0,1644584763.3125,P03,D02,1,1,1
1715,-6.0,1.0,62.0,1644584763.34375,P03,D02,1,1,1
1716,-6.0,1.0,62.0,1644584763.375,P03,D02,1,1,1
1717,-6.0,1.0,62.0,1644584763.40625,P03,D02,1,1,1
1718,-6.0,0.0,62.0,1644584763.4375,P03,D02,1,1,1
1719,-6.0,1.0,62.0,1644584763.46875,P03,D02,1,1,1
1720,-6.0,1.0,62.0,1644584763.5,P03,D02,1,1,1
1721,-6.0,1.0,62.0,1644584763.53125,P03,D02,1,1,1
1722,-6.0,1.0,62.0,1644584763.5625,P03,D02,1,1,1
1723,-6.0,1.0,62.0,1644584763.59375,P03,D02,1,1,1
1724,-6.0,1.0,62.0,1644584763.625,P03,D02,1,1,1
1725,-6.0,1.0,62.0,1644584763.65625,P03,D02,1,1,1
1726,-6.0,1.0,62.0,1644584763.6875,P03,D02,1,1,1
1727,-6.0,1.0,62.0,1644584763.71875,P03,D02,1,1,1
1728,-6.0,1.0,62.0,1644584763.75,P03,D02,1,1,1
1729,-6.0,1.0,62.0,1644584763.78125,P03,D02,1,1,1
1730,-6.0,1.0,62.0,1644584763.8125,P03,D02,1,1,1
1731,-6.0,1.0,62.0,1644584763.84375,P03,D02,1,1,1
1732,-6.0,1.0,62.0,1644584763.875,P03,D02,1,1,1
1733,-6.0,1.0,62.0,1644584763.90625,P03,D02,1,1,1
1734,-6.0,1.0,62.0,1644584763.9375,P03,D02,1,1,1
1735,-6.0,1.0,62.0,1644584763.96875,P03,D02,1,1,1
1736,-6.0,1.0,62.0,1644584764.0,P03,D02,1,1,1
1737,-6.0,1.0,62.0,1644584764.03125,P03,D02,1,1,1
1738,-6.0,1.0,62.0,1644584764.0625,P03,D02,1,1,1
1739,-6.0,1.0,62.0,1644584764.09375,P03,D02,1,1,1
1740,-6.0,1.0,62.0,1644584764.125,P03,D02,1,1,1
1741,-6.0,1.0,62.0,1644584764.15625,P03,D02,1,1,1
1742,-6.0,1.0,62.0,1644584764.1875,P03,D02,1,1,1
1743,-6.0,1.0,62.0,1644584764.21875,P03,D02,1,1,1
1744,-5.0,1.0,62.0,1644584764.25,P03,D02,1,1,1
1745,-6.0,1.0,62.0,1644584764.28125,P03,D02,1,1,1
1746,-6.0,1.0,62.0,1644584764.3125,P03,D02,1,1,1
1747,-6.0,1.0,62.0,1644584764.34375,P03,D02,1,1,1
1748,-6.0,1.0,62.0,1644584764.375,P03,D02,1,1,1
1749,-6.0,1.0,62.0,1644584764.40625,P03,D02,1,1,1
1750,-6.0,1.0,62.0,1644584764.4375,P03,D02,1,1,1
1751,-6.0,1.0,62.0,1644584764.46875,P03,D02,1,1,1
1752,-5.0,1.0,62.0,1644584764.5,P03,D02,1,1,1
1753,-6.0,1.0,62.0,1644584764.53125,P03,D02,1,1,1
1754,-6.0,1.0,62.0,1644584764.5625,P03,D02,1,1,1
1755,-6.0,1.0,62.0,1644584764.59375,P03,D02,1,1,1
1756,-6.0,1.0,62.0,1644584764.625,P03,D02,1,1,1
1757,-6.0,1.0,62.0,1644584764.65625,P03,D02,1,1,1
1758,-6.0,1.0,62.0,1644584764.6875,P03,D02,1,1,1
1759,-6.0,1.0,62.0,1644584764.71875,P03,D02,1,1,1
1760,-6.0,1.0,62.0,1644584764.75,P03,D02,1,1,1
1761,-6.0,1.0,62.0,1644584764.78125,P03,D02,1,1,1
1762,-7.0,1.0,62.0,1644584764.8125,P03,D02,1,1,1
1763,-6.0,1.0,62.0,1644584764.84375,P03,D02,1,1,1
1764,-6.0,1.0,62.0,1644584764.875,P03,D02,1,1,1
1765,-6.0,1.0,62.0,1644584764.90625,P03,D02,1,1,1
1766,-6.0,1.0,62.0,1644584764.9375,P03,D02,1,1,1
1767,-6.0,1.0,62.0,1644584764.96875,P03,D02,1,1,1
1768,-6.0,1.0,62.0,1644584765.0,P03,D02,1,1,1
1769,-6.0,1.0,62.0,1644584765.03125,P03,D02,1,1,1
1770,-6.0,1.0,62.0,1644584765.0625,P03,D02,1,1,1
1771,-6.0,1.0,62.0,1644584765.09375,P03,D02,1,1,1
1772,-6.0,1.0,62.0,1644584765.125,P03,D02,1,1,1
1773,-6.0,1.0,62.0,1644584765.15625,P03,D02,1,1,1
1774,-5.0,1.0,62.0,1644584765.1875,P03,D02,1,1,1
1775,-5.0,1.0,62.0,1644584765.21875,P03,D02,1,1,1
1776,-7.0,1.0,62.0,1644584765.25,P03,D02,1,1,1
1777,-6.0,1.0,62.0,1644584765.28125,P03,D02,1,1,1
1778,-5.0,1.0,62.0,1644584765.3125,P03,D02,1,1,1
1779,-6.0,1.0,62.0,1644584765.34375,P03,D02,1,1,1
1780,-6.0,1.0,62.0,1644584765.375,P03,D02,1,1,1
1781,-6.0,1.0,62.0,1644584765.40625,P03,D02,1,1,1
1782,-6.0,1.0,62.0,1644584765.4375,P03,D02,1,1,1
1783,-6.0,1.0,62.0,1644584765.46875,P03,D02,1,1,1
1784,-6.0,1.0,62.0,1644584765.5,P03,D02,1,1,1
1785,-6.0,1.0,62.0,1644584765.53125,P03,D02,1,1,1
1786,-6.0,1.0,62.0,1644584765.5625,P03,D02,1,1,1
1787,-6.0,1.0,62.0,1644584765.59375,P03,D02,1,1,1
1788,-6.0,1.0,62.0,1644584765.625,P03,D02,1,1,1
1789,-6.0,1.0,62.0,1644584765.65625,P03,D02,1,1,1
1790,-6.0,1.0,62.0,1644584765.6875,P03,D02,1,1,1
1791,-6.0,1.0,62.0,1644584765.71875,P03,D02,1,1,1
1792,-6.0,1.0,62.0,1644584765.75,P03,D02,1,1,1
1793,-6.0,1.0,62.0,1644584765.78125,P03,D02,1,1,1
1794,-6.0,1.0,62.0,1644584765.8125,P03,D02,1,1,1
1795,-6.0,1.0,62.0,1644584765.84375,P03,D02,1,1,1
1796,-6.0,1.0,62.0,1644584765.875,P03,D02,1,1,1
1797,-6.0,1.0,62.0,1644584765.90625,P03,D02,1,1,1
1798,-6.0,1.0,62.0,1644584765.9375,P03,D02,1,1,1
1799,-5.0,1.0,62.0,1644584765.96875,P03,D02,1,1,1
1800,-6.0,1.0,62.0,1644584766.0,P03,D02,1,1,1
1801,-6.0,1.0,62.0,1644584766.03125,P03,D02,1,1,1
1802,-6.0,1.0,62.0,1644584766.0625,P03,D02,1,1,1
1803,-6.0,1.0,62.0,1644584766.09375,P03,D02,1,1,1
1804,-6.0,1.0,62.0,1644584766.125,P03,D02,1,1,1
1805,-6.0,1.0,62.0,1644584766.15625,P03,D02,1,1,1
1806,-6.0,1.0,62.0,1644584766.1875,P03,D02,1,1,1
1807,-6.0,1.0,62.0,1644584766.21875,P03,D02,1,1,1
1808,-6.0,1.0,62.0,1644584766.25,P03,D02,1,1,1
1809,-6.0,1.0,62.0,1644584766.28125,P03,D02,1,1,1
1810,-6.0,1.0,62.0,1644584766.3125,P03,D02,1,1,1
1811,-6.0,1.0,62.0,1644584766.34375,P03,D02,1,1,1
1812,-6.0,1.0,62.0,1644584766.375,P03,D02,1,1,1
1813,-6.0,1.0,62.0,1644584766.40625,P03,D02,1,1,1
1814,-6.0,1.0,62.0,1644584766.4375,P03,D02,1,1,1
1815,-6.0,1.0,62.0,1644584766.46875,P03,D02,1,1,1
1816,-5.0,1.0,62.0,1644584766.5,P03,D02,1,1,1
1817,-5.0,0.0,62.0,1644584766.53125,P03,D02,1,1,1
1818,-6.0,1.0,62.0,1644584766.5625,P03,D02,1,1,1
1819,-6.0,1.0,62.0,1644584766.59375,P03,D02,1,1,1
1820,-6.0,1.0,62.0,1644584766.625,P03,D02,1,1,1
1821,-6.0,1.0,62.0,1644584766.65625,P03,D02,1,1,1
1822,-6.0,1.0,62.0,1644584766.6875,P03,D02,1,1,1
1823,-6.0,1.0,62.0,1644584766.71875,P03,D02,1,1,1
1824,-6.0,1.0,62.0,1644584766.75,P03,D02,1,1,1
1825,-6.0,1.0,62.0,1644584766.78125,P03,D02,1,1,1
1826,-6.0,1.0,62.0,1644584766.8125,P03,D02,1,1,1
1827,-5.0,1.0,62.0,1644584766.84375,P03,D02,1,1,1
1828,-5.0,1.0,62.0,1644584766.875,P03,D02,1,1,1
1829,-6.0,1.0,62.0,1644584766.90625,P03,D02,1,1,1
1830,-6.0,1.0,62.0,1644584766.9375,P03,D02,1,1,1
1831,-6.0,1.0,62.0,1644584766.96875,P03,D02,1,1,1
1832,-6.0,0.0,62.0,1644584767.0,P03,D02,1,1,1
1833,-6.0,1.0,62.0,1644584767.03125,P03,D02,1,1,1
1834,-6.0,1.0,62.0,1644584767.0625,P03,D02,1,1,1
1835,-6.0,1.0,62.0,1644584767.09375,P03,D02,1,1,1
1836,-5.0,1.0,62.0,1644584767.125,P03,D02,1,1,1
1837,-6.0,1.0,62.0,1644584767.15625,P03,D02,1,1,1
1838,-6.0,1.0,62.0,1644584767.1875,P03,D02,1,1,1
1839,-5.0,1.0,62.0,1644584767.21875,P03,D02,1,1,1
1840,-6.0,1.0,62.0,1644584767.25,P03,D02,1,1,1
1841,-6.0,1.0,62.0,1644584767.28125,P03,D02,1,1,1
1842,-6.0,1.0,62.0,1644584767.3125,P03,D02,1,1,1
1843,-5.0,1.0,62.0,1644584767.34375,P03,D02,1,1,1
1844,-5.0,1.0,62.0,1644584767.375,P03,D02,1,1,1
1845,-6.0,0.0,62.0,1644584767.40625,P03,D02,1,1,1
1846,-6.0,1.0,62.0,1644584767.4375,P03,D02,1,1,1
1847,-6.0,1.0,62.0,1644584767.46875,P03,D02,1,1,1
1848,-5.0,1.0,62.0,1644584767.5,P03,D02,1,1,1
1849,-6.0,1.0,62.0,1644584767.53125,P03,D02,1,1,1
1850,-6.0,1.0,62.0,1644584767.5625,P03,D02,1,1,1
1851,-5.0,1.0,62.0,1644584767.59375,P03,D02,1,1,1
1852,-5.0,1.0,62.0,1644584767.625,P03,D02,1,1,1
1853,-6.0,1.0,62.0,1644584767.65625,P03,D02,1,1,1
1854,-5.0,1.0,62.0,1644584767.6875,P03,D02,1,1,1
1855,-6.0,1.0,62.0,1644584767.71875,P03,D02,1,1,1
1856,-5.0,1.0,62.0,1644584767.75,P03,D02,1,1,1
1857,-6.0,1.0,62.0,1644584767.78125,P03,D02,1,1,1
1858,-6.0,0.0,62.0,1644584767.8125,P03,D02,1,1,1
1859,-6.0,1.0,62.0,1644584767.84375,P03,D02,1,1,1
1860,-6.0,1.0,62.0,1644584767.875,P03,D02,1,1,1
1861,-6.0,1.0,62.0,1644584767.90625,P03,D02,1,1,1
1862,-6.0,1.0,62.0,1644584767.9375,P03,D02,1,1,1
1863,-6.0,1.0,62.0,1644584767.96875,P03,D02,1,1,1
1864,-6.0,1.0,62.0,1644584768.0,P03,D02,1,1,1
1865,-6.0,1.0,62.0,1644584768.03125,P03,D02,1,1,1
1866,-6.0,1.0,62.0,1644584768.0625,P03,D02,1,1,1
1867,-6.0,1.0,62.0,1644584768.09375,P03,D02,1,1,1
1868,-6.0,0.0,62.0,1644584768.125,P03,D02,1,1,1
1869,-6.0,1.0,62.0,1644584768.15625,P03,D02,1,1,1
1870,-6.0,1.0,62.0,1644584768.1875,P03,D02,1,1,1
1871,-6.0,1.0,62.0,1644584768.21875,P03,D02,1,1,1
1872,-6.0,1.0,62.0,1644584768.25,P03,D02,1,1,1
1873,-6.0,1.0,62.0,1644584768.28125,P03,D02,1,1,1
1874,-6.0,1.0,62.0,1644584768.3125,P03,D02,1,1,1
1875,-6.0,1.0,62.0,1644584768.34375,P03,D02,1,1,1
1876,-6.0,1.0,62.0,1644584768.375,P03,D02,1,1,1
1877,-6.0,1.0,62.0,1644584768.40625,P03,D02,1,1,1
1878,-6.0,1.0,62.0,1644584768.4375,P03,D02,1,1,1
1879,-6.0,1.0,62.0,1644584768.46875,P03,D02,1,1,1
1880,-6.0,1.0,62.0,1644584768.5,P03,D02,1,1,1
1881,-6.0,1.0,62.0,1644584768.53125,P03,D02,1,1,1
1882,-6.0,1.0,62.0,1644584768.5625,P03,D02,1,1,1
1883,-5.0,1.0,62.0,1644584768.59375,P03,D02,1,1,1
1884,-6.0,1.0,62.0,1644584768.625,P03,D02,1,1,1
1885,-6.0,0.0,62.0,1644584768.65625,P03,D02,1,1,1
1886,-6.0,1.0,62.0,1644584768.6875,P03,D02,1,1,1
1887,-6.0,1.0,62.0,1644584768.71875,P03,D02,1,1,1
1888,-6.0,1.0,62.0,1644584768.75,P03,D02,1,1,1
1889,-6.0,1.0,62.0,1644584768.78125,P03,D02,1,1,1
1890,-6.0,1.0,62.0,1644584768.8125,P03,D02,1,1,1
1891,-6.0,1.0,62.0,1644584768.84375,P03,D02,1,1,1
1892,-6.0,1.0,62.0,1644584768.875,P03,D02,1,1,1
1893,-6.0,1.0,62.0,1644584768.90625,P03,D02,1,1,1
1894,-6.0,1.0,62.0,1644584768.9375,P03,D02,1,1,1
1895,-6.0,1.0,62.0,1644584768.96875,P03,D02,1,1,1
1896,-6.0,1.0,62.0,1644584769.0,P03,D02,1,1,1
1897,-6.0,1.0,62.0,1644584769.03125,P03,D02,1,1,1
1898,-6.0,1.0,62.0,1644584769.0625,P03,D02,1,1,1
1899,-6.0,1.0,62.0,1644584769.09375,P03,D02,1,1,1
1900,-6.0,1.0,62.0,1644584769.125,P03,D02,1,1,1
1901,-6.0,1.0,62.0,1644584769.15625,P03,D02,1,1,1
1902,-6.0,1.0,62.0,1644584769.1875,P03,D02,1,1,1
1903,-6.0,0.0,62.0,1644584769.21875,P03,D02,1,1,1
1904,-6.0,1.0,62.0,1644584769.25,P03,D02,1,1,1
1905,-6.0,1.0,62.0,1644584769.28125,P03,D02,1,1,1
1906,-6.0,1.0,62.0,1644584769.3125,P03,D02,1,1,1
1907,-6.0,1.0,62.0,1644584769.34375,P03,D02,1,1,1
1908,-6.0,1.0,62.0,1644584769.375,P03,D02,1,1,1
1909,-6.0,1.0,62.0,1644584769.40625,P03,D02,1,1,1
1910,-6.0,1.0,62.0,1644584769.4375,P03,D02,1,1,1
1911,-6.0,1.0,62.0,1644584769.46875,P03,D02,1,1,1
1912,-6.0,1.0,62.0,1644584769.5,P03,D02,1,1,1
1913,-6.0,1.0,62.0,1644584769.53125,P03,D02,1,1,1
1914,-6.0,1.0,62.0,1644584769.5625,P03,D02,1,1,1
1915,-6.0,1.0,62.0,1644584769.59375,P03,D02,1,1,1
1916,-6.0,1.0,62.0,1644584769.625,P03,D02,1,1,1
1917,-6.0,1.0,62.0,1644584769.65625,P03,D02,1,1,1
1918,-6.0,1.0,62.0,1644584769.6875,P03,D02,1,1,1
1919,-6.0,1.0,62.0,1644584769.71875,P03,D02,1,1,1
1920,-6.0,1.0,62.0,1644584769.75,P03,D02,1,1,1
1921,-6.0,1.0,62.0,1644584769.78125,P03,D02,1,1,1
1922,-6.0,1.0,62.0,1644584769.8125,P03,D02,1,1,1
1923,-6.0,1.0,62.0,1644584769.84375,P03,D02,1,1,1
1924,-6.0,1.0,62.0,1644584769.875,P03,D02,1,1,1
1925,-5.0,1.0,62.0,1644584769.90625,P03,D02,1,1,1
1926,-6.0,1.0,62.0,1644584769.9375,P03,D02,1,1,1
1927,-6.0,0.0,62.0,1644584769.96875,P03,D02,1,1,1
1928,-6.0,1.0,62.0,1644584770.0,P03,D02,1,1,1
1929,-6.0,1.0,62.0,1644584770.03125,P03,D02,1,1,1
1930,-6.0,1.0,62.0,1644584770.0625,P03,D02,1,1,1
1931,-6.0,1.0,62.0,1644584770.09375,P03,D02,1,1,1
1932,-6.0,1.0,62.0,1644584770.125,P03,D02,1,1,1
1933,-6.0,1.0,62.0,1644584770.15625,P03,D02,1,1,1
1934,-6.0,1.0,62.0,1644584770.1875,P03,D02,1,1,1
1935,-6.0,1.0,62.0,1644584770.21875,P03,D02,1,1,1
1936,-6.0,1.0,62.0,1644584770.25,P03,D02,1,1,1
1937,-6.0,1.0,62.0,1644584770.28125,P03,D02,1,1,1
1938,-6.0,1.0,62.0,1644584770.3125,P03,D02,1,1,1
1939,-6.0,1.0,62.0,1644584770.34375,P03,D02,1,1,1
1940,-6.0,1.0,62.0,1644584770.375,P03,D02,1,1,1
1941,-6.0,0.0,62.0,1644584770.40625,P03,D02,1,1,1
1942,-6.0,1.0,62.0,1644584770.4375,P03,D02,1,1,1
1943,-6.0,1.0,62.0,1644584770.46875,P03,D02,1,1,1
1944,-6.0,1.0,62.0,1644584770.5,P03,D02,1,1,1
1945,-6.0,1.0,62.0,1644584770.53125,P03,D02,1,1,1
1946,-6.0,1.0,62.0,1644584770.5625,P03,D02,1,1,1
1947,-6.0,1.0,62.0,1644584770.59375,P03,D02,1,1,1
1948,-6.0,1.0,62.0,1644584770.625,P03,D02,1,1,1
1949,-6.0,1.0,62.0,1644584770.65625,P03,D02,1,1,1
1950,-6.0,1.0,62.0,1644584770.6875,P03,D02,1,1,1
1951,-5.0,1.0,62.0,1644584770.71875,P03,D02,1,1,1
1952,-6.0,1.0,62.0,1644584770.75,P03,D02,1,1,1
1953,-6.0,1.0,62.0,1644584770.78125,P03,D02,1,1,1
1954,-6.0,1.0,62.0,1644584770.8125,P03,D02,1,1,1
1955,-6.0,0.0,62.0,1644584770.84375,P03,D02,1,1,1
1956,-6.0,1.0,62.0,1644584770.875,P03,D02,1,1,1
1957,-6.0,1.0,62.0,1644584770.90625,P03,D02,1,1,1
1958,-6.0,1.0,62.0,1644584770.9375,P03,D02,1,1,1
1959,-6.0,1.0,62.0,1644584770.96875,P03,D02,1,1,1
1960,-6.0,0.0,62.0,1644584771.0,P03,D02,1,1,1
1961,-5.0,1.0,62.0,1644584771.03125,P03,D02,1,1,1
1962,-6.0,1.0,62.0,1644584771.0625,P03,D02,1,1,1
1963,-6.0,1.0,62.0,1644584771.09375,P03,D02,1,1,1
1964,-5.0,1.0,62.0,1644584771.125,P03,D02,1,1,1
1965,-6.0,1.0,62.0,1644584771.15625,P03,D02,1,1,1
1966,-6.0,1.0,62.0,1644584771.1875,P03,D02,1,1,1
1967,-6.0,1.0,62.0,1644584771.21875,P03,D02,1,1,1
1968,-6.0,1.0,62.0,1644584771.25,P03,D02,1,1,1
1969,-5.0,1.0,62.0,1644584771.28125,P03,D02,1,1,1
1970,-6.0,1.0,62.0,1644584771.3125,P03,D02,1,1,1
1971,-6.0,1.0,62.0,1644584771.34375,P03,D02,1,1,1
1972,-6.0,1.0,62.0,1644584771.375,P03,D02,1,1,1
1973,-5.0,1.0,62.0,1644584771.40625,P03,D02,1,1,1
1974,-5.0,1.0,62.0,1644584771.4375,P03,D02,1,1,1
1975,-6.0,1.0,62.0,1644584771.46875,P03,D02,1,1,1
1976,-5.0,1.0,62.0,1644584771.5,P03,D02,1,1,1
1977,-5.0,1.0,62.0,1644584771.53125,P03,D02,1,1,1
1978,-6.0,0.0,62.0,1644584771.5625,P03,D02,1,1,1
1979,-6.0,1.0,62.0,1644584771.59375,P03,D02,1,1,1
1980,-6.0,1.0,62.0,1644584771.625,P03,D02,1,1,1
1981,-5.0,0.0,62.0,1644584771.65625,P03,D02,1,1,1
1982,-6.0,1.0,62.0,1644584771.6875,P03,D02,1,1,1
1983,-5.0,1.0,62.0,1644584771.71875,P03,D02,1,1,1
1984,-6.0,1.0,62.0,1644584771.75,P03,D02,1,1,1
1985,-6.0,1.0,62.0,1644584771.78125,P03,D02,1,1,1
1986,-5.0,1.0,62.0,1644584771.8125,P03,D02,1,1,1
1987,-6.0,1.0,62.0,1644584771.84375,P03,D02,1,1,1
1988,-5.0,1.0,62.0,1644584771.875,P03,D02,1,1,1
1989,-6.0,1.0,62.0,1644584771.90625,P03,D02,1,1,1
1990,-6.0,1.0,62.0,1644584771.9375,P03,D02,1,1,1
1991,-6.0,1.0,62.0,1644584771.96875,P03,D02,1,1,1
1992,-5.0,1.0,62.0,1644584772.0,P03,D02,1,1,1
1993,-6.0,1.0,62.0,1644584772.03125,P03,D02,1,1,1
1994,-6.0,1.0,62.0,1644584772.0625,P03,D02,1,1,1
1995,-6.0,1.0,62.0,1644584772.09375,P03,D02,1,1,1
1996,-6.0,1.0,62.0,1644584772.125,P03,D02,1,1,1
1997,-5.0,1.0,62.0,1644584772.15625,P03,D02,1,1,1
1998,-6.0,1.0,62.0,1644584772.1875,P03,D02,1,1,1
1999,-6.0,1.0,62.0,1644584772.21875,P03,D02,1,1,1
2000,-5.0,1.0,62.0,1644584772.25,P03,D02,1,1,1
2001,-5.0,1.0,62.0,1644584772.28125,P03,D02,1,1,1
2002,-6.0,1.0,62.0,1644584772.3125,P03,D02,1,1,1
2003,-5.0,1.0,62.0,1644584772.34375,P03,D02,1,1,1
2004,-5.0,1.0,62.0,1644584772.375,P03,D02,1,1,1
2005,-6.0,1.0,62.0,1644584772.40625,P03,D02,1,1,1
2006,-6.0,1.0,62.0,1644584772.4375,P03,D02,1,1,1
2007,-6.0,1.0,62.0,1644584772.46875,P03,D02,1,1,1
2008,-6.0,1.0,62.0,1644584772.5,P03,D02,1,1,1
2009,-5.0,1.0,62.0,1644584772.53125,P03,D02,1,1,1
2010,-6.0,1.0,62.0,1644584772.5625,P03,D02,1,1,1
2011,-5.0,1.0,62.0,1644584772.59375,P03,D02,1,1,1
2012,-5.0,0.0,62.0,1644584772.625,P03,D02,1,1,1
2013,-6.0,1.0,62.0,1644584772.65625,P03,D02,1,1,1
2014,-6.0,1.0,62.0,1644584772.6875,P03,D02,1,1,1
2015,-6.0,1.0,62.0,1644584772.71875,P03,D02,1,1,1
2016,-6.0,1.0,62.0,1644584772.75,P03,D02,1,1,1
2017,-5.0,1.0,62.0,1644584772.78125,P03,D02,1,1,1
2018,-5.0,1.0,62.0,1644584772.8125,P03,D02,1,1,1
2019,-5.0,0.0,62.0,1644584772.84375,P03,D02,1,1,1
2020,-6.0,1.0,62.0,1644584772.875,P03,D02,1,1,1
2021,-6.0,0.0,62.0,1644584772.90625,P03,D02,1,1,1
2022,-5.0,1.0,62.0,1644584772.9375,P03,D02,1,1,1
2023,-6.0,1.0,62.0,1644584772.96875,P03,D02,1,1,1
2024,-5.0,1.0,62.0,1644584773.0,P03,D02,1,1,1
2025,-6.0,1.0,62.0,1644584773.03125,P03,D02,1,1,1
2026,-6.0,1.0,62.0,1644584773.0625,P03,D02,1,1,1
2027,-5.0,1.0,62.0,1644584773.09375,P03,D02,1,1,1
2028,-6.0,1.0,62.0,1644584773.125,P03,D02,1,1,1
2029,-6.0,1.0,62.0,1644584773.15625,P03,D02,1,1,1
2030,-6.0,0.0,62.0,1644584773.1875,P03,D02,1,1,1
2031,-6.0,1.0,62.0,1644584773.21875,P03,D02,1,1,1
2032,-5.0,1.0,62.0,1644584773.25,P03,D02,1,1,1
2033,-6.0,1.0,62.0,1644584773.28125,P03,D02,1,1,1
2034,-6.0,1.0,62.0,1644584773.3125,P03,D02,1,1,1
2035,-5.0,1.0,62.0,1644584773.34375,P03,D02,1,1,1
2036,-5.0,1.0,62.0,1644584773.375,P03,D02,1,1,1
2037,-6.0,1.0,62.0,1644584773.40625,P03,D02,1,1,1
2038,-6.0,0.0,62.0,1644584773.4375,P03,D02,1,1,1
2039,-6.0,1.0,62.0,1644584773.46875,P03,D02,1,1,1
2040,-6.0,1.0,62.0,1644584773.5,P03,D02,1,1,1
2041,-5.0,1.0,62.0,1644584773.53125,P03,D02,1,1,1
2042,-6.0,1.0,62.0,1644584773.5625,P03,D02,1,1,1
2043,-6.0,1.0,62.0,1644584773.59375,P03,D02,1,1,1
2044,-5.0,1.0,62.0,1644584773.625,P03,D02,1,1,1
2045,-5.0,1.0,62.0,1644584773.65625,P03,D02,1,1,1
2046,-6.0,1.0,62.0,1644584773.6875,P03,D02,1,1,1
2047,-6.0,0.0,62.0,1644584773.71875,P03,D02,1,1,1
2048,-6.0,1.0,62.0,1644584773.75,P03,D02,1,1,1
2049,-5.0,1.0,62.0,1644584773.78125,P03,D02,1,1,1
2050,-5.0,1.0,62.0,1644584773.8125,P03,D02,1,1,1
2051,-6.0,1.0,62.0,1644584773.84375,P03,D02,1,1,1
2052,-6.0,0.0,62.0,1644584773.875,P03,D02,1,1,1
2053,-6.0,1.0,62.0,1644584773.90625,P03,D02,1,1,1
2054,-5.0,0.0,62.0,1644584773.9375,P03,D02,1,1,1
2055,-6.0,1.0,62.0,1644584773.96875,P03,D02,1,1,1
2056,-5.0,1.0,62.0,1644584774.0,P03,D02,1,1,1
2057,-6.0,1.0,62.0,1644584774.03125,P03,D02,1,1,1
2058,-6.0,0.0,62.0,1644584774.0625,P03,D02,1,1,1
2059,-5.0,1.0,62.0,1644584774.09375,P03,D02,1,1,1
2060,-5.0,0.0,62.0,1644584774.125,P03,D02,1,1,1
2061,-6.0,0.0,62.0,1644584774.15625,P03,D02,1,1,1
2062,-6.0,1.0,62.0,1644584774.1875,P03,D02,1,1,1
2063,-5.0,1.0,62.0,1644584774.21875,P03,D02,1,1,1
2064,-6.0,1.0,62.0,1644584774.25,P03,D02,1,1,1
2065,-6.0,1.0,62.0,1644584774.28125,P03,D02,1,1,1
2066,-6.0,1.0,62.0,1644584774.3125,P03,D02,1,1,1
2067,-6.0,1.0,62.0,1644584774.34375,P03,D02,1,1,1
2068,-6.0,1.0,62.0,1644584774.375,P03,D02,1,1,1
2069,-6.0,1.0,62.0,1644584774.40625,P03,D02,1,1,1
2070,-6.0,1.0,62.0,1644584774.4375,P03,D02,1,1,1
2071,-6.0,0.0,62.0,1644584774.46875,P03,D02,1,1,1
2072,-6.0,1.0,62.0,1644584774.5,P03,D02,1,1,1
2073,-5.0,1.0,62.0,1644584774.53125,P03,D02,1,1,1
2074,-5.0,1.0,62.0,1644584774.5625,P03,D02,1,1,1
2075,-6.0,0.0,62.0,1644584774.59375,P03,D02,1,1,1
2076,-6.0,1.0,62.0,1644584774.625,P03,D02,1,1,1
2077,-5.0,1.0,62.0,1644584774.65625,P03,D02,1,1,1
2078,-6.0,0.0,62.0,1644584774.6875,P03,D02,1,1,1
2079,-6.0,1.0,62.0,1644584774.71875,P03,D02,1,1,1
2080,-6.0,1.0,62.0,1644584774.75,P03,D02,1,1,1
2081,-6.0,1.0,62.0,1644584774.78125,P03,D02,1,1,1
2082,-5.0,1.0,62.0,1644584774.8125,P03,D02,1,1,1
2083,-6.0,1.0,62.0,1644584774.84375,P03,D02,1,1,1
2084,-6.0,1.0,62.0,1644584774.875,P03,D02,1,1,1
2085,-6.0,1.0,62.0,1644584774.90625,P03,D02,1,1,1
2086,-5.0,1.0,62.0,1644584774.9375,P03,D02,1,1,1
2087,-6.0,1.0,62.0,1644584774.96875,P03,D02,1,1,1
2088,-6.0,0.0,62.0,1644584775.0,P03,D02,1,1,1
2089,-6.0,1.0,62.0,1644584775.03125,P03,D02,1,1,1
2090,-6.0,0.0,62.0,1644584775.0625,P03,D02,1,1,1
2091,-6.0,1.0,62.0,1644584775.09375,P03,D02,1,1,1
2092,-6.0,0.0,62.0,1644584775.125,P03,D02,1,1,1
2093,-6.0,1.0,62.0,1644584775.15625,P03,D02,1,1,1
2094,-5.0,0.0,62.0,1644584775.1875,P03,D02,1,1,1
2095,-6.0,1.0,62.0,1644584775.21875,P03,D02,1,1,1
2096,-6.0,1.0,62.0,1644584775.25,P03,D02,1,1,1
2097,-6.0,0.0,62.0,1644584775.28125,P03,D02,1,1,1
2098,-6.0,1.0,62.0,1644584775.3125,P03,D02,1,1,1
2099,-5.0,1.0,62.0,1644584775.34375,P03,D02,1,1,1
2100,-6.0,1.0,62.0,1644584775.375,P03,D02,1,1,1
2101,-5.0,1.0,62.0,1644584775.40625,P03,D02,1,1,1
2102,-6.0,1.0,62.0,1644584775.4375,P03,D02,1,1,1
2103,-6.0,1.0,62.0,1644584775.46875,P03,D02,1,1,1
2104,-5.0,1.0,62.0,1644584775.5,P03,D02,1,1,1
2105,-6.0,0.0,62.0,1644584775.53125,P03,D02,1,1,1
2106,-6.0,1.0,62.0,1644584775.5625,P03,D02,1,1,1
2107,-5.0,1.0,62.0,1644584775.59375,P03,D02,1,1,1
2108,-6.0,1.0,62.0,1644584775.625,P03,D02,1,1,1
2109,-6.0,1.0,62.0,1644584775.65625,P03,D02,1,1,1
2110,-5.0,1.0,62.0,1644584775.6875,P03,D02,1,1,1
2111,-6.0,1.0,62.0,1644584775.71875,P03,D02,1,1,1
2112,-6.0,1.0,62.0,1644584775.75,P03,D02,1,1,1
2113,-5.0,1.0,62.0,1644584775.78125,P03,D02,1,1,1
2114,-6.0,1.0,62.0,1644584775.8125,P03,D02,1,1,1
2115,-6.0,0.0,62.0,1644584775.84375,P03,D02,1,1,1
2116,-5.0,1.0,62.0,1644584775.875,P03,D02,1,1,1
2117,-5.0,1.0,62.0,1644584775.90625,P03,D02,1,1,1
2118,-6.0,1.0,62.0,1644584775.9375,P03,D02,1,1,1
2119,-6.0,1.0,62.0,1644584775.96875,P03,D02,1,1,1
2120,-5.0,1.0,62.0,1644584776.0,P03,D02,1,1,1
2121,-6.0,1.0,62.0,1644584776.03125,P03,D02,1,1,1
2122,-6.0,1.0,62.0,1644584776.0625,P03,D02,1,1,1
2123,-6.0,1.0,62.0,1644584776.09375,P03,D02,1,1,1
2124,-6.0,0.0,62.0,1644584776.125,P03,D02,1,1,1
2125,-6.0,1.0,62.0,1644584776.15625,P03,D02,1,1,1
2126,-6.0,1.0,62.0,1644584776.1875,P03,D02,1,1,1
2127,-6.0,1.0,62.0,1644584776.21875,P03,D02,1,1,1
2128,-6.0,1.0,62.0,1644584776.25,P03,D02,1,1,1
2129,-6.0,1.0,62.0,1644584776.28125,P03,D02,1,1,1
2130,-6.0,1.0,62.0,1644584776.3125,P03,D02,1,1,1
2131,-6.0,1.0,62.0,1644584776.34375,P03,D02,1,1,1
2132,-6.0,1.0,62.0,1644584776.375,P03,D02,1,1,1
2133,-6.0,1.0,62.0,1644584776.40625,P03,D02,1,1,1
2134,-6.0,1.0,62.0,1644584776.4375,P03,D02,1,1,1
2135,-6.0,0.0,62.0,1644584776.46875,P03,D02,1,1,1
2136,-5.0,1.0,62.0,1644584776.5,P03,D02,1,1,1
2137,-6.0,1.0,62.0,1644584776.53125,P03,D02,1,1,1
2138,-6.0,0.0,62.0,1644584776.5625,P03,D02,1,1,1
2139,-6.0,1.0,62.0,1644584776.59375,P03,D02,1,1,1
2140,-6.0,1.0,62.0,1644584776.625,P03,D02,1,1,1
2141,-6.0,1.0,62.0,1644584776.65625,P03,D02,1,1,1
2142,-6.0,1.0,62.0,1644584776.6875,P03,D02,1,1,1
2143,-6.0,1.0,62.0,1644584776.71875,P03,D02,1,1,1
2144,-6.0,1.0,62.0,1644584776.75,P03,D02,1,1,1
2145,-6.0,1.0,62.0,1644584776.78125,P03,D02,1,1,1
2146,-6.0,1.0,62.0,1644584776.8125,P03,D02,1,1,1
2147,-6.0,1.0,62.0,1644584776.84375,P03,D02,1,1,1
2148,-6.0,1.0,62.0,1644584776.875,P03,D02,1,1,1
2149,-6.0,1.0,62.0,1644584776.90625,P03,D02,1,1,1
2150,-6.0,1.0,62.0,1644584776.9375,P03,D02,1,1,1
2151,-6.0,1.0,62.0,1644584776.96875,P03,D02,1,1,1
2152,-6.0,1.0,62.0,1644584777.0,P03,D02,1,1,1
2153,-6.0,1.0,62.0,1644584777.03125,P03,D02,1,1,1
2154,-6.0,1.0,62.0,1644584777.0625,P03,D02,1,1,1
2155,-6.0,1.0,62.0,1644584777.09375,P03,D02,1,1,1
2156,-6.0,1.0,62.0,1644584777.125,P03,D02,1,1,1
2157,-6.0,1.0,62.0,1644584777.15625,P03,D02,1,1,1
2158,-6.0,1.0,62.0,1644584777.1875,P03,D02,1,1,1
