,acc_x,acc_y,acc_z,timestamp,participant,document,val,arou,eng
0,38.0,-1.0,49.0,1645098520.09375,P10,D01,1,1,1
1,38.0,-1.0,48.0,1645098520.125,P10,D01,1,1,1
2,38.0,0.0,49.0,1645098520.15625,P10,D01,1,1,1
3,38.0,-1.0,48.0,1645098520.1875,P10,D01,1,1,1
4,38.0,-1.0,49.0,1645098520.21875,P10,D01,1,1,1
5,38.0,-1.0,49.0,1645098520.25,P10,D01,1,1,1
6,38.0,-1.0,49.0,1645098520.28125,P10,D01,1,1,1
7,38.0,-1.0,49.0,1645098520.3125,P10,D01,1,1,1
8,39.0,-1.0,49.0,1645098520.34375,P10,D01,1,1,1
9,38.0,-1.0,49.0,1645098520.375,P10,D01,1,1,1
10,38.0,-1.0,49.0,1645098520.40625,P10,D01,1,1,1
11,38.0,-1.0,49.0,1645098520.4375,P10,D01,1,1,1
12,38.0,-1.0,48.0,1645098520.46875,P10,D01,1,1,1
13,38.0,0.0,49.0,1645098520.5,P10,D01,1,1,1
14,39.0,-1.0,49.0,1645098520.53125,P10,D01,1,1,1
15,38.0,-1.0,48.0,1645098520.5625,P10,D01,1,1,1
16,38.0,-1.0,49.0,1645098520.59375,P10,D01,1,1,1
17,38.0,0.0,49.0,1645098520.625,P10,D01,1,1,1
18,38.0,-1.0,49.0,1645098520.65625,P10,D01,1,1,1
19,38.0,-1.0,49.0,1645098520.6875,P10,D01,1,1,1
20,38.0,-1.0,48.0,1645098520.71875,P10,D01,1,1,1
21,39.0,-1.0,49.0,1645098520.75,P10,D01,1,1,1
22,38.0,-1.0,49.0,1645098520.78125,P10,D01,1,1,1
23,39.0,-1.0,49.0,1645098520.8125,P10,D01,1,1,1
24,38.0,-1.0,48.0,1645098520.84375,P10,D01,1,1,1
25,39.0,-1.0,49.0,1645098520.875,P10,D01,1,1,1
26,38.0,-1.0,49.0,1645098520.90625,P10,D01,1,1,1
27,38.0,-1.0,49.0,1645098520.9375,P10,D01,1,1,1
28,38.0,-1.0,48.0,1645098520.96875,P10,D01,1,1,1
29,39.0,-1.0,48.0,1645098521.0,P10,D01,1,1,1
30,39.0,-1.0,49.0,1645098521.03125,P10,D01,1,1,1
31,38.0,-1.0,48.0,1645098521.0625,P10,D01,1,1,1
32,38.0,0.0,48.0,1645098521.09375,P10,D01,1,1,1
33,38.0,0.0,48.0,1645098521.125,P10,D01,1,1,1
34,38.0,0.0,48.0,1645098521.15625,P10,D01,1,1,1
35,38.0,-1.0,49.0,1645098521.1875,P10,D01,1,1,1
36,39.0,-1.0,48.0,1645098521.21875,P10,D01,1,1,1
37,39.0,-1.0,48.0,1645098521.25,P10,D01,1,1,1
38,38.0,-1.0,48.0,1645098521.28125,P10,D01,1,1,1
39,39.0,-1.0,48.0,1645098521.3125,P10,D01,1,1,1
40,39.0,-1.0,48.0,1645098521.34375,P10,D01,1,1,1
41,39.0,0.0,48.0,1645098521.375,P10,D01,1,1,1
42,38.0,0.0,48.0,1645098521.40625,P10,D01,1,1,1
43,38.0,-1.0,48.0,1645098521.4375,P10,D01,1,1,1
44,39.0,0.0,48.0,1645098521.46875,P10,D01,1,1,1
45,39.0,0.0,48.0,1645098521.5,P10,D01,1,1,1
46,38.0,0.0,48.0,1645098521.53125,P10,D01,1,1,1
47,38.0,-1.0,48.0,1645098521.5625,P10,D01,1,1,1
48,38.0,-1.0,48.0,1645098521.59375,P10,D01,1,1,1
49,41.0,-1.0,48.0,1645098521.625,P10,D01,1,1,1
50,41.0,-1.0,48.0,1645098521.65625,P10,D01,1,1,1
51,39.0,-1.0,49.0,1645098521.6875,P10,D01,1,1,1
52,37.0,-1.0,49.0,1645098521.71875,P10,D01,1,1,1
53,37.0,-1.0,49.0,1645098521.75,P10,D01,1,1,1
54,38.0,-1.0,50.0,1645098521.78125,P10,D01,1,1,1
55,36.0,-1.0,51.0,1645098521.8125,P10,D01,1,1,1
56,34.0,-1.0,51.0,1645098521.84375,P10,D01,1,1,1
57,33.0,-1.0,51.0,1645098521.875,P10,D01,1,1,1
58,34.0,-1.0,51.0,1645098521.90625,P10,D01,1,1,1
59,35.0,-1.0,51.0,1645098521.9375,P10,D01,1,1,1
60,36.0,-1.0,51.0,1645098521.96875,P10,D01,1,1,1
61,35.0,-1.0,51.0,1645098522.0,P10,D01,1,1,1
62,35.0,-1.0,51.0,1645098522.03125,P10,D01,1,1,1
63,35.0,-1.0,51.0,1645098522.0625,P10,D01,1,1,1
64,36.0,-1.0,51.0,1645098522.09375,P10,D01,1,1,1
65,35.0,-1.0,51.0,1645098522.125,P10,D01,1,1,1
66,36.0,-1.0,51.0,1645098522.15625,P10,D01,1,1,1
67,36.0,-1.0,51.0,1645098522.1875,P10,D01,1,1,1
68,35.0,0.0,51.0,1645098522.21875,P10,D01,1,1,1
69,34.0,-2.0,51.0,1645098522.25,P10,D01,1,1,1
70,35.0,-1.0,51.0,1645098522.28125,P10,D01,1,1,1
71,36.0,-1.0,51.0,1645098522.3125,P10,D01,1,1,1
72,35.0,-1.0,51.0,1645098522.34375,P10,D01,1,1,1
73,34.0,-1.0,51.0,1645098522.375,P10,D01,1,1,1
74,35.0,-1.0,51.0,1645098522.40625,P10,D01,1,1,1
75,36.0,-1.0,51.0,1645098522.4375,P10,D01,1,1,1
76,36.0,-1.0,51.0,1645098522.46875,P10,D01,1,1,1
77,35.0,-1.0,51.0,1645098522.5,P10,D01,1,1,1
78,35.0,-1.0,51.0,1645098522.53125,P10,D01,1,1,1
79,35.0,-1.0,51.0,1645098522.5625,P10,D01,1,1,1
80,36.0,-1.0,51.0,1645098522.59375,P10,D01,1,1,1
81,36.0,0.0,51.0,1645098522.625,P10,D01,1,1,1
82,34.0,-1.0,51.0,1645098522.65625,P10,D01,1,1,1
83,35.0,-1.0,51.0,1645098522.6875,P10,D01,1,1,1
84,35.0,-1.0,51.0,1645098522.71875,P10,D01,1,1,1
85,35.0,-1.0,51.0,1645098522.75,P10,D01,1,1,1
86,35.0,-1.0,51.0,1645098522.78125,P10,D01,1,1,1
87,35.0,-1.0,51.0,1645098522.8125,P10,D01,1,1,1
88,35.0,-1.0,51.0,1645098522.84375,P10,D01,1,1,1
89,34.0,-1.0,51.0,1645098522.875,P10,D01,1,1,1
90,35.0,-1.0,51.0,1645098522.90625,P10,D01,1,1,1
91,36.0,-1.0,51.0,1645098522.9375,P10,D01,1,1,1
92,35.0,-1.0,51.0,1645098522.96875,P10,D01,1,1,1
93,35.0,-1.0,51.0,1645098523.0,P10,D01,1,1,1
94,36.0,-1.0,51.0,1645098523.03125,P10,D01,1,1,1
95,36.0,-1.0,51.0,1645098523.0625,P10,D01,1,1,1
96,35.0,-1.0,51.0,1645098523.09375,P10,D01,1,1,1
97,35.0,-1.0,51.0,1645098523.125,P10,D01,1,1,1
98,35.0,-1.0,51.0,1645098523.15625,P10,D01,1,1,1
99,35.0,-1.0,51.0,1645098523.1875,P10,D01,1,1,1
100,35.0,-1.0,51.0,1645098523.21875,P10,D01,1,1,1
101,35.0,-1.0,51.0,1645098523.25,P10,D01,1,1,1
102,35.0,-1.0,51.0,1645098523.28125,P10,D01,1,1,1
103,36.0,-1.0,51.0,1645098523.3125,P10,D01,1,1,1
104,34.0,-1.0,51.0,1645098523.34375,P10,D01,1,1,1
105,35.0,-1.0,51.0,1645098523.375,P10,D01,1,1,1
106,35.0,-1.0,51.0,1645098523.40625,P10,D01,1,1,1
107,35.0,-1.0,51.0,1645098523.4375,P10,D01,1,1,1
108,35.0,-1.0,51.0,1645098523.46875,P10,D01,1,1,1
109,35.0,-1.0,51.0,1645098523.5,P10,D01,1,1,1
110,35.0,-1.0,51.0,1645098523.53125,P10,D01,1,1,1
111,35.0,-1.0,51.0,1645098523.5625,P10,D01,1,1,1
112,35.0,-1.0,51.0,1645098523.59375,P10,D01,1,1,1
113,34.0,-1.0,51.0,1645098523.625,P10,D01,1,1,1
114,35.0,-1.0,51.0,1645098523.65625,P10,D01,1,1,1
115,35.0,-1.0,51.0,1645098523.6875,P10,D01,1,1,1
116,34.0,-1.0,51.0,1645098523.71875,P10,D01,1,1,1
117,35.0,-1.0,51.0,1645098523.75,P10,D01,1,1,1
118,35.0,-1.0,51.0,1645098523.78125,P10,D01,1,1,1
119,35.0,-1.0,51.0,1645098523.8125,P10,D01,1,1,1
120,35.0,-1.0,51.0,1645098523.84375,P10,D01,1,1,1
121,35.0,-1.0,51.0,1645098523.875,P10,D01,1,1,1
122,35.0,-1.0,51.0,1645098523.90625,P10,D01,1,1,1
123,35.0,-1.0,51.0,1645098523.9375,P10,D01,1,1,1
124,35.0,-1.0,51.0,1645098523.96875,P10,D01,1,1,1
125,35.0,-1.0,51.0,1645098524.0,P10,D01,1,1,1
126,35.0,-1.0,51.0,1645098524.03125,P10,D01,1,1,1
127,35.0,-1.0,51.0,1645098524.0625,P10,D01,1,1,1
128,35.0,-1.0,51.0,1645098524.09375,P10,D01,1,1,1
129,35.0,-1.0,51.0,1645098524.125,P10,D01,1,1,1
130,35.0,-1.0,51.0,1645098524.15625,P10,D01,1,1,1
131,35.0,-1.0,51.0,1645098524.1875,P10,D01,1,1,1
132,35.0,-1.0,51.0,1645098524.21875,P10,D01,1,1,1
133,35.0,-1.0,51.0,1645098524.25,P10,D01,1,1,1
134,35.0,-1.0,51.0,1645098524.28125,P10,D01,1,1,1
135,35.0,-1.0,51.0,1645098524.3125,P10,D01,1,1,1
136,35.0,-1.0,51.0,1645098524.34375,P10,D01,1,1,1
137,34.0,-1.0,51.0,1645098524.375,P10,D01,1,1,1
138,35.0,0.0,51.0,1645098524.40625,P10,D01,1,1,1
139,36.0,0.0,51.0,1645098524.4375,P10,D01,1,1,1
140,36.0,-1.0,51.0,1645098524.46875,P10,D01,1,1,1
141,36.0,-1.0,50.0,1645098524.5,P10,D01,1,1,1
142,36.0,-1.0,50.0,1645098524.53125,P10,D01,1,1,1
143,38.0,0.0,50.0,1645098524.5625,P10,D01,1,1,1
144,39.0,-1.0,51.0,1645098524.59375,P10,D01,1,1,1
145,35.0,0.0,51.0,1645098524.625,P10,D01,1,1,1
146,33.0,0.0,51.0,1645098524.65625,P10,D01,1,1,1
147,34.0,-1.0,51.0,1645098524.6875,P10,D01,1,1,1
148,33.0,-1.0,52.0,1645098524.71875,P10,D01,1,1,1
149,34.0,-2.0,51.0,1645098524.75,P10,D01,1,1,1
150,35.0,-1.0,51.0,1645098524.78125,P10,D01,1,1,1
151,35.0,-1.0,51.0,1645098524.8125,P10,D01,1,1,1
152,35.0,-1.0,52.0,1645098524.84375,P10,D01,1,1,1
153,33.0,-2.0,52.0,1645098524.875,P10,D01,1,1,1
154,32.0,-1.0,52.0,1645098524.90625,P10,D01,1,1,1
155,32.0,-1.0,52.0,1645098524.9375,P10,D01,1,1,1
156,34.0,-1.0,52.0,1645098524.96875,P10,D01,1,1,1
157,34.0,0.0,52.0,1645098525.0,P10,D01,1,1,1
158,34.0,-1.0,51.0,1645098525.03125,P10,D01,1,1,1
159,36.0,-1.0,51.0,1645098525.0625,P10,D01,1,1,1
160,35.0,-1.0,50.0,1645098525.09375,P10,D01,1,1,1
161,37.0,-1.0,50.0,1645098525.125,P10,D01,1,1,1
162,37.0,-1.0,50.0,1645098525.15625,P10,D01,1,1,1
163,36.0,-1.0,50.0,1645098525.1875,P10,D01,1,1,1
164,37.0,-1.0,50.0,1645098525.21875,P10,D01,1,1,1
165,38.0,-1.0,50.0,1645098525.25,P10,D01,1,1,1
166,38.0,-1.0,50.0,1645098525.28125,P10,D01,1,1,1
167,38.0,-1.0,49.0,1645098525.3125,P10,D01,1,1,1
168,37.0,-1.0,50.0,1645098525.34375,P10,D01,1,1,1
169,37.0,-1.0,50.0,1645098525.375,P10,D01,1,1,1
170,37.0,0.0,50.0,1645098525.40625,P10,D01,1,1,1
171,37.0,-1.0,50.0,1645098525.4375,P10,D01,1,1,1
172,35.0,0.0,50.0,1645098525.46875,P10,D01,1,1,1
173,36.0,-1.0,50.0,1645098525.5,P10,D01,1,1,1
174,38.0,-1.0,50.0,1645098525.53125,P10,D01,1,1,1
175,37.0,-1.0,50.0,1645098525.5625,P10,D01,1,1,1
176,38.0,-1.0,50.0,1645098525.59375,P10,D01,1,1,1
177,37.0,-1.0,50.0,1645098525.625,P10,D01,1,1,1
178,39.0,-1.0,50.0,1645098525.65625,P10,D01,1,1,1
179,38.0,-2.0,51.0,1645098525.6875,P10,D01,1,1,1
180,28.0,0.0,52.0,1645098525.71875,P10,D01,1,1,1
181,25.0,0.0,51.0,1645098525.75,P10,D01,1,1,1
182,40.0,-1.0,56.0,1645098525.78125,P10,D01,1,1,1
183,30.0,-6.0,52.0,1645098525.8125,P10,D01,1,1,1
184,23.0,-1.0,52.0,1645098525.84375,P10,D01,1,1,1
185,32.0,0.0,53.0,1645098525.875,P10,D01,1,1,1
186,34.0,1.0,54.0,1645098525.90625,P10,D01,1,1,1
187,29.0,0.0,54.0,1645098525.9375,P10,D01,1,1,1
188,30.0,-1.0,55.0,1645098525.96875,P10,D01,1,1,1
189,26.0,-1.0,56.0,1645098526.0,P10,D01,1,1,1
190,23.0,-1.0,56.0,1645098526.03125,P10,D01,1,1,1
191,24.0,-1.0,57.0,1645098526.0625,P10,D01,1,1,1
192,25.0,1.0,55.0,1645098526.09375,P10,D01,1,1,1
193,25.0,-1.0,57.0,1645098526.125,P10,D01,1,1,1
194,24.0,-1.0,56.0,1645098526.15625,P10,D01,1,1,1
195,25.0,-1.0,57.0,1645098526.1875,P10,D01,1,1,1
196,24.0,-1.0,56.0,1645098526.21875,P10,D01,1,1,1
197,22.0,-2.0,57.0,1645098526.25,P10,D01,1,1,1
198,25.0,-1.0,56.0,1645098526.28125,P10,D01,1,1,1
199,29.0,-1.0,56.0,1645098526.3125,P10,D01,1,1,1
200,29.0,0.0,55.0,1645098526.34375,P10,D01,1,1,1
201,30.0,-2.0,55.0,1645098526.375,P10,D01,1,1,1
202,32.0,-2.0,54.0,1645098526.40625,P10,D01,1,1,1
203,34.0,-1.0,54.0,1645098526.4375,P10,D01,1,1,1
204,30.0,-1.0,53.0,1645098526.46875,P10,D01,1,1,1
205,30.0,-1.0,53.0,1645098526.5,P10,D01,1,1,1
206,31.0,-1.0,53.0,1645098526.53125,P10,D01,1,1,1
207,33.0,-2.0,53.0,1645098526.5625,P10,D01,1,1,1
208,34.0,-1.0,52.0,1645098526.59375,P10,D01,1,1,1
209,36.0,-1.0,52.0,1645098526.625,P10,D01,1,1,1
210,36.0,-2.0,52.0,1645098526.65625,P10,D01,1,1,1
211,34.0,0.0,51.0,1645098526.6875,P10,D01,1,1,1
212,33.0,0.0,51.0,1645098526.71875,P10,D01,1,1,1
213,35.0,0.0,52.0,1645098526.75,P10,D01,1,1,1
214,34.0,-1.0,51.0,1645098526.78125,P10,D01,1,1,1
215,36.0,-1.0,51.0,1645098526.8125,P10,D01,1,1,1
216,36.0,-2.0,51.0,1645098526.84375,P10,D01,1,1,1
217,38.0,0.0,50.0,1645098526.875,P10,D01,1,1,1
218,34.0,-1.0,50.0,1645098526.90625,P10,D01,1,1,1
219,34.0,0.0,50.0,1645098526.9375,P10,D01,1,1,1
220,34.0,-2.0,51.0,1645098526.96875,P10,D01,1,1,1
221,36.0,-1.0,51.0,1645098527.0,P10,D01,1,1,1
222,36.0,-1.0,50.0,1645098527.03125,P10,D01,1,1,1
223,37.0,-1.0,50.0,1645098527.0625,P10,D01,1,1,1
224,37.0,0.0,51.0,1645098527.09375,P10,D01,1,1,1
225,35.0,-1.0,51.0,1645098527.125,P10,D01,1,1,1
226,35.0,1.0,51.0,1645098527.15625,P10,D01,1,1,1
227,36.0,-1.0,51.0,1645098527.1875,P10,D01,1,1,1
228,36.0,-2.0,51.0,1645098527.21875,P10,D01,1,1,1
229,33.0,-2.0,52.0,1645098527.25,P10,D01,1,1,1
230,31.0,-2.0,52.0,1645098527.28125,P10,D01,1,1,1
231,33.0,1.0,53.0,1645098527.3125,P10,D01,1,1,1
232,33.0,1.0,53.0,1645098527.34375,P10,D01,1,1,1
233,30.0,-2.0,52.0,1645098527.375,P10,D01,1,1,1
234,30.0,-1.0,53.0,1645098527.40625,P10,D01,1,1,1
235,31.0,0.0,53.0,1645098527.4375,P10,D01,1,1,1
236,32.0,0.0,53.0,1645098527.46875,P10,D01,1,1,1
237,34.0,-1.0,52.0,1645098527.5,P10,D01,1,1,1
238,36.0,-1.0,52.0,1645098527.53125,P10,D01,1,1,1
239,33.0,-1.0,53.0,1645098527.5625,P10,D01,1,1,1
240,32.0,-4.0,52.0,1645098527.59375,P10,D01,1,1,1
241,34.0,0.0,53.0,1645098527.625,P10,D01,1,1,1
242,31.0,1.0,52.0,1645098527.65625,P10,D01,1,1,1
243,30.0,1.0,53.0,1645098527.6875,P10,D01,1,1,1
244,32.0,0.0,52.0,1645098527.71875,P10,D01,1,1,1
245,34.0,-1.0,52.0,1645098527.75,P10,D01,1,1,1
246,35.0,-1.0,52.0,1645098527.78125,P10,D01,1,1,1
247,33.0,-1.0,52.0,1645098527.8125,P10,D01,1,1,1
248,32.0,0.0,52.0,1645098527.84375,P10,D01,1,1,1
249,34.0,0.0,52.0,1645098527.875,P10,D01,1,1,1
250,37.0,1.0,50.0,1645098527.90625,P10,D01,1,1,1
251,37.0,-1.0,50.0,1645098527.9375,P10,D01,1,1,1
252,39.0,-1.0,50.0,1645098527.96875,P10,D01,1,1,1
253,37.0,-1.0,50.0,1645098528.0,P10,D01,1,1,1
254,37.0,-1.0,50.0,1645098528.03125,P10,D01,1,1,1
255,36.0,0.0,50.0,1645098528.0625,P10,D01,1,1,1
256,38.0,-1.0,50.0,1645098528.09375,P10,D01,1,1,1
257,36.0,0.0,50.0,1645098528.125,P10,D01,1,1,1
258,37.0,-1.0,50.0,1645098528.15625,P10,D01,1,1,1
259,38.0,-1.0,50.0,1645098528.1875,P10,D01,1,1,1
260,37.0,0.0,50.0,1645098528.21875,P10,D01,1,1,1
261,36.0,-1.0,50.0,1645098528.25,P10,D01,1,1,1
262,36.0,-3.0,49.0,1645098528.28125,P10,D01,1,1,1
263,38.0,2.0,50.0,1645098528.3125,P10,D01,1,1,1
264,36.0,0.0,49.0,1645098528.34375,P10,D01,1,1,1
265,37.0,-1.0,49.0,1645098528.375,P10,D01,1,1,1
266,39.0,-1.0,49.0,1645098528.40625,P10,D01,1,1,1
267,39.0,0.0,49.0,1645098528.4375,P10,D01,1,1,1
268,39.0,-1.0,48.0,1645098528.46875,P10,D01,1,1,1
269,39.0,-1.0,48.0,1645098528.5,P10,D01,1,1,1
270,37.0,0.0,48.0,1645098528.53125,P10,D01,1,1,1
271,37.0,0.0,48.0,1645098528.5625,P10,D01,1,1,1
272,39.0,0.0,48.0,1645098528.59375,P10,D01,1,1,1
273,39.0,0.0,48.0,1645098528.625,P10,D01,1,1,1
274,40.0,0.0,48.0,1645098528.65625,P10,D01,1,1,1
275,41.0,0.0,47.0,1645098528.6875,P10,D01,1,1,1
276,41.0,0.0,47.0,1645098528.71875,P10,D01,1,1,1
277,41.0,-1.0,47.0,1645098528.75,P10,D01,1,1,1
278,40.0,0.0,47.0,1645098528.78125,P10,D01,1,1,1
279,40.0,-1.0,47.0,1645098528.8125,P10,D01,1,1,1
280,41.0,0.0,47.0,1645098528.84375,P10,D01,1,1,1
281,40.0,-1.0,47.0,1645098528.875,P10,D01,1,1,1
282,40.0,-1.0,47.0,1645098528.90625,P10,D01,1,1,1
283,40.0,0.0,47.0,1645098528.9375,P10,D01,1,1,1
284,40.0,0.0,47.0,1645098528.96875,P10,D01,1,1,1
285,41.0,0.0,47.0,1645098529.0,P10,D01,1,1,1
286,42.0,-1.0,47.0,1645098529.03125,P10,D01,1,1,1
287,39.0,0.0,47.0,1645098529.0625,P10,D01,1,1,1
288,41.0,-1.0,47.0,1645098529.09375,P10,D01,1,1,1
289,41.0,0.0,47.0,1645098529.125,P10,D01,1,1,1
290,41.0,0.0,46.0,1645098529.15625,P10,D01,1,1,1
291,40.0,-1.0,47.0,1645098529.1875,P10,D01,1,1,1
292,40.0,-1.0,47.0,1645098529.21875,P10,D01,1,1,1
293,41.0,0.0,47.0,1645098529.25,P10,D01,1,1,1
294,41.0,-1.0,47.0,1645098529.28125,P10,D01,1,1,1
295,41.0,-1.0,46.0,1645098529.3125,P10,D01,1,1,1
296,42.0,0.0,47.0,1645098529.34375,P10,D01,1,1,1
297,41.0,0.0,47.0,1645098529.375,P10,D01,1,1,1
298,41.0,0.0,47.0,1645098529.40625,P10,D01,1,1,1
299,42.0,-1.0,46.0,1645098529.4375,P10,D01,1,1,1
300,41.0,-1.0,47.0,1645098529.46875,P10,D01,1,1,1
301,39.0,0.0,47.0,1645098529.5,P10,D01,1,1,1
302,41.0,-1.0,47.0,1645098529.53125,P10,D01,1,1,1
303,41.0,-1.0,47.0,1645098529.5625,P10,D01,1,1,1
304,40.0,-1.0,47.0,1645098529.59375,P10,D01,1,1,1
305,39.0,0.0,47.0,1645098529.625,P10,D01,1,1,1
306,40.0,0.0,47.0,1645098529.65625,P10,D01,1,1,1
307,41.0,0.0,47.0,1645098529.6875,P10,D01,1,1,1
308,40.0,-1.0,47.0,1645098529.71875,P10,D01,1,1,1
309,40.0,-1.0,48.0,1645098529.75,P10,D01,1,1,1
310,40.0,0.0,47.0,1645098529.78125,P10,D01,1,1,1
311,40.0,-1.0,48.0,1645098529.8125,P10,D01,1,1,1
312,40.0,-1.0,48.0,1645098529.84375,P10,D01,1,1,1
313,40.0,-1.0,48.0,1645098529.875,P10,D01,1,1,1
314,39.0,-1.0,48.0,1645098529.90625,P10,D01,1,1,1
315,39.0,-1.0,48.0,1645098529.9375,P10,D01,1,1,1
316,40.0,-1.0,48.0,1645098529.96875,P10,D01,1,1,1
317,39.0,-1.0,48.0,1645098530.0,P10,D01,1,1,1
318,40.0,-1.0,48.0,1645098530.03125,P10,D01,1,1,1
319,40.0,-1.0,48.0,1645098530.0625,P10,D01,1,1,1
320,38.0,-1.0,48.0,1645098530.09375,P10,D01,1,1,1
321,37.0,0.0,49.0,1645098530.125,P10,D01,1,1,1
322,39.0,-1.0,49.0,1645098530.15625,P10,D01,1,1,1
323,37.0,-1.0,49.0,1645098530.1875,P10,D01,1,1,1
324,36.0,0.0,49.0,1645098530.21875,P10,D01,1,1,1
325,37.0,-1.0,50.0,1645098530.25,P10,D01,1,1,1
326,36.0,-1.0,50.0,1645098530.28125,P10,D01,1,1,1
327,37.0,-1.0,50.0,1645098530.3125,P10,D01,1,1,1
328,36.0,-1.0,50.0,1645098530.34375,P10,D01,1,1,1
329,36.0,-1.0,50.0,1645098530.375,P10,D01,1,1,1
330,36.0,-1.0,50.0,1645098530.40625,P10,D01,1,1,1
331,35.0,0.0,51.0,1645098530.4375,P10,D01,1,1,1
332,35.0,0.0,51.0,1645098530.46875,P10,D01,1,1,1
333,38.0,-1.0,51.0,1645098530.5,P10,D01,1,1,1
334,35.0,-1.0,51.0,1645098530.53125,P10,D01,1,1,1
335,34.0,-1.0,51.0,1645098530.5625,P10,D01,1,1,1
336,35.0,0.0,51.0,1645098530.59375,P10,D01,1,1,1
337,34.0,-1.0,51.0,1645098530.625,P10,D01,1,1,1
338,33.0,0.0,51.0,1645098530.65625,P10,D01,1,1,1
339,36.0,-1.0,51.0,1645098530.6875,P10,D01,1,1,1
340,35.0,-1.0,51.0,1645098530.71875,P10,D01,1,1,1
341,35.0,-1.0,51.0,1645098530.75,P10,D01,1,1,1
342,35.0,-1.0,51.0,1645098530.78125,P10,D01,1,1,1
343,35.0,-1.0,51.0,1645098530.8125,P10,D01,1,1,1
344,35.0,-1.0,52.0,1645098530.84375,P10,D01,1,1,1
345,33.0,0.0,51.0,1645098530.875,P10,D01,1,1,1
346,34.0,0.0,51.0,1645098530.90625,P10,D01,1,1,1
347,37.0,0.0,51.0,1645098530.9375,P10,D01,1,1,1
348,36.0,0.0,51.0,1645098530.96875,P10,D01,1,1,1
349,34.0,0.0,51.0,1645098531.0,P10,D01,1,1,1
350,36.0,0.0,51.0,1645098531.03125,P10,D01,1,1,1
351,35.0,-1.0,51.0,1645098531.0625,P10,D01,1,1,1
352,35.0,-1.0,51.0,1645098531.09375,P10,D01,1,1,1
353,35.0,-1.0,52.0,1645098531.125,P10,D01,1,1,1
354,34.0,-1.0,52.0,1645098531.15625,P10,D01,1,1,1
355,33.0,-1.0,52.0,1645098531.1875,P10,D01,1,1,1
356,35.0,-1.0,52.0,1645098531.21875,P10,D01,1,1,1
357,32.0,0.0,53.0,1645098531.25,P10,D01,1,1,1
358,31.0,-1.0,52.0,1645098531.28125,P10,D01,1,1,1
359,32.0,-1.0,52.0,1645098531.3125,P10,D01,1,1,1
360,35.0,-1.0,52.0,1645098531.34375,P10,D01,1,1,1
361,34.0,-1.0,52.0,1645098531.375,P10,D01,1,1,1
362,30.0,-1.0,52.0,1645098531.40625,P10,D01,1,1,1
363,33.0,-1.0,51.0,1645098531.4375,P10,D01,1,1,1
364,37.0,0.0,53.0,1645098531.46875,P10,D01,1,1,1
365,33.0,-1.0,52.0,1645098531.5,P10,D01,1,1,1
366,34.0,-2.0,52.0,1645098531.53125,P10,D01,1,1,1
367,36.0,-1.0,52.0,1645098531.5625,P10,D01,1,1,1
368,32.0,-2.0,52.0,1645098531.59375,P10,D01,1,1,1
369,33.0,-2.0,52.0,1645098531.625,P10,D01,1,1,1
370,33.0,-2.0,52.0,1645098531.65625,P10,D01,1,1,1
371,36.0,-2.0,52.0,1645098531.6875,P10,D01,1,1,1
372,37.0,-1.0,52.0,1645098531.71875,P10,D01,1,1,1
373,34.0,-2.0,51.0,1645098531.75,P10,D01,1,1,1
374,36.0,-2.0,52.0,1645098531.78125,P10,D01,1,1,1
375,33.0,-1.0,51.0,1645098531.8125,P10,D01,1,1,1
376,35.0,-2.0,51.0,1645098531.84375,P10,D01,1,1,1
377,35.0,-1.0,51.0,1645098531.875,P10,D01,1,1,1
378,34.0,-1.0,51.0,1645098531.90625,P10,D01,1,1,1
379,35.0,-1.0,52.0,1645098531.9375,P10,D01,1,1,1
380,35.0,-1.0,52.0,1645098531.96875,P10,D01,1,1,1
381,34.0,-1.0,51.0,1645098532.0,P10,D01,1,1,1
382,34.0,-2.0,52.0,1645098532.03125,P10,D01,1,1,1
383,34.0,-1.0,52.0,1645098532.0625,P10,D01,1,1,1
384,34.0,-1.0,51.0,1645098532.09375,P10,D01,1,1,1
385,34.0,-1.0,51.0,1645098532.125,P10,D01,1,1,1
386,35.0,-1.0,52.0,1645098532.15625,P10,D01,1,1,1
387,34.0,-1.0,51.0,1645098532.1875,P10,D01,1,1,1
388,34.0,-1.0,51.0,1645098532.21875,P10,D01,1,1,1
389,34.0,1.0,50.0,1645098532.25,P10,D01,1,1,1
390,36.0,-2.0,51.0,1645098532.28125,P10,D01,1,1,1
391,38.0,-2.0,51.0,1645098532.3125,P10,D01,1,1,1
392,35.0,-4.0,51.0,1645098532.34375,P10,D01,1,1,1
393,31.0,-1.0,52.0,1645098532.375,P10,D01,1,1,1
394,32.0,-2.0,53.0,1645098532.40625,P10,D01,1,1,1
395,33.0,-3.0,52.0,1645098532.4375,P10,D01,1,1,1
396,32.0,-1.0,52.0,1645098532.46875,P10,D01,1,1,1
397,33.0,-1.0,52.0,1645098532.5,P10,D01,1,1,1
398,33.0,-1.0,51.0,1645098532.53125,P10,D01,1,1,1
399,38.0,-1.0,50.0,1645098532.5625,P10,D01,1,1,1
400,39.0,0.0,50.0,1645098532.59375,P10,D01,1,1,1
401,42.0,-1.0,52.0,1645098532.625,P10,D01,1,1,1
402,28.0,0.0,51.0,1645098532.65625,P10,D01,1,1,1
403,36.0,-2.0,50.0,1645098532.6875,P10,D01,1,1,1
404,39.0,0.0,50.0,1645098532.71875,P10,D01,1,1,1
405,39.0,-1.0,50.0,1645098532.75,P10,D01,1,1,1
406,32.0,-1.0,50.0,1645098532.78125,P10,D01,1,1,1
407,39.0,0.0,51.0,1645098532.8125,P10,D01,1,1,1
408,38.0,-1.0,50.0,1645098532.84375,P10,D01,1,1,1
409,40.0,-1.0,50.0,1645098532.875,P10,D01,1,1,1
410,33.0,-1.0,49.0,1645098532.90625,P10,D01,1,1,1
411,33.0,-1.0,50.0,1645098532.9375,P10,D01,1,1,1
412,37.0,-2.0,50.0,1645098532.96875,P10,D01,1,1,1
413,37.0,-2.0,49.0,1645098533.0,P10,D01,1,1,1
414,39.0,-1.0,50.0,1645098533.03125,P10,D01,1,1,1
415,38.0,-2.0,50.0,1645098533.0625,P10,D01,1,1,1
416,37.0,-1.0,50.0,1645098533.09375,P10,D01,1,1,1
417,39.0,-1.0,49.0,1645098533.125,P10,D01,1,1,1
418,39.0,-1.0,49.0,1645098533.15625,P10,D01,1,1,1
419,37.0,-1.0,49.0,1645098533.1875,P10,D01,1,1,1
420,38.0,-1.0,49.0,1645098533.21875,P10,D01,1,1,1
421,38.0,-1.0,49.0,1645098533.25,P10,D01,1,1,1
422,37.0,-1.0,49.0,1645098533.28125,P10,D01,1,1,1
423,37.0,-1.0,49.0,1645098533.3125,P10,D01,1,1,1
424,38.0,-1.0,49.0,1645098533.34375,P10,D01,1,1,1
425,38.0,-2.0,49.0,1645098533.375,P10,D01,1,1,1
426,37.0,-1.0,49.0,1645098533.40625,P10,D01,1,1,1
427,37.0,-1.0,49.0,1645098533.4375,P10,D01,1,1,1
428,38.0,0.0,49.0,1645098533.46875,P10,D01,1,1,1
429,38.0,-1.0,49.0,1645098533.5,P10,D01,1,1,1
430,39.0,-1.0,48.0,1645098533.53125,P10,D01,1,1,1
431,39.0,-1.0,49.0,1645098533.5625,P10,D01,1,1,1
432,38.0,-1.0,48.0,1645098533.59375,P10,D01,1,1,1
433,38.0,0.0,49.0,1645098533.625,P10,D01,1,1,1
434,39.0,-1.0,48.0,1645098533.65625,P10,D01,1,1,1
435,40.0,-1.0,48.0,1645098533.6875,P10,D01,1,1,1
436,38.0,-1.0,48.0,1645098533.71875,P10,D01,1,1,1
437,38.0,-1.0,49.0,1645098533.75,P10,D01,1,1,1
438,38.0,-1.0,48.0,1645098533.78125,P10,D01,1,1,1
439,40.0,0.0,48.0,1645098533.8125,P10,D01,1,1,1
440,39.0,-1.0,48.0,1645098533.84375,P10,D01,1,1,1
441,39.0,-1.0,49.0,1645098533.875,P10,D01,1,1,1
442,38.0,-1.0,48.0,1645098533.90625,P10,D01,1,1,1
443,39.0,-1.0,48.0,1645098533.9375,P10,D01,1,1,1
444,39.0,-1.0,48.0,1645098533.96875,P10,D01,1,1,1
445,39.0,0.0,48.0,1645098534.0,P10,D01,1,1,1
446,39.0,-1.0,48.0,1645098534.03125,P10,D01,1,1,1
447,38.0,-1.0,48.0,1645098534.0625,P10,D01,1,1,1
448,39.0,-1.0,48.0,1645098534.09375,P10,D01,1,1,1
449,39.0,-1.0,48.0,1645098534.125,P10,D01,1,1,1
450,38.0,-1.0,48.0,1645098534.15625,P10,D01,1,1,1
451,38.0,-1.0,48.0,1645098534.1875,P10,D01,1,1,1
452,39.0,-1.0,48.0,1645098534.21875,P10,D01,1,1,1
453,38.0,-1.0,48.0,1645098534.25,P10,D01,1,1,1
454,39.0,-1.0,48.0,1645098534.28125,P10,D01,1,1,1
455,39.0,-1.0,48.0,1645098534.3125,P10,D01,1,1,1
456,38.0,-1.0,48.0,1645098534.34375,P10,D01,1,1,1
457,38.0,-1.0,48.0,1645098534.375,P10,D01,1,1,1
458,39.0,-1.0,48.0,1645098534.40625,P10,D01,1,1,1
459,39.0,-1.0,49.0,1645098534.4375,P10,D01,1,1,1
460,38.0,-1.0,48.0,1645098534.46875,P10,D01,1,1,1
461,38.0,-1.0,48.0,1645098534.5,P10,D01,1,1,1
462,39.0,0.0,49.0,1645098534.53125,P10,D01,1,1,1
463,38.0,-1.0,48.0,1645098534.5625,P10,D01,1,1,1
464,39.0,-1.0,48.0,1645098534.59375,P10,D01,1,1,1
465,39.0,0.0,48.0,1645098534.625,P10,D01,1,1,1
466,39.0,-1.0,48.0,1645098534.65625,P10,D01,1,1,1
467,38.0,-1.0,48.0,1645098534.6875,P10,D01,1,1,1
468,39.0,-1.0,48.0,1645098534.71875,P10,D01,1,1,1
469,39.0,-1.0,48.0,1645098534.75,P10,D01,1,1,1
470,38.0,-1.0,48.0,1645098534.78125,P10,D01,1,1,1
471,38.0,-1.0,49.0,1645098534.8125,P10,D01,1,1,1
472,38.0,-1.0,48.0,1645098534.84375,P10,D01,1,1,1
473,39.0,-1.0,48.0,1645098534.875,P10,D01,1,1,1
474,38.0,-1.0,48.0,1645098534.90625,P10,D01,1,1,1
475,38.0,-1.0,49.0,1645098534.9375,P10,D01,1,1,1
476,39.0,-1.0,48.0,1645098534.96875,P10,D01,1,1,1
477,39.0,-1.0,48.0,1645098535.0,P10,D01,1,1,1
478,39.0,-1.0,48.0,1645098535.03125,P10,D01,1,1,1
479,39.0,-1.0,48.0,1645098535.0625,P10,D01,1,1,1
480,38.0,-1.0,48.0,1645098535.09375,P10,D01,1,1,1
481,38.0,-1.0,49.0,1645098535.125,P10,D01,1,1,1
482,38.0,-1.0,49.0,1645098535.15625,P10,D01,1,1,1
483,38.0,-1.0,49.0,1645098535.1875,P10,D01,1,1,1
484,39.0,0.0,48.0,1645098535.21875,P10,D01,1,1,1
485,39.0,-1.0,48.0,1645098535.25,P10,D01,1,1,1
486,39.0,-1.0,49.0,1645098535.28125,P10,D01,1,1,1
487,38.0,-1.0,48.0,1645098535.3125,P10,D01,1,1,1
488,39.0,0.0,48.0,1645098535.34375,P10,D01,1,1,1
489,39.0,-1.0,48.0,1645098535.375,P10,D01,1,1,1
490,38.0,-1.0,48.0,1645098535.40625,P10,D01,1,1,1
491,39.0,-1.0,48.0,1645098535.4375,P10,D01,1,1,1
492,38.0,-1.0,48.0,1645098535.46875,P10,D01,1,1,1
493,39.0,-1.0,48.0,1645098535.5,P10,D01,1,1,1
494,39.0,-1.0,48.0,1645098535.53125,P10,D01,1,1,1
495,38.0,0.0,48.0,1645098535.5625,P10,D01,1,1,1
496,39.0,-1.0,48.0,1645098535.59375,P10,D01,1,1,1
497,39.0,-1.0,49.0,1645098535.625,P10,D01,1,1,1
498,38.0,-1.0,48.0,1645098535.65625,P10,D01,1,1,1
499,38.0,-1.0,49.0,1645098535.6875,P10,D01,1,1,1
500,39.0,-1.0,48.0,1645098535.71875,P10,D01,1,1,1
501,39.0,-1.0,48.0,1645098535.75,P10,D01,1,1,1
502,38.0,-1.0,48.0,1645098535.78125,P10,D01,1,1,1
503,39.0,-1.0,48.0,1645098535.8125,P10,D01,1,1,1
504,38.0,-1.0,48.0,1645098535.84375,P10,D01,1,1,1
505,38.0,-1.0,48.0,1645098535.875,P10,D01,1,1,1
506,38.0,0.0,48.0,1645098535.90625,P10,D01,1,1,1
507,38.0,-1.0,48.0,1645098535.9375,P10,D01,1,1,1
508,40.0,-1.0,48.0,1645098535.96875,P10,D01,1,1,1
509,39.0,-1.0,48.0,1645098536.0,P10,D01,1,1,1
510,39.0,-1.0,48.0,1645098536.03125,P10,D01,1,1,1
511,38.0,0.0,48.0,1645098536.0625,P10,D01,1,1,1
512,38.0,-1.0,48.0,1645098536.09375,P10,D01,1,1,1
513,39.0,-1.0,48.0,1645098536.125,P10,D01,1,1,1
514,39.0,-1.0,48.0,1645098536.15625,P10,D01,1,1,1
515,40.0,0.0,48.0,1645098536.1875,P10,D01,1,1,1
516,40.0,0.0,48.0,1645098536.21875,P10,D01,1,1,1
517,41.0,-1.0,48.0,1645098536.25,P10,D01,1,1,1
518,40.0,-1.0,47.0,1645098536.28125,P10,D01,1,1,1
519,39.0,-1.0,48.0,1645098536.3125,P10,D01,1,1,1
520,39.0,-1.0,48.0,1645098536.34375,P10,D01,1,1,1
521,39.0,-1.0,48.0,1645098536.375,P10,D01,1,1,1
522,39.0,-1.0,48.0,1645098536.40625,P10,D01,1,1,1
523,39.0,-1.0,48.0,1645098536.4375,P10,D01,1,1,1
524,39.0,-1.0,48.0,1645098536.46875,P10,D01,1,1,1
525,39.0,-1.0,48.0,1645098536.5,P10,D01,1,1,1
526,39.0,-1.0,48.0,1645098536.53125,P10,D01,1,1,1
527,39.0,-1.0,48.0,1645098536.5625,P10,D01,1,1,1
528,38.0,-1.0,48.0,1645098536.59375,P10,D01,1,1,1
529,39.0,-1.0,48.0,1645098536.625,P10,D01,1,1,1
530,39.0,-1.0,48.0,1645098536.65625,P10,D01,1,1,1
531,36.0,-1.0,48.0,1645098536.6875,P10,D01,1,1,1
532,40.0,-1.0,49.0,1645098536.71875,P10,D01,1,1,1
533,38.0,-1.0,49.0,1645098536.75,P10,D01,1,1,1
534,35.0,-1.0,50.0,1645098536.78125,P10,D01,1,1,1
535,36.0,-2.0,50.0,1645098536.8125,P10,D01,1,1,1
536,35.0,-1.0,51.0,1645098536.84375,P10,D01,1,1,1
537,35.0,-1.0,51.0,1645098536.875,P10,D01,1,1,1
538,35.0,-1.0,51.0,1645098536.90625,P10,D01,1,1,1
539,35.0,-1.0,51.0,1645098536.9375,P10,D01,1,1,1
540,34.0,-1.0,51.0,1645098536.96875,P10,D01,1,1,1
541,34.0,-1.0,51.0,1645098537.0,P10,D01,1,1,1
542,34.0,-1.0,51.0,1645098537.03125,P10,D01,1,1,1
543,34.0,-1.0,51.0,1645098537.0625,P10,D01,1,1,1
544,35.0,-1.0,51.0,1645098537.09375,P10,D01,1,1,1
545,35.0,-1.0,51.0,1645098537.125,P10,D01,1,1,1
546,36.0,-1.0,51.0,1645098537.15625,P10,D01,1,1,1
547,36.0,-1.0,51.0,1645098537.1875,P10,D01,1,1,1
548,35.0,-1.0,51.0,1645098537.21875,P10,D01,1,1,1
549,36.0,-1.0,51.0,1645098537.25,P10,D01,1,1,1
550,36.0,-1.0,51.0,1645098537.28125,P10,D01,1,1,1
551,36.0,-1.0,50.0,1645098537.3125,P10,D01,1,1,1
552,36.0,-1.0,50.0,1645098537.34375,P10,D01,1,1,1
553,36.0,-1.0,50.0,1645098537.375,P10,D01,1,1,1
554,36.0,-1.0,51.0,1645098537.40625,P10,D01,1,1,1
555,36.0,-1.0,51.0,1645098537.4375,P10,D01,1,1,1
556,36.0,-1.0,50.0,1645098537.46875,P10,D01,1,1,1
557,36.0,-1.0,50.0,1645098537.5,P10,D01,1,1,1
558,36.0,-1.0,51.0,1645098537.53125,P10,D01,1,1,1
559,36.0,-1.0,51.0,1645098537.5625,P10,D01,1,1,1
560,36.0,-1.0,50.0,1645098537.59375,P10,D01,1,1,1
561,36.0,-1.0,51.0,1645098537.625,P10,D01,1,1,1
562,35.0,-1.0,51.0,1645098537.65625,P10,D01,1,1,1
563,36.0,-1.0,50.0,1645098537.6875,P10,D01,1,1,1
564,36.0,-1.0,50.0,1645098537.71875,P10,D01,1,1,1
565,36.0,-1.0,50.0,1645098537.75,P10,D01,1,1,1
566,36.0,-1.0,50.0,1645098537.78125,P10,D01,1,1,1
567,36.0,-1.0,50.0,1645098537.8125,P10,D01,1,1,1
568,36.0,-1.0,50.0,1645098537.84375,P10,D01,1,1,1
569,36.0,-1.0,50.0,1645098537.875,P10,D01,1,1,1
570,36.0,-1.0,50.0,1645098537.90625,P10,D01,1,1,1
571,37.0,-1.0,50.0,1645098537.9375,P10,D01,1,1,1
572,36.0,-1.0,50.0,1645098537.96875,P10,D01,1,1,1
573,36.0,-1.0,50.0,1645098538.0,P10,D01,1,1,1
574,36.0,-1.0,50.0,1645098538.03125,P10,D01,1,1,1
575,36.0,-1.0,50.0,1645098538.0625,P10,D01,1,1,1
576,36.0,-1.0,50.0,1645098538.09375,P10,D01,1,1,1
577,36.0,-1.0,50.0,1645098538.125,P10,D01,1,1,1
578,36.0,-1.0,51.0,1645098538.15625,P10,D01,1,1,1
579,36.0,-1.0,50.0,1645098538.1875,P10,D01,1,1,1
580,36.0,-1.0,50.0,1645098538.21875,P10,D01,1,1,1
581,36.0,-1.0,50.0,1645098538.25,P10,D01,1,1,1
582,36.0,-1.0,51.0,1645098538.28125,P10,D01,1,1,1
583,36.0,-1.0,50.0,1645098538.3125,P10,D01,1,1,1
584,36.0,-1.0,50.0,1645098538.34375,P10,D01,1,1,1
585,36.0,-1.0,50.0,1645098538.375,P10,D01,1,1,1
586,36.0,-1.0,50.0,1645098538.40625,P10,D01,1,1,1
587,35.0,-1.0,50.0,1645098538.4375,P10,D01,1,1,1
588,36.0,-1.0,51.0,1645098538.46875,P10,D01,1,1,1
589,36.0,-1.0,50.0,1645098538.5,P10,D01,1,1,1
590,35.0,-1.0,50.0,1645098538.53125,P10,D01,1,1,1
591,36.0,-1.0,51.0,1645098538.5625,P10,D01,1,1,1
592,36.0,-1.0,50.0,1645098538.59375,P10,D01,1,1,1
593,36.0,-1.0,50.0,1645098538.625,P10,D01,1,1,1
594,35.0,-1.0,51.0,1645098538.65625,P10,D01,1,1,1
595,36.0,-1.0,50.0,1645098538.6875,P10,D01,1,1,1
596,36.0,-1.0,51.0,1645098538.71875,P10,D01,1,1,1
597,36.0,-1.0,51.0,1645098538.75,P10,D01,1,1,1
598,36.0,-1.0,50.0,1645098538.78125,P10,D01,1,1,1
599,36.0,-1.0,50.0,1645098538.8125,P10,D01,1,1,1
600,36.0,-1.0,50.0,1645098538.84375,P10,D01,1,1,1
601,36.0,-1.0,50.0,1645098538.875,P10,D01,1,1,1
602,36.0,-1.0,51.0,1645098538.90625,P10,D01,1,1,1
603,36.0,-1.0,51.0,1645098538.9375,P10,D01,1,1,1
604,35.0,-1.0,50.0,1645098538.96875,P10,D01,1,1,1
605,36.0,-1.0,51.0,1645098539.0,P10,D01,1,1,1
606,35.0,-1.0,51.0,1645098539.03125,P10,D01,1,1,1
607,35.0,-1.0,51.0,1645098539.0625,P10,D01,1,1,1
608,36.0,-1.0,51.0,1645098539.09375,P10,D01,1,1,1
609,35.0,-1.0,51.0,1645098539.125,P10,D01,1,1,1
610,36.0,-1.0,51.0,1645098539.15625,P10,D01,1,1,1
611,34.0,-1.0,50.0,1645098539.1875,P10,D01,1,1,1
612,36.0,-1.0,51.0,1645098539.21875,P10,D01,1,1,1
613,36.0,-1.0,51.0,1645098539.25,P10,D01,1,1,1
614,35.0,-1.0,51.0,1645098539.28125,P10,D01,1,1,1
615,36.0,-1.0,51.0,1645098539.3125,P10,D01,1,1,1
616,35.0,-1.0,50.0,1645098539.34375,P10,D01,1,1,1
617,36.0,-1.0,50.0,1645098539.375,P10,D01,1,1,1
618,36.0,-1.0,51.0,1645098539.40625,P10,D01,1,1,1
619,35.0,-1.0,51.0,1645098539.4375,P10,D01,1,1,1
620,36.0,-1.0,51.0,1645098539.46875,P10,D01,1,1,1
621,36.0,-1.0,51.0,1645098539.5,P10,D01,1,1,1
622,36.0,-1.0,51.0,1645098539.53125,P10,D01,1,1,1
623,36.0,-1.0,51.0,1645098539.5625,P10,D01,1,1,1
624,35.0,-1.0,51.0,1645098539.59375,P10,D01,1,1,1
625,36.0,-1.0,51.0,1645098539.625,P10,D01,1,1,1
626,36.0,-1.0,51.0,1645098539.65625,P10,D01,1,1,1
627,35.0,-1.0,51.0,1645098539.6875,P10,D01,1,1,1
628,36.0,-1.0,51.0,1645098539.71875,P10,D01,1,1,1
629,36.0,-1.0,51.0,1645098539.75,P10,D01,1,1,1
630,36.0,-1.0,51.0,1645098539.78125,P10,D01,1,1,1
631,36.0,-1.0,50.0,1645098539.8125,P10,D01,1,1,1
632,36.0,-1.0,51.0,1645098539.84375,P10,D01,1,1,1
633,36.0,-1.0,51.0,1645098539.875,P10,D01,1,1,1
634,36.0,-1.0,50.0,1645098539.90625,P10,D01,1,1,1
635,36.0,-1.0,51.0,1645098539.9375,P10,D01,1,1,1
636,36.0,-1.0,51.0,1645098539.96875,P10,D01,1,1,1
637,35.0,-1.0,51.0,1645098540.0,P10,D01,1,1,1
638,36.0,-1.0,51.0,1645098540.03125,P10,D01,1,1,1
639,36.0,-1.0,50.0,1645098540.0625,P10,D01,1,1,1
640,36.0,-1.0,50.0,1645098540.09375,P10,D01,1,1,1
641,36.0,-1.0,51.0,1645098540.125,P10,D01,1,1,1
642,36.0,-1.0,51.0,1645098540.15625,P10,D01,1,1,1
643,36.0,-1.0,51.0,1645098540.1875,P10,D01,1,1,1
644,36.0,-1.0,51.0,1645098540.21875,P10,D01,1,1,1
645,36.0,-1.0,51.0,1645098540.25,P10,D01,1,1,1
646,36.0,-1.0,51.0,1645098540.28125,P10,D01,1,1,1
647,36.0,-1.0,51.0,1645098540.3125,P10,D01,1,1,1
648,35.0,-1.0,51.0,1645098540.34375,P10,D01,1,1,1
649,36.0,-1.0,50.0,1645098540.375,P10,D01,1,1,1
650,36.0,-1.0,50.0,1645098540.40625,P10,D01,1,1,1
651,35.0,-1.0,51.0,1645098540.4375,P10,D01,1,1,1
652,35.0,-1.0,51.0,1645098540.46875,P10,D01,1,1,1
653,35.0,-1.0,51.0,1645098540.5,P10,D01,1,1,1
654,36.0,-1.0,51.0,1645098540.53125,P10,D01,1,1,1
655,35.0,-1.0,51.0,1645098540.5625,P10,D01,1,1,1
656,35.0,-1.0,51.0,1645098540.59375,P10,D01,1,1,1
657,36.0,-1.0,50.0,1645098540.625,P10,D01,1,1,1
658,36.0,-1.0,51.0,1645098540.65625,P10,D01,1,1,1
659,36.0,-1.0,51.0,1645098540.6875,P10,D01,1,1,1
660,36.0,-1.0,51.0,1645098540.71875,P10,D01,1,1,1
661,36.0,-1.0,51.0,1645098540.75,P10,D01,1,1,1
662,35.0,-1.0,51.0,1645098540.78125,P10,D01,1,1,1
663,36.0,-1.0,51.0,1645098540.8125,P10,D01,1,1,1
664,36.0,-1.0,51.0,1645098540.84375,P10,D01,1,1,1
665,36.0,-1.0,51.0,1645098540.875,P10,D01,1,1,1
666,36.0,-1.0,51.0,1645098540.90625,P10,D01,1,1,1
667,36.0,-1.0,51.0,1645098540.9375,P10,D01,1,1,1
668,35.0,-1.0,51.0,1645098540.96875,P10,D01,1,1,1
669,35.0,-1.0,51.0,1645098541.0,P10,D01,1,1,1
670,35.0,-1.0,51.0,1645098541.03125,P10,D01,1,1,1
671,35.0,-1.0,51.0,1645098541.0625,P10,D01,1,1,1
672,36.0,-1.0,51.0,1645098541.09375,P10,D01,1,1,1
673,36.0,-1.0,51.0,1645098541.125,P10,D01,1,1,1
674,36.0,-1.0,51.0,1645098541.15625,P10,D01,1,1,1
675,36.0,-1.0,51.0,1645098541.1875,P10,D01,1,1,1
676,35.0,-1.0,51.0,1645098541.21875,P10,D01,1,1,1
677,36.0,-1.0,51.0,1645098541.25,P10,D01,1,1,1
678,35.0,-1.0,51.0,1645098541.28125,P10,D01,1,1,1
679,36.0,-1.0,51.0,1645098541.3125,P10,D01,1,1,1
680,35.0,-1.0,51.0,1645098541.34375,P10,D01,1,1,1
681,35.0,-1.0,50.0,1645098541.375,P10,D01,1,1,1
682,36.0,-1.0,51.0,1645098541.40625,P10,D01,1,1,1
683,35.0,-1.0,51.0,1645098541.4375,P10,D01,1,1,1
684,35.0,-1.0,51.0,1645098541.46875,P10,D01,1,1,1
685,36.0,-1.0,51.0,1645098541.5,P10,D01,1,1,1
686,35.0,-1.0,51.0,1645098541.53125,P10,D01,1,1,1
687,36.0,-1.0,51.0,1645098541.5625,P10,D01,1,1,1
688,35.0,-1.0,51.0,1645098541.59375,P10,D01,1,1,1
689,36.0,-1.0,51.0,1645098541.625,P10,D01,1,1,1
690,35.0,-1.0,51.0,1645098541.65625,P10,D01,1,1,1
691,35.0,-1.0,51.0,1645098541.6875,P10,D01,1,1,1
692,36.0,-1.0,51.0,1645098541.71875,P10,D01,1,1,1
693,35.0,-1.0,51.0,1645098541.75,P10,D01,1,1,1
694,35.0,-1.0,51.0,1645098541.78125,P10,D01,1,1,1
695,35.0,-1.0,51.0,1645098541.8125,P10,D01,1,1,1
696,36.0,-1.0,51.0,1645098541.84375,P10,D01,1,1,1
697,36.0,-1.0,51.0,1645098541.875,P10,D01,1,1,1
698,36.0,-1.0,50.0,1645098541.90625,P10,D01,1,1,1
699,36.0,-1.0,51.0,1645098541.9375,P10,D01,1,1,1
700,36.0,-1.0,51.0,1645098541.96875,P10,D01,1,1,1
701,36.0,-1.0,51.0,1645098542.0,P10,D01,1,1,1
702,36.0,-1.0,51.0,1645098542.03125,P10,D01,1,1,1
703,36.0,-1.0,51.0,1645098542.0625,P10,D01,1,1,1
704,35.0,-1.0,51.0,1645098542.09375,P10,D01,1,1,1
705,36.0,-1.0,51.0,1645098542.125,P10,D01,1,1,1
706,35.0,-1.0,51.0,1645098542.15625,P10,D01,1,1,1
707,35.0,-1.0,51.0,1645098542.1875,P10,D01,1,1,1
708,35.0,-1.0,51.0,1645098542.21875,P10,D01,1,1,1
709,35.0,-1.0,51.0,1645098542.25,P10,D01,1,1,1
710,36.0,-1.0,51.0,1645098542.28125,P10,D01,1,1,1
711,36.0,-1.0,51.0,1645098542.3125,P10,D01,1,1,1
712,35.0,-1.0,51.0,1645098542.34375,P10,D01,1,1,1
713,36.0,-1.0,51.0,1645098542.375,P10,D01,1,1,1
714,35.0,-1.0,51.0,1645098542.40625,P10,D01,1,1,1
715,35.0,-2.0,51.0,1645098542.4375,P10,D01,1,1,1
716,35.0,-1.0,51.0,1645098542.46875,P10,D01,1,1,1
717,35.0,-1.0,51.0,1645098542.5,P10,D01,1,1,1
718,35.0,-1.0,51.0,1645098542.53125,P10,D01,1,1,1
719,36.0,-1.0,51.0,1645098542.5625,P10,D01,1,1,1
720,35.0,-1.0,51.0,1645098542.59375,P10,D01,1,1,1
721,35.0,-1.0,51.0,1645098542.625,P10,D01,1,1,1
722,36.0,-1.0,51.0,1645098542.65625,P10,D01,1,1,1
723,35.0,-2.0,51.0,1645098542.6875,P10,D01,1,1,1
724,35.0,-1.0,51.0,1645098542.71875,P10,D01,1,1,1
725,35.0,-1.0,51.0,1645098542.75,P10,D01,1,1,1
726,35.0,-1.0,51.0,1645098542.78125,P10,D01,1,1,1
727,35.0,-1.0,51.0,1645098542.8125,P10,D01,1,1,1
728,35.0,-1.0,51.0,1645098542.84375,P10,D01,1,1,1
729,35.0,-1.0,51.0,1645098542.875,P10,D01,1,1,1
730,35.0,-1.0,51.0,1645098542.90625,P10,D01,1,1,1
731,35.0,-1.0,51.0,1645098542.9375,P10,D01,1,1,1
732,35.0,-1.0,51.0,1645098542.96875,P10,D01,1,1,1
733,35.0,-1.0,51.0,1645098543.0,P10,D01,1,1,1
734,36.0,-1.0,51.0,1645098543.03125,P10,D01,1,1,1
735,35.0,-1.0,51.0,1645098543.0625,P10,D01,1,1,1
736,35.0,-1.0,51.0,1645098543.09375,P10,D01,1,1,1
737,35.0,-1.0,51.0,1645098543.125,P10,D01,1,1,1
738,35.0,-1.0,51.0,1645098543.15625,P10,D01,1,1,1
739,35.0,-1.0,51.0,1645098543.1875,P10,D01,1,1,1
740,35.0,-1.0,51.0,1645098543.21875,P10,D01,1,1,1
741,35.0,-1.0,51.0,1645098543.25,P10,D01,1,1,1
742,35.0,-1.0,51.0,1645098543.28125,P10,D01,1,1,1
743,35.0,-1.0,51.0,1645098543.3125,P10,D01,1,1,1
744,35.0,-1.0,51.0,1645098543.34375,P10,D01,1,1,1
745,35.0,-1.0,51.0,1645098543.375,P10,D01,1,1,1
746,35.0,-1.0,51.0,1645098543.40625,P10,D01,1,1,1
747,35.0,-1.0,51.0,1645098543.4375,P10,D01,1,1,1
748,35.0,-1.0,51.0,1645098543.46875,P10,D01,1,1,1
749,35.0,-1.0,51.0,1645098543.5,P10,D01,1,1,1
750,35.0,-1.0,51.0,1645098543.53125,P10,D01,1,1,1
751,35.0,-1.0,51.0,1645098543.5625,P10,D01,1,1,1
752,35.0,-1.0,51.0,1645098543.59375,P10,D01,1,1,1
753,35.0,-1.0,51.0,1645098543.625,P10,D01,1,1,1
754,35.0,-1.0,51.0,1645098543.65625,P10,D01,1,1,1
755,35.0,-1.0,51.0,1645098543.6875,P10,D01,1,1,1
756,35.0,-1.0,51.0,1645098543.71875,P10,D01,1,1,1
757,35.0,-1.0,51.0,1645098543.75,P10,D01,1,1,1
758,35.0,-1.0,51.0,1645098543.78125,P10,D01,1,1,1
759,35.0,-1.0,51.0,1645098543.8125,P10,D01,1,1,1
760,35.0,-1.0,51.0,1645098543.84375,P10,D01,1,1,1
761,35.0,-1.0,51.0,1645098543.875,P10,D01,1,1,1
762,35.0,-1.0,51.0,1645098543.90625,P10,D01,1,1,1
763,35.0,-1.0,51.0,1645098543.9375,P10,D01,1,1,1
764,35.0,-1.0,51.0,1645098543.96875,P10,D01,1,1,1
765,35.0,-1.0,51.0,1645098544.0,P10,D01,1,1,1
766,35.0,-1.0,51.0,1645098544.03125,P10,D01,1,1,1
767,35.0,-1.0,51.0,1645098544.0625,P10,D01,1,1,1
768,35.0,-1.0,51.0,1645098544.09375,P10,D01,1,1,1
769,35.0,-1.0,51.0,1645098544.125,P10,D01,1,1,1
770,35.0,-1.0,51.0,1645098544.15625,P10,D01,1,1,1
771,34.0,-1.0,51.0,1645098544.1875,P10,D01,1,1,1
772,35.0,-1.0,51.0,1645098544.21875,P10,D01,1,1,1
773,35.0,-1.0,51.0,1645098544.25,P10,D01,1,1,1
774,35.0,-1.0,51.0,1645098544.28125,P10,D01,1,1,1
775,35.0,-1.0,51.0,1645098544.3125,P10,D01,1,1,1
776,35.0,-1.0,51.0,1645098544.34375,P10,D01,1,1,1
777,35.0,-1.0,51.0,1645098544.375,P10,D01,1,1,1
778,35.0,-1.0,51.0,1645098544.40625,P10,D01,1,1,1
779,35.0,-1.0,51.0,1645098544.4375,P10,D01,1,1,1
780,35.0,-1.0,51.0,1645098544.46875,P10,D01,1,1,1
781,35.0,-1.0,51.0,1645098544.5,P10,D01,1,1,1
782,35.0,-1.0,51.0,1645098544.53125,P10,D01,1,1,1
783,35.0,-1.0,51.0,1645098544.5625,P10,D01,1,1,1
784,35.0,-1.0,51.0,1645098544.59375,P10,D01,1,1,1
785,35.0,-1.0,51.0,1645098544.625,P10,D01,1,1,1
786,35.0,-1.0,51.0,1645098544.65625,P10,D01,1,1,1
787,35.0,-1.0,51.0,1645098544.6875,P10,D01,1,1,1
788,35.0,-1.0,51.0,1645098544.71875,P10,D01,1,1,1
789,35.0,-1.0,51.0,1645098544.75,P10,D01,1,1,1
790,35.0,-1.0,51.0,1645098544.78125,P10,D01,1,1,1
791,35.0,-1.0,51.0,1645098544.8125,P10,D01,1,1,1
792,35.0,-1.0,51.0,1645098544.84375,P10,D01,1,1,1
793,35.0,-1.0,51.0,1645098544.875,P10,D01,1,1,1
794,34.0,-1.0,51.0,1645098544.90625,P10,D01,1,1,1
795,35.0,-1.0,51.0,1645098544.9375,P10,D01,1,1,1
796,35.0,-1.0,51.0,1645098544.96875,P10,D01,1,1,1
797,35.0,-1.0,51.0,1645098545.0,P10,D01,1,1,1
798,35.0,-1.0,51.0,1645098545.03125,P10,D01,1,1,1
799,35.0,-1.0,51.0,1645098545.0625,P10,D01,1,1,1
800,35.0,-1.0,51.0,1645098545.09375,P10,D01,1,1,1
801,35.0,-1.0,51.0,1645098545.125,P10,D01,1,1,1
802,35.0,-1.0,51.0,1645098545.15625,P10,D01,1,1,1
803,35.0,-1.0,51.0,1645098545.1875,P10,D01,1,1,1
804,35.0,-1.0,51.0,1645098545.21875,P10,D01,1,1,1
805,35.0,-1.0,51.0,1645098545.25,P10,D01,1,1,1
806,35.0,-1.0,51.0,1645098545.28125,P10,D01,1,1,1
807,35.0,-1.0,51.0,1645098545.3125,P10,D01,1,1,1
808,35.0,-1.0,51.0,1645098545.34375,P10,D01,1,1,1
809,36.0,-1.0,51.0,1645098545.375,P10,D01,1,1,1
810,36.0,-1.0,51.0,1645098545.40625,P10,D01,1,1,1
811,35.0,-1.0,51.0,1645098545.4375,P10,D01,1,1,1
812,35.0,-1.0,51.0,1645098545.46875,P10,D01,1,1,1
813,35.0,-1.0,51.0,1645098545.5,P10,D01,1,1,1
814,35.0,-1.0,51.0,1645098545.53125,P10,D01,1,1,1
815,35.0,-1.0,51.0,1645098545.5625,P10,D01,1,1,1
816,35.0,-1.0,51.0,1645098545.59375,P10,D01,1,1,1
817,36.0,-1.0,51.0,1645098545.625,P10,D01,1,1,1
818,35.0,-1.0,51.0,1645098545.65625,P10,D01,1,1,1
819,35.0,-1.0,51.0,1645098545.6875,P10,D01,1,1,1
820,35.0,-1.0,51.0,1645098545.71875,P10,D01,1,1,1
821,35.0,-1.0,51.0,1645098545.75,P10,D01,1,1,1
822,35.0,-1.0,51.0,1645098545.78125,P10,D01,1,1,1
823,35.0,-1.0,51.0,1645098545.8125,P10,D01,1,1,1
824,35.0,-1.0,51.0,1645098545.84375,P10,D01,1,1,1
825,35.0,-1.0,51.0,1645098545.875,P10,D01,1,1,1
826,35.0,-1.0,51.0,1645098545.90625,P10,D01,1,1,1
827,35.0,-1.0,51.0,1645098545.9375,P10,D01,1,1,1
828,35.0,-1.0,51.0,1645098545.96875,P10,D01,1,1,1
829,35.0,-1.0,51.0,1645098546.0,P10,D01,1,1,1
830,35.0,-1.0,51.0,1645098546.03125,P10,D01,1,1,1
831,35.0,-1.0,51.0,1645098546.0625,P10,D01,1,1,1
832,35.0,-1.0,51.0,1645098546.09375,P10,D01,1,1,1
833,35.0,-1.0,51.0,1645098546.125,P10,D01,1,1,1
834,35.0,-1.0,51.0,1645098546.15625,P10,D01,1,1,1
835,35.0,-1.0,51.0,1645098546.1875,P10,D01,1,1,1
836,35.0,-1.0,51.0,1645098546.21875,P10,D01,1,1,1
837,35.0,-1.0,51.0,1645098546.25,P10,D01,1,1,1
838,35.0,-1.0,51.0,1645098546.28125,P10,D01,1,1,1
839,35.0,-1.0,51.0,1645098546.3125,P10,D01,1,1,1
840,35.0,-1.0,51.0,1645098546.34375,P10,D01,1,1,1
841,35.0,-1.0,51.0,1645098546.375,P10,D01,1,1,1
842,35.0,-1.0,51.0,1645098546.40625,P10,D01,1,1,1
843,35.0,-1.0,51.0,1645098546.4375,P10,D01,1,1,1
844,35.0,-1.0,51.0,1645098546.46875,P10,D01,1,1,1
845,35.0,-1.0,51.0,1645098546.5,P10,D01,1,1,1
846,35.0,-1.0,51.0,1645098546.53125,P10,D01,1,1,1
847,35.0,-1.0,51.0,1645098546.5625,P10,D01,1,1,1
848,35.0,-1.0,51.0,1645098546.59375,P10,D01,1,1,1
849,35.0,-1.0,51.0,1645098546.625,P10,D01,1,1,1
850,35.0,-1.0,51.0,1645098546.65625,P10,D01,1,1,1
851,35.0,-1.0,51.0,1645098546.6875,P10,D01,1,1,1
852,35.0,-1.0,51.0,1645098546.71875,P10,D01,1,1,1
853,35.0,-1.0,51.0,1645098546.75,P10,D01,1,1,1
854,35.0,-1.0,51.0,1645098546.78125,P10,D01,1,1,1
855,36.0,-1.0,51.0,1645098546.8125,P10,D01,1,1,1
856,35.0,-1.0,51.0,1645098546.84375,P10,D01,1,1,1
857,35.0,-1.0,51.0,1645098546.875,P10,D01,1,1,1
858,35.0,-1.0,51.0,1645098546.90625,P10,D01,1,1,1
859,35.0,-1.0,51.0,1645098546.9375,P10,D01,1,1,1
860,35.0,-1.0,51.0,1645098546.96875,P10,D01,1,1,1
861,35.0,-1.0,51.0,1645098547.0,P10,D01,1,1,1
862,35.0,-1.0,51.0,1645098547.03125,P10,D01,1,1,1
863,35.0,-1.0,51.0,1645098547.0625,P10,D01,1,1,1
864,35.0,-1.0,51.0,1645098547.09375,P10,D01,1,1,1
865,35.0,-1.0,51.0,1645098547.125,P10,D01,1,1,1
866,35.0,-1.0,51.0,1645098547.15625,P10,D01,1,1,1
867,35.0,-1.0,51.0,1645098547.1875,P10,D01,1,1,1
868,35.0,-1.0,51.0,1645098547.21875,P10,D01,1,1,1
869,35.0,-1.0,51.0,1645098547.25,P10,D01,1,1,1
870,35.0,-1.0,51.0,1645098547.28125,P10,D01,1,1,1
871,35.0,-1.0,51.0,1645098547.3125,P10,D01,1,1,1
872,35.0,-1.0,51.0,1645098547.34375,P10,D01,1,1,1
873,35.0,-1.0,51.0,1645098547.375,P10,D01,1,1,1
874,35.0,-1.0,51.0,1645098547.40625,P10,D01,1,1,1
875,35.0,-1.0,51.0,1645098547.4375,P10,D01,1,1,1
876,35.0,-1.0,51.0,1645098547.46875,P10,D01,1,1,1
877,34.0,-1.0,51.0,1645098547.5,P10,D01,1,1,1
878,35.0,-1.0,51.0,1645098547.53125,P10,D01,1,1,1
879,35.0,-1.0,51.0,1645098547.5625,P10,D01,1,1,1
880,35.0,-1.0,51.0,1645098547.59375,P10,D01,1,1,1
881,35.0,-1.0,51.0,1645098547.625,P10,D01,1,1,1
882,35.0,-1.0,51.0,1645098547.65625,P10,D01,1,1,1
883,35.0,-1.0,51.0,1645098547.6875,P10,D01,1,1,1
884,35.0,-1.0,51.0,1645098547.71875,P10,D01,1,1,1
885,35.0,-1.0,51.0,1645098547.75,P10,D01,1,1,1
886,35.0,-1.0,51.0,1645098547.78125,P10,D01,1,1,1
887,35.0,-1.0,51.0,1645098547.8125,P10,D01,1,1,1
888,35.0,-1.0,51.0,1645098547.84375,P10,D01,1,1,1
889,35.0,-1.0,51.0,1645098547.875,P10,D01,1,1,1
890,35.0,-1.0,51.0,1645098547.90625,P10,D01,1,1,1
891,35.0,-1.0,51.0,1645098547.9375,P10,D01,1,1,1
892,35.0,-1.0,51.0,1645098547.96875,P10,D01,1,1,1
893,35.0,-1.0,51.0,1645098548.0,P10,D01,1,1,1
894,35.0,-1.0,51.0,1645098548.03125,P10,D01,1,1,1
895,35.0,-1.0,51.0,1645098548.0625,P10,D01,1,1,1
896,35.0,-1.0,51.0,1645098548.09375,P10,D01,1,1,1
897,35.0,-1.0,51.0,1645098548.125,P10,D01,1,1,1
898,35.0,-1.0,51.0,1645098548.15625,P10,D01,1,1,1
899,35.0,-1.0,51.0,1645098548.1875,P10,D01,1,1,1
900,35.0,-1.0,51.0,1645098548.21875,P10,D01,1,1,1
901,35.0,-1.0,51.0,1645098548.25,P10,D01,1,1,1
902,35.0,-1.0,51.0,1645098548.28125,P10,D01,1,1,1
903,35.0,-1.0,51.0,1645098548.3125,P10,D01,1,1,1
904,35.0,-1.0,51.0,1645098548.34375,P10,D01,1,1,1
905,35.0,-1.0,51.0,1645098548.375,P10,D01,1,1,1
906,35.0,-1.0,51.0,1645098548.40625,P10,D01,1,1,1
907,35.0,-1.0,51.0,1645098548.4375,P10,D01,1,1,1
908,35.0,-1.0,51.0,1645098548.46875,P10,D01,1,1,1
909,35.0,-1.0,51.0,1645098548.5,P10,D01,1,1,1
910,35.0,-1.0,51.0,1645098548.53125,P10,D01,1,1,1
911,35.0,-1.0,51.0,1645098548.5625,P10,D01,1,1,1
912,35.0,-1.0,51.0,1645098548.59375,P10,D01,1,1,1
913,35.0,-1.0,51.0,1645098548.625,P10,D01,1,1,1
914,35.0,-1.0,51.0,1645098548.65625,P10,D01,1,1,1
915,35.0,-1.0,51.0,1645098548.6875,P10,D01,1,1,1
916,35.0,-1.0,51.0,1645098548.71875,P10,D01,1,1,1
917,35.0,-1.0,51.0,1645098548.75,P10,D01,1,1,1
918,35.0,-1.0,51.0,1645098548.78125,P10,D01,1,1,1
919,35.0,-1.0,51.0,1645098548.8125,P10,D01,1,1,1
920,35.0,-1.0,51.0,1645098548.84375,P10,D01,1,1,1
921,35.0,-1.0,51.0,1645098548.875,P10,D01,1,1,1
922,35.0,-1.0,51.0,1645098548.90625,P10,D01,1,1,1
923,35.0,-1.0,51.0,1645098548.9375,P10,D01,1,1,1
924,35.0,-1.0,51.0,1645098548.96875,P10,D01,1,1,1
925,35.0,-1.0,51.0,1645098549.0,P10,D01,1,1,1
926,35.0,-1.0,51.0,1645098549.03125,P10,D01,1,1,1
927,35.0,-1.0,51.0,1645098549.0625,P10,D01,1,1,1
928,35.0,-1.0,51.0,1645098549.09375,P10,D01,1,1,1
929,35.0,-1.0,51.0,1645098549.125,P10,D01,1,1,1
930,35.0,-1.0,51.0,1645098549.15625,P10,D01,1,1,1
931,35.0,-1.0,51.0,1645098549.1875,P10,D01,1,1,1
932,35.0,-1.0,51.0,1645098549.21875,P10,D01,1,1,1
933,35.0,-1.0,51.0,1645098549.25,P10,D01,1,1,1
934,35.0,-1.0,51.0,1645098549.28125,P10,D01,1,1,1
935,36.0,-1.0,51.0,1645098549.3125,P10,D01,1,1,1
936,35.0,-1.0,51.0,1645098549.34375,P10,D01,1,1,1
937,35.0,-1.0,51.0,1645098549.375,P10,D01,1,1,1
938,35.0,-1.0,51.0,1645098549.40625,P10,D01,1,1,1
939,35.0,-1.0,51.0,1645098549.4375,P10,D01,1,1,1
940,35.0,-1.0,51.0,1645098549.46875,P10,D01,1,1,1
941,35.0,-1.0,51.0,1645098549.5,P10,D01,1,1,1
942,35.0,-1.0,51.0,1645098549.53125,P10,D01,1,1,1
943,35.0,-1.0,51.0,1645098549.5625,P10,D01,1,1,1
944,35.0,-1.0,51.0,1645098549.59375,P10,D01,1,1,1
945,35.0,-1.0,51.0,1645098549.625,P10,D01,1,1,1
946,35.0,-1.0,51.0,1645098549.65625,P10,D01,1,1,1
947,35.0,-1.0,51.0,1645098549.6875,P10,D01,1,1,1
948,35.0,-1.0,51.0,1645098549.71875,P10,D01,1,1,1
949,35.0,-1.0,51.0,1645098549.75,P10,D01,1,1,1
950,35.0,-1.0,51.0,1645098549.78125,P10,D01,1,1,1
951,35.0,-1.0,51.0,1645098549.8125,P10,D01,1,1,1
952,35.0,-1.0,51.0,1645098549.84375,P10,D01,1,1,1
953,35.0,-1.0,51.0,1645098549.875,P10,D01,1,1,1
954,35.0,-1.0,51.0,1645098549.90625,P10,D01,1,1,1
955,35.0,-1.0,51.0,1645098549.9375,P10,D01,1,1,1
956,35.0,-1.0,51.0,1645098549.96875,P10,D01,1,1,1
957,35.0,-1.0,51.0,1645098550.0,P10,D01,1,1,1
958,35.0,-1.0,51.0,1645098550.03125,P10,D01,1,1,1
959,36.0,-1.0,51.0,1645098550.0625,P10,D01,1,1,1
960,35.0,-1.0,51.0,1645098550.09375,P10,D01,1,1,1
961,35.0,-1.0,51.0,1645098550.125,P10,D01,1,1,1
962,35.0,-1.0,51.0,1645098550.15625,P10,D01,1,1,1
963,35.0,-1.0,51.0,1645098550.1875,P10,D01,1,1,1
964,35.0,-1.0,51.0,1645098550.21875,P10,D01,1,1,1
965,35.0,-1.0,51.0,1645098550.25,P10,D01,1,1,1
966,35.0,-1.0,51.0,1645098550.28125,P10,D01,1,1,1
967,35.0,-1.0,51.0,1645098550.3125,P10,D01,1,1,1
968,34.0,-1.0,51.0,1645098550.34375,P10,D01,1,1,1
969,35.0,-1.0,51.0,1645098550.375,P10,D01,1,1,1
970,35.0,-1.0,51.0,1645098550.40625,P10,D01,1,1,1
971,35.0,-1.0,51.0,1645098550.4375,P10,D01,1,1,1
972,35.0,-1.0,51.0,1645098550.46875,P10,D01,1,1,1
973,35.0,-1.0,51.0,1645098550.5,P10,D01,1,1,1
974,35.0,-1.0,51.0,1645098550.53125,P10,D01,1,1,1
975,35.0,-1.0,51.0,1645098550.5625,P10,D01,1,1,1
976,36.0,-1.0,51.0,1645098550.59375,P10,D01,1,1,1
977,35.0,-1.0,51.0,1645098550.625,P10,D01,1,1,1
978,36.0,-1.0,51.0,1645098550.65625,P10,D01,1,1,1
979,35.0,-1.0,51.0,1645098550.6875,P10,D01,1,1,1
980,36.0,-1.0,51.0,1645098550.71875,P10,D01,1,1,1
981,36.0,-1.0,51.0,1645098550.75,P10,D01,1,1,1
982,35.0,-1.0,51.0,1645098550.78125,P10,D01,1,1,1
983,36.0,-1.0,51.0,1645098550.8125,P10,D01,1,1,1
984,35.0,-1.0,51.0,1645098550.84375,P10,D01,1,1,1
985,36.0,-1.0,51.0,1645098550.875,P10,D01,1,1,1
986,35.0,-1.0,51.0,1645098550.90625,P10,D01,1,1,1
987,36.0,-1.0,51.0,1645098550.9375,P10,D01,1,1,1
988,36.0,-1.0,51.0,1645098550.96875,P10,D01,1,1,1
989,35.0,-1.0,51.0,1645098551.0,P10,D01,1,1,1
990,36.0,-1.0,51.0,1645098551.03125,P10,D01,1,1,1
991,35.0,-1.0,51.0,1645098551.0625,P10,D01,1,1,1
992,35.0,-1.0,51.0,1645098551.09375,P10,D01,1,1,1
993,36.0,-1.0,51.0,1645098551.125,P10,D01,1,1,1
994,35.0,-1.0,51.0,1645098551.15625,P10,D01,1,1,1
995,35.0,-1.0,51.0,1645098551.1875,P10,D01,1,1,1
996,35.0,-1.0,51.0,1645098551.21875,P10,D01,1,1,1
997,35.0,-1.0,51.0,1645098551.25,P10,D01,1,1,1
998,35.0,-1.0,51.0,1645098551.28125,P10,D01,1,1,1
999,35.0,-1.0,51.0,1645098551.3125,P10,D01,1,1,1
1000,35.0,-1.0,51.0,1645098551.34375,P10,D01,1,1,1
1001,35.0,-1.0,51.0,1645098551.375,P10,D01,1,1,1
1002,35.0,-1.0,51.0,1645098551.40625,P10,D01,1,1,1
1003,36.0,-1.0,51.0,1645098551.4375,P10,D01,1,1,1
1004,35.0,-1.0,51.0,1645098551.46875,P10,D01,1,1,1
1005,35.0,-1.0,51.0,1645098551.5,P10,D01,1,1,1
1006,35.0,-1.0,51.0,1645098551.53125,P10,D01,1,1,1
1007,35.0,-1.0,51.0,1645098551.5625,P10,D01,1,1,1
1008,35.0,-1.0,51.0,1645098551.59375,P10,D01,1,1,1
1009,35.0,-1.0,51.0,1645098551.625,P10,D01,1,1,1
1010,36.0,-1.0,51.0,1645098551.65625,P10,D01,1,1,1
1011,35.0,-1.0,51.0,1645098551.6875,P10,D01,1,1,1
1012,36.0,-1.0,51.0,1645098551.71875,P10,D01,1,1,1
1013,35.0,-1.0,51.0,1645098551.75,P10,D01,1,1,1
1014,35.0,-1.0,51.0,1645098551.78125,P10,D01,1,1,1
1015,35.0,-1.0,51.0,1645098551.8125,P10,D01,1,1,1
1016,36.0,-1.0,51.0,1645098551.84375,P10,D01,1,1,1
1017,36.0,-1.0,51.0,1645098551.875,P10,D01,1,1,1
1018,35.0,-1.0,51.0,1645098551.90625,P10,D01,1,1,1
1019,35.0,-1.0,51.0,1645098551.9375,P10,D01,1,1,1
1020,35.0,-1.0,51.0,1645098551.96875,P10,D01,1,1,1
1021,35.0,-1.0,51.0,1645098552.0,P10,D01,1,1,1
1022,35.0,-1.0,51.0,1645098552.03125,P10,D01,1,1,1
1023,36.0,-1.0,51.0,1645098552.0625,P10,D01,1,1,1
1024,35.0,-1.0,51.0,1645098552.09375,P10,D01,1,1,1
1025,36.0,-1.0,51.0,1645098552.125,P10,D01,1,1,1
1026,36.0,-1.0,51.0,1645098552.15625,P10,D01,1,1,1
1027,35.0,-1.0,51.0,1645098552.1875,P10,D01,1,1,1
1028,35.0,-1.0,51.0,1645098552.21875,P10,D01,1,1,1
1029,36.0,-1.0,51.0,1645098552.25,P10,D01,1,1,1
1030,35.0,-1.0,51.0,1645098552.28125,P10,D01,1,1,1
1031,35.0,-1.0,51.0,1645098552.3125,P10,D01,1,1,1
1032,35.0,-1.0,51.0,1645098552.34375,P10,D01,1,1,1
1033,35.0,-1.0,51.0,1645098552.375,P10,D01,1,1,1
1034,35.0,-1.0,51.0,1645098552.40625,P10,D01,1,1,1
1035,35.0,-1.0,51.0,1645098552.4375,P10,D01,1,1,1
1036,35.0,-1.0,51.0,1645098552.46875,P10,D01,1,1,1
1037,35.0,-1.0,51.0,1645098552.5,P10,D01,1,1,1
1038,35.0,-1.0,51.0,1645098552.53125,P10,D01,1,1,1
1039,35.0,-1.0,51.0,1645098552.5625,P10,D01,1,1,1
1040,35.0,-1.0,51.0,1645098552.59375,P10,D01,1,1,1
1041,35.0,-1.0,51.0,1645098552.625,P10,D01,1,1,1
1042,35.0,-1.0,51.0,1645098552.65625,P10,D01,1,1,1
1043,35.0,-1.0,51.0,1645098552.6875,P10,D01,1,1,1
1044,35.0,-1.0,51.0,1645098552.71875,P10,D01,1,1,1
1045,35.0,-1.0,51.0,1645098552.75,P10,D01,1,1,1
1046,35.0,-1.0,51.0,1645098552.78125,P10,D01,1,1,1
1047,35.0,-1.0,51.0,1645098552.8125,P10,D01,1,1,1
1048,35.0,-1.0,51.0,1645098552.84375,P10,D01,1,1,1
1049,35.0,-1.0,51.0,1645098552.875,P10,D01,1,1,1
1050,35.0,-1.0,51.0,1645098552.90625,P10,D01,1,1,1
1051,35.0,-1.0,51.0,1645098552.9375,P10,D01,1,1,1
1052,35.0,-1.0,51.0,1645098552.96875,P10,D01,1,1,1
1053,34.0,-1.0,51.0,1645098553.0,P10,D01,1,1,1
1054,34.0,-1.0,51.0,1645098553.03125,P10,D01,1,1,1
1055,36.0,-1.0,51.0,1645098553.0625,P10,D01,1,1,1
1056,31.0,-1.0,50.0,1645098553.09375,P10,D01,1,1,1
1057,38.0,-2.0,50.0,1645098553.125,P10,D01,1,1,1
1058,37.0,-1.0,51.0,1645098553.15625,P10,D01,1,1,1
1059,36.0,-1.0,50.0,1645098553.1875,P10,D01,1,1,1
1060,36.0,-1.0,50.0,1645098553.21875,P10,D01,1,1,1
1061,35.0,0.0,50.0,1645098553.25,P10,D01,1,1,1
1062,38.0,-1.0,50.0,1645098553.28125,P10,D01,1,1,1
1063,37.0,-1.0,50.0,1645098553.3125,P10,D01,1,1,1
1064,37.0,-1.0,49.0,1645098553.34375,P10,D01,1,1,1
1065,38.0,-1.0,50.0,1645098553.375,P10,D01,1,1,1
1066,38.0,-1.0,50.0,1645098553.40625,P10,D01,1,1,1
1067,37.0,0.0,49.0,1645098553.4375,P10,D01,1,1,1
1068,38.0,0.0,50.0,1645098553.46875,P10,D01,1,1,1
1069,37.0,-1.0,49.0,1645098553.5,P10,D01,1,1,1
1070,36.0,0.0,50.0,1645098553.53125,P10,D01,1,1,1
1071,37.0,-1.0,50.0,1645098553.5625,P10,D01,1,1,1
1072,36.0,-2.0,50.0,1645098553.59375,P10,D01,1,1,1
1073,37.0,-1.0,50.0,1645098553.625,P10,D01,1,1,1
1074,36.0,-1.0,50.0,1645098553.65625,P10,D01,1,1,1
1075,36.0,-1.0,50.0,1645098553.6875,P10,D01,1,1,1
1076,36.0,-1.0,50.0,1645098553.71875,P10,D01,1,1,1
1077,36.0,-1.0,50.0,1645098553.75,P10,D01,1,1,1
1078,37.0,-1.0,50.0,1645098553.78125,P10,D01,1,1,1
1079,36.0,-1.0,50.0,1645098553.8125,P10,D01,1,1,1
1080,37.0,-1.0,50.0,1645098553.84375,P10,D01,1,1,1
1081,36.0,-1.0,50.0,1645098553.875,P10,D01,1,1,1
1082,35.0,-1.0,50.0,1645098553.90625,P10,D01,1,1,1
1083,36.0,-1.0,50.0,1645098553.9375,P10,D01,1,1,1
1084,36.0,0.0,51.0,1645098553.96875,P10,D01,1,1,1
1085,36.0,-1.0,50.0,1645098554.0,P10,D01,1,1,1
1086,37.0,-1.0,50.0,1645098554.03125,P10,D01,1,1,1
1087,37.0,-1.0,50.0,1645098554.0625,P10,D01,1,1,1
1088,36.0,-1.0,50.0,1645098554.09375,P10,D01,1,1,1
1089,35.0,-1.0,50.0,1645098554.125,P10,D01,1,1,1
1090,37.0,-1.0,50.0,1645098554.15625,P10,D01,1,1,1
1091,36.0,-1.0,50.0,1645098554.1875,P10,D01,1,1,1
1092,36.0,-1.0,50.0,1645098554.21875,P10,D01,1,1,1
1093,36.0,-1.0,50.0,1645098554.25,P10,D01,1,1,1
1094,37.0,-1.0,50.0,1645098554.28125,P10,D01,1,1,1
1095,36.0,-1.0,50.0,1645098554.3125,P10,D01,1,1,1
1096,36.0,-1.0,50.0,1645098554.34375,P10,D01,1,1,1
1097,36.0,-1.0,50.0,1645098554.375,P10,D01,1,1,1
1098,37.0,-1.0,50.0,1645098554.40625,P10,D01,1,1,1
1099,36.0,-1.0,50.0,1645098554.4375,P10,D01,1,1,1
1100,36.0,-1.0,50.0,1645098554.46875,P10,D01,1,1,1
1101,36.0,-1.0,50.0,1645098554.5,P10,D01,1,1,1
1102,36.0,-1.0,50.0,1645098554.53125,P10,D01,1,1,1
1103,36.0,-1.0,50.0,1645098554.5625,P10,D01,1,1,1
1104,37.0,-1.0,50.0,1645098554.59375,P10,D01,1,1,1
1105,37.0,-1.0,50.0,1645098554.625,P10,D01,1,1,1
1106,36.0,-1.0,50.0,1645098554.65625,P10,D01,1,1,1
1107,36.0,-1.0,50.0,1645098554.6875,P10,D01,1,1,1
1108,36.0,-1.0,50.0,1645098554.71875,P10,D01,1,1,1
1109,36.0,-1.0,50.0,1645098554.75,P10,D01,1,1,1
1110,37.0,-1.0,50.0,1645098554.78125,P10,D01,1,1,1
1111,37.0,-1.0,50.0,1645098554.8125,P10,D01,1,1,1
1112,36.0,-1.0,51.0,1645098554.84375,P10,D01,1,1,1
1113,36.0,-1.0,50.0,1645098554.875,P10,D01,1,1,1
1114,37.0,-1.0,50.0,1645098554.90625,P10,D01,1,1,1
1115,36.0,-1.0,50.0,1645098554.9375,P10,D01,1,1,1
1116,36.0,-1.0,50.0,1645098554.96875,P10,D01,1,1,1
1117,36.0,-1.0,50.0,1645098555.0,P10,D01,1,1,1
1118,37.0,-1.0,50.0,1645098555.03125,P10,D01,1,1,1
1119,36.0,-1.0,50.0,1645098555.0625,P10,D01,1,1,1
1120,36.0,-1.0,50.0,1645098555.09375,P10,D01,1,1,1
1121,37.0,-1.0,50.0,1645098555.125,P10,D01,1,1,1
1122,37.0,-1.0,50.0,1645098555.15625,P10,D01,1,1,1
1123,36.0,-1.0,50.0,1645098555.1875,P10,D01,1,1,1
1124,36.0,-1.0,50.0,1645098555.21875,P10,D01,1,1,1
1125,37.0,-1.0,50.0,1645098555.25,P10,D01,1,1,1
1126,36.0,-1.0,50.0,1645098555.28125,P10,D01,1,1,1
1127,36.0,-1.0,50.0,1645098555.3125,P10,D01,1,1,1
1128,36.0,-1.0,50.0,1645098555.34375,P10,D01,1,1,1
1129,36.0,-1.0,50.0,1645098555.375,P10,D01,1,1,1
1130,36.0,-1.0,50.0,1645098555.40625,P10,D01,1,1,1
1131,36.0,-1.0,50.0,1645098555.4375,P10,D01,1,1,1
1132,36.0,-1.0,50.0,1645098555.46875,P10,D01,1,1,1
1133,36.0,-1.0,50.0,1645098555.5,P10,D01,1,1,1
1134,36.0,-1.0,50.0,1645098555.53125,P10,D01,1,1,1
1135,36.0,-1.0,50.0,1645098555.5625,P10,D01,1,1,1
1136,36.0,-1.0,50.0,1645098555.59375,P10,D01,1,1,1
1137,36.0,-1.0,50.0,1645098555.625,P10,D01,1,1,1
1138,36.0,-1.0,50.0,1645098555.65625,P10,D01,1,1,1
1139,36.0,-1.0,50.0,1645098555.6875,P10,D01,1,1,1
1140,36.0,-1.0,50.0,1645098555.71875,P10,D01,1,1,1
1141,36.0,-1.0,50.0,1645098555.75,P10,D01,1,1,1
1142,36.0,-1.0,50.0,1645098555.78125,P10,D01,1,1,1
1143,36.0,-1.0,50.0,1645098555.8125,P10,D01,1,1,1
1144,36.0,-1.0,50.0,1645098555.84375,P10,D01,1,1,1
1145,37.0,-1.0,50.0,1645098555.875,P10,D01,1,1,1
1146,36.0,-1.0,50.0,1645098555.90625,P10,D01,1,1,1
1147,36.0,-1.0,50.0,1645098555.9375,P10,D01,1,1,1
1148,37.0,-1.0,50.0,1645098555.96875,P10,D01,1,1,1
1149,37.0,-1.0,50.0,1645098556.0,P10,D01,1,1,1
1150,36.0,-1.0,50.0,1645098556.03125,P10,D01,1,1,1
1151,37.0,-1.0,50.0,1645098556.0625,P10,D01,1,1,1
1152,37.0,-1.0,50.0,1645098556.09375,P10,D01,1,1,1
1153,36.0,-1.0,50.0,1645098556.125,P10,D01,1,1,1
1154,36.0,-1.0,50.0,1645098556.15625,P10,D01,1,1,1
1155,37.0,-1.0,50.0,1645098556.1875,P10,D01,1,1,1
1156,36.0,-1.0,50.0,1645098556.21875,P10,D01,1,1,1
1157,36.0,-1.0,50.0,1645098556.25,P10,D01,1,1,1
1158,36.0,-1.0,50.0,1645098556.28125,P10,D01,1,1,1
1159,37.0,-1.0,50.0,1645098556.3125,P10,D01,1,1,1
1160,36.0,-1.0,50.0,1645098556.34375,P10,D01,1,1,1
1161,37.0,-1.0,50.0,1645098556.375,P10,D01,1,1,1
1162,37.0,-1.0,50.0,1645098556.40625,P10,D01,1,1,1
1163,36.0,-1.0,50.0,1645098556.4375,P10,D01,1,1,1
1164,36.0,-1.0,50.0,1645098556.46875,P10,D01,1,1,1
1165,36.0,-1.0,50.0,1645098556.5,P10,D01,1,1,1
1166,37.0,-1.0,50.0,1645098556.53125,P10,D01,1,1,1
1167,36.0,-1.0,50.0,1645098556.5625,P10,D01,1,1,1
1168,36.0,-1.0,50.0,1645098556.59375,P10,D01,1,1,1
1169,36.0,-1.0,50.0,1645098556.625,P10,D01,1,1,1
1170,36.0,-1.0,50.0,1645098556.65625,P10,D01,1,1,1
1171,36.0,-1.0,50.0,1645098556.6875,P10,D01,1,1,1
1172,36.0,-1.0,50.0,1645098556.71875,P10,D01,1,1,1
1173,37.0,-1.0,50.0,1645098556.75,P10,D01,1,1,1
1174,36.0,-1.0,50.0,1645098556.78125,P10,D01,1,1,1
1175,36.0,-1.0,50.0,1645098556.8125,P10,D01,1,1,1
1176,36.0,-1.0,50.0,1645098556.84375,P10,D01,1,1,1
1177,36.0,-1.0,50.0,1645098556.875,P10,D01,1,1,1
1178,36.0,-1.0,50.0,1645098556.90625,P10,D01,1,1,1
1179,36.0,-1.0,50.0,1645098556.9375,P10,D01,1,1,1
1180,36.0,-1.0,50.0,1645098556.96875,P10,D01,1,1,1
1181,36.0,-1.0,50.0,1645098557.0,P10,D01,1,1,1
1182,36.0,-1.0,50.0,1645098557.03125,P10,D01,1,1,1
1183,37.0,-1.0,50.0,1645098557.0625,P10,D01,1,1,1
1184,36.0,-1.0,50.0,1645098557.09375,P10,D01,1,1,1
1185,36.0,-1.0,50.0,1645098557.125,P10,D01,1,1,1
1186,36.0,-1.0,50.0,1645098557.15625,P10,D01,1,1,1
1187,36.0,-1.0,50.0,1645098557.1875,P10,D01,1,1,1
1188,36.0,-1.0,50.0,1645098557.21875,P10,D01,1,1,1
1189,37.0,-1.0,50.0,1645098557.25,P10,D01,1,1,1
1190,36.0,-1.0,50.0,1645098557.28125,P10,D01,1,1,1
1191,36.0,-1.0,50.0,1645098557.3125,P10,D01,1,1,1
1192,36.0,-1.0,50.0,1645098557.34375,P10,D01,1,1,1
1193,36.0,-1.0,50.0,1645098557.375,P10,D01,1,1,1
1194,36.0,-1.0,50.0,1645098557.40625,P10,D01,1,1,1
1195,36.0,-1.0,50.0,1645098557.4375,P10,D01,1,1,1
1196,36.0,-1.0,50.0,1645098557.46875,P10,D01,1,1,1
1197,36.0,-1.0,50.0,1645098557.5,P10,D01,1,1,1
1198,36.0,-1.0,50.0,1645098557.53125,P10,D01,1,1,1
1199,36.0,-1.0,50.0,1645098557.5625,P10,D01,1,1,1
1200,36.0,-1.0,50.0,1645098557.59375,P10,D01,1,1,1
1201,36.0,-1.0,50.0,1645098557.625,P10,D01,1,1,1
1202,36.0,-1.0,50.0,1645098557.65625,P10,D01,1,1,1
1203,36.0,-1.0,50.0,1645098557.6875,P10,D01,1,1,1
1204,36.0,-1.0,50.0,1645098557.71875,P10,D01,1,1,1
1205,36.0,-1.0,50.0,1645098557.75,P10,D01,1,1,1
1206,36.0,-1.0,50.0,1645098557.78125,P10,D01,1,1,1
1207,38.0,-1.0,50.0,1645098557.8125,P10,D01,1,1,1
1208,38.0,-1.0,50.0,1645098557.84375,P10,D01,1,1,1
1209,36.0,-1.0,50.0,1645098557.875,P10,D01,1,1,1
1210,36.0,-1.0,50.0,1645098557.90625,P10,D01,1,1,1
1211,35.0,-1.0,50.0,1645098557.9375,P10,D01,1,1,1
1212,35.0,-1.0,50.0,1645098557.96875,P10,D01,1,1,1
1213,35.0,-1.0,50.0,1645098558.0,P10,D01,1,1,1
1214,36.0,-1.0,51.0,1645098558.03125,P10,D01,1,1,1
1215,36.0,-1.0,51.0,1645098558.0625,P10,D01,1,1,1
1216,37.0,-1.0,51.0,1645098558.09375,P10,D01,1,1,1
1217,37.0,-1.0,51.0,1645098558.125,P10,D01,1,1,1
1218,36.0,-2.0,51.0,1645098558.15625,P10,D01,1,1,1
1219,35.0,-1.0,52.0,1645098558.1875,P10,D01,1,1,1
1220,33.0,-1.0,52.0,1645098558.21875,P10,D01,1,1,1
1221,33.0,-1.0,52.0,1645098558.25,P10,D01,1,1,1
1222,32.0,-2.0,52.0,1645098558.28125,P10,D01,1,1,1
1223,32.0,-1.0,52.0,1645098558.3125,P10,D01,1,1,1
1224,32.0,-1.0,52.0,1645098558.34375,P10,D01,1,1,1
1225,32.0,-1.0,53.0,1645098558.375,P10,D01,1,1,1
1226,32.0,-1.0,53.0,1645098558.40625,P10,D01,1,1,1
1227,32.0,-1.0,53.0,1645098558.4375,P10,D01,1,1,1
1228,32.0,-1.0,53.0,1645098558.46875,P10,D01,1,1,1
1229,33.0,-1.0,53.0,1645098558.5,P10,D01,1,1,1
1230,33.0,-1.0,53.0,1645098558.53125,P10,D01,1,1,1
1231,33.0,-2.0,53.0,1645098558.5625,P10,D01,1,1,1
1232,33.0,-2.0,53.0,1645098558.59375,P10,D01,1,1,1
1233,32.0,-1.0,53.0,1645098558.625,P10,D01,1,1,1
1234,31.0,-1.0,53.0,1645098558.65625,P10,D01,1,1,1
1235,31.0,-1.0,53.0,1645098558.6875,P10,D01,1,1,1
1236,30.0,-1.0,53.0,1645098558.71875,P10,D01,1,1,1
1237,30.0,-1.0,53.0,1645098558.75,P10,D01,1,1,1
1238,31.0,-1.0,54.0,1645098558.78125,P10,D01,1,1,1
1239,30.0,-1.0,53.0,1645098558.8125,P10,D01,1,1,1
1240,30.0,-1.0,53.0,1645098558.84375,P10,D01,1,1,1
1241,31.0,-2.0,53.0,1645098558.875,P10,D01,1,1,1
1242,32.0,-1.0,53.0,1645098558.90625,P10,D01,1,1,1
1243,33.0,-1.0,53.0,1645098558.9375,P10,D01,1,1,1
1244,33.0,-2.0,53.0,1645098558.96875,P10,D01,1,1,1
1245,32.0,-2.0,53.0,1645098559.0,P10,D01,1,1,1
1246,31.0,-1.0,53.0,1645098559.03125,P10,D01,1,1,1
1247,32.0,-1.0,53.0,1645098559.0625,P10,D01,1,1,1
1248,34.0,-2.0,52.0,1645098559.09375,P10,D01,1,1,1
1249,34.0,-2.0,53.0,1645098559.125,P10,D01,1,1,1
1250,32.0,-1.0,52.0,1645098559.15625,P10,D01,1,1,1
1251,33.0,-2.0,52.0,1645098559.1875,P10,D01,1,1,1
1252,34.0,-1.0,52.0,1645098559.21875,P10,D01,1,1,1
1253,34.0,-1.0,52.0,1645098559.25,P10,D01,1,1,1
1254,34.0,-1.0,52.0,1645098559.28125,P10,D01,1,1,1
1255,36.0,-2.0,51.0,1645098559.3125,P10,D01,1,1,1
1256,36.0,-2.0,51.0,1645098559.34375,P10,D01,1,1,1
1257,35.0,-1.0,51.0,1645098559.375,P10,D01,1,1,1
1258,35.0,-1.0,51.0,1645098559.40625,P10,D01,1,1,1
1259,33.0,-1.0,51.0,1645098559.4375,P10,D01,1,1,1
1260,35.0,-1.0,51.0,1645098559.46875,P10,D01,1,1,1
1261,34.0,-2.0,51.0,1645098559.5,P10,D01,1,1,1
1262,35.0,-1.0,51.0,1645098559.53125,P10,D01,1,1,1
1263,38.0,-1.0,51.0,1645098559.5625,P10,D01,1,1,1
1264,37.0,-2.0,51.0,1645098559.59375,P10,D01,1,1,1
1265,33.0,-1.0,50.0,1645098559.625,P10,D01,1,1,1
1266,37.0,-1.0,51.0,1645098559.65625,P10,D01,1,1,1
1267,37.0,-1.0,51.0,1645098559.6875,P10,D01,1,1,1
1268,35.0,-1.0,51.0,1645098559.71875,P10,D01,1,1,1
1269,35.0,-1.0,51.0,1645098559.75,P10,D01,1,1,1
1270,37.0,-2.0,51.0,1645098559.78125,P10,D01,1,1,1
1271,37.0,-1.0,51.0,1645098559.8125,P10,D01,1,1,1
1272,35.0,-1.0,51.0,1645098559.84375,P10,D01,1,1,1
1273,35.0,-2.0,50.0,1645098559.875,P10,D01,1,1,1
1274,36.0,-1.0,51.0,1645098559.90625,P10,D01,1,1,1
1275,35.0,-1.0,51.0,1645098559.9375,P10,D01,1,1,1
1276,35.0,-2.0,51.0,1645098559.96875,P10,D01,1,1,1
1277,35.0,-1.0,51.0,1645098560.0,P10,D01,1,1,1
1278,35.0,-1.0,50.0,1645098560.03125,P10,D01,1,1,1
1279,36.0,-2.0,51.0,1645098560.0625,P10,D01,1,1,1
1280,36.0,-2.0,50.0,1645098560.09375,P10,D01,1,1,1
1281,36.0,-1.0,50.0,1645098560.125,P10,D01,1,1,1
1282,36.0,-1.0,50.0,1645098560.15625,P10,D01,1,1,1
1283,36.0,-1.0,50.0,1645098560.1875,P10,D01,1,1,1
1284,37.0,-1.0,50.0,1645098560.21875,P10,D01,1,1,1
1285,37.0,-1.0,50.0,1645098560.25,P10,D01,1,1,1
1286,37.0,-1.0,50.0,1645098560.28125,P10,D01,1,1,1
1287,36.0,-1.0,50.0,1645098560.3125,P10,D01,1,1,1
1288,37.0,-1.0,50.0,1645098560.34375,P10,D01,1,1,1
1289,37.0,-1.0,50.0,1645098560.375,P10,D01,1,1,1
1290,36.0,-2.0,50.0,1645098560.40625,P10,D01,1,1,1
1291,37.0,-1.0,50.0,1645098560.4375,P10,D01,1,1,1
1292,38.0,-1.0,50.0,1645098560.46875,P10,D01,1,1,1
1293,37.0,-1.0,50.0,1645098560.5,P10,D01,1,1,1
1294,36.0,-1.0,50.0,1645098560.53125,P10,D01,1,1,1
1295,37.0,-1.0,50.0,1645098560.5625,P10,D01,1,1,1
1296,37.0,-1.0,50.0,1645098560.59375,P10,D01,1,1,1
1297,37.0,-1.0,50.0,1645098560.625,P10,D01,1,1,1
1298,37.0,-1.0,50.0,1645098560.65625,P10,D01,1,1,1
1299,37.0,-1.0,50.0,1645098560.6875,P10,D01,1,1,1
1300,37.0,-1.0,50.0,1645098560.71875,P10,D01,1,1,1
1301,37.0,-1.0,50.0,1645098560.75,P10,D01,1,1,1
1302,37.0,-1.0,49.0,1645098560.78125,P10,D01,1,1,1
1303,38.0,-2.0,49.0,1645098560.8125,P10,D01,1,1,1
1304,38.0,-2.0,49.0,1645098560.84375,P10,D01,1,1,1
1305,37.0,-1.0,49.0,1645098560.875,P10,D01,1,1,1
1306,37.0,-1.0,49.0,1645098560.90625,P10,D01,1,1,1
1307,38.0,-1.0,49.0,1645098560.9375,P10,D01,1,1,1
1308,37.0,-1.0,49.0,1645098560.96875,P10,D01,1,1,1
1309,38.0,-1.0,49.0,1645098561.0,P10,D01,1,1,1
1310,38.0,-1.0,49.0,1645098561.03125,P10,D01,1,1,1
1311,38.0,-1.0,49.0,1645098561.0625,P10,D01,1,1,1
1312,38.0,-2.0,49.0,1645098561.09375,P10,D01,1,1,1
1313,38.0,-1.0,49.0,1645098561.125,P10,D01,1,1,1
1314,37.0,-1.0,49.0,1645098561.15625,P10,D01,1,1,1
1315,38.0,-1.0,49.0,1645098561.1875,P10,D01,1,1,1
1316,38.0,-1.0,49.0,1645098561.21875,P10,D01,1,1,1
1317,39.0,-1.0,49.0,1645098561.25,P10,D01,1,1,1
1318,38.0,-1.0,49.0,1645098561.28125,P10,D01,1,1,1
1319,38.0,-1.0,48.0,1645098561.3125,P10,D01,1,1,1
1320,38.0,-1.0,49.0,1645098561.34375,P10,D01,1,1,1
1321,38.0,-1.0,49.0,1645098561.375,P10,D01,1,1,1
1322,38.0,-1.0,49.0,1645098561.40625,P10,D01,1,1,1
1323,38.0,-1.0,49.0,1645098561.4375,P10,D01,1,1,1
1324,38.0,-1.0,49.0,1645098561.46875,P10,D01,1,1,1
1325,37.0,-1.0,49.0,1645098561.5,P10,D01,1,1,1
1326,38.0,-1.0,49.0,1645098561.53125,P10,D01,1,1,1
1327,38.0,-1.0,49.0,1645098561.5625,P10,D01,1,1,1
1328,38.0,-1.0,49.0,1645098561.59375,P10,D01,1,1,1
1329,37.0,-1.0,49.0,1645098561.625,P10,D01,1,1,1
1330,38.0,-1.0,49.0,1645098561.65625,P10,D01,1,1,1
1331,38.0,-1.0,49.0,1645098561.6875,P10,D01,1,1,1
1332,37.0,-1.0,49.0,1645098561.71875,P10,D01,1,1,1
1333,38.0,-1.0,49.0,1645098561.75,P10,D01,1,1,1
1334,37.0,-2.0,49.0,1645098561.78125,P10,D01,1,1,1
1335,38.0,-1.0,49.0,1645098561.8125,P10,D01,1,1,1
1336,38.0,-1.0,49.0,1645098561.84375,P10,D01,1,1,1
1337,38.0,-1.0,49.0,1645098561.875,P10,D01,1,1,1
1338,38.0,-1.0,49.0,1645098561.90625,P10,D01,1,1,1
1339,38.0,-1.0,49.0,1645098561.9375,P10,D01,1,1,1
1340,38.0,-1.0,49.0,1645098561.96875,P10,D01,1,1,1
1341,38.0,-1.0,49.0,1645098562.0,P10,D01,1,1,1
1342,38.0,-1.0,49.0,1645098562.03125,P10,D01,1,1,1
1343,38.0,-1.0,49.0,1645098562.0625,P10,D01,1,1,1
1344,38.0,-1.0,49.0,1645098562.09375,P10,D01,1,1,1
1345,38.0,-1.0,49.0,1645098562.125,P10,D01,1,1,1
1346,38.0,-1.0,49.0,1645098562.15625,P10,D01,1,1,1
1347,38.0,-2.0,49.0,1645098562.1875,P10,D01,1,1,1
1348,38.0,-1.0,49.0,1645098562.21875,P10,D01,1,1,1
1349,38.0,-1.0,49.0,1645098562.25,P10,D01,1,1,1
1350,38.0,-1.0,49.0,1645098562.28125,P10,D01,1,1,1
1351,38.0,-1.0,49.0,1645098562.3125,P10,D01,1,1,1
1352,38.0,-1.0,49.0,1645098562.34375,P10,D01,1,1,1
1353,38.0,-1.0,49.0,1645098562.375,P10,D01,1,1,1
1354,38.0,-1.0,49.0,1645098562.40625,P10,D01,1,1,1
1355,38.0,-1.0,49.0,1645098562.4375,P10,D01,1,1,1
1356,38.0,-1.0,49.0,1645098562.46875,P10,D01,1,1,1
1357,38.0,-1.0,49.0,1645098562.5,P10,D01,1,1,1
1358,38.0,-1.0,49.0,1645098562.53125,P10,D01,1,1,1
1359,38.0,-1.0,49.0,1645098562.5625,P10,D01,1,1,1
1360,38.0,-1.0,49.0,1645098562.59375,P10,D01,1,1,1
1361,38.0,-1.0,49.0,1645098562.625,P10,D01,1,1,1
1362,38.0,-1.0,49.0,1645098562.65625,P10,D01,1,1,1
1363,38.0,-1.0,49.0,1645098562.6875,P10,D01,1,1,1
1364,38.0,-1.0,49.0,1645098562.71875,P10,D01,1,1,1
1365,38.0,-1.0,49.0,1645098562.75,P10,D01,1,1,1
1366,38.0,-1.0,49.0,1645098562.78125,P10,D01,1,1,1
1367,37.0,-1.0,49.0,1645098562.8125,P10,D01,1,1,1
1368,38.0,-1.0,49.0,1645098562.84375,P10,D01,1,1,1
1369,38.0,-1.0,49.0,1645098562.875,P10,D01,1,1,1
1370,38.0,-1.0,49.0,1645098562.90625,P10,D01,1,1,1
1371,38.0,-1.0,49.0,1645098562.9375,P10,D01,1,1,1
1372,38.0,-1.0,49.0,1645098562.96875,P10,D01,1,1,1
1373,38.0,-2.0,49.0,1645098563.0,P10,D01,1,1,1
1374,38.0,-1.0,49.0,1645098563.03125,P10,D01,1,1,1
1375,38.0,-1.0,49.0,1645098563.0625,P10,D01,1,1,1
1376,38.0,-1.0,49.0,1645098563.09375,P10,D01,1,1,1
1377,38.0,-1.0,49.0,1645098563.125,P10,D01,1,1,1
1378,38.0,-1.0,49.0,1645098563.15625,P10,D01,1,1,1
1379,38.0,-1.0,49.0,1645098563.1875,P10,D01,1,1,1
1380,38.0,-1.0,49.0,1645098563.21875,P10,D01,1,1,1
1381,38.0,-1.0,49.0,1645098563.25,P10,D01,1,1,1
1382,38.0,-1.0,49.0,1645098563.28125,P10,D01,1,1,1
1383,38.0,-1.0,49.0,1645098563.3125,P10,D01,1,1,1
1384,38.0,-1.0,49.0,1645098563.34375,P10,D01,1,1,1
1385,38.0,-1.0,49.0,1645098563.375,P10,D01,1,1,1
1386,38.0,-1.0,49.0,1645098563.40625,P10,D01,1,1,1
1387,38.0,-1.0,49.0,1645098563.4375,P10,D01,1,1,1
1388,37.0,-1.0,49.0,1645098563.46875,P10,D01,1,1,1
1389,38.0,-1.0,49.0,1645098563.5,P10,D01,1,1,1
1390,38.0,-1.0,49.0,1645098563.53125,P10,D01,1,1,1
1391,38.0,-1.0,49.0,1645098563.5625,P10,D01,1,1,1
1392,38.0,-1.0,49.0,1645098563.59375,P10,D01,1,1,1
1393,38.0,-1.0,49.0,1645098563.625,P10,D01,1,1,1
1394,38.0,-1.0,49.0,1645098563.65625,P10,D01,1,1,1
1395,38.0,-1.0,49.0,1645098563.6875,P10,D01,1,1,1
1396,38.0,-1.0,49.0,1645098563.71875,P10,D01,1,1,1
1397,38.0,-1.0,49.0,1645098563.75,P10,D01,1,1,1
1398,38.0,-1.0,49.0,1645098563.78125,P10,D01,1,1,1
1399,38.0,-1.0,49.0,1645098563.8125,P10,D01,1,1,1
1400,38.0,-1.0,49.0,1645098563.84375,P10,D01,1,1,1
1401,38.0,-1.0,49.0,1645098563.875,P10,D01,1,1,1
1402,38.0,-1.0,49.0,1645098563.90625,P10,D01,1,1,1
1403,38.0,-1.0,49.0,1645098563.9375,P10,D01,1,1,1
1404,38.0,-1.0,49.0,1645098563.96875,P10,D01,1,1,1
1405,38.0,-1.0,49.0,1645098564.0,P10,D01,1,1,1
1406,38.0,-1.0,49.0,1645098564.03125,P10,D01,1,1,1
1407,38.0,-1.0,49.0,1645098564.0625,P10,D01,1,1,1
1408,38.0,-1.0,49.0,1645098564.09375,P10,D01,1,1,1
1409,38.0,-1.0,49.0,1645098564.125,P10,D01,1,1,1
1410,38.0,-1.0,49.0,1645098564.15625,P10,D01,1,1,1
1411,37.0,-1.0,49.0,1645098564.1875,P10,D01,1,1,1
1412,38.0,-1.0,49.0,1645098564.21875,P10,D01,1,1,1
1413,38.0,-1.0,49.0,1645098564.25,P10,D01,1,1,1
1414,38.0,-1.0,49.0,1645098564.28125,P10,D01,1,1,1
1415,38.0,-1.0,49.0,1645098564.3125,P10,D01,1,1,1
1416,38.0,-1.0,49.0,1645098564.34375,P10,D01,1,1,1
1417,37.0,-1.0,49.0,1645098564.375,P10,D01,1,1,1
1418,37.0,-1.0,49.0,1645098564.40625,P10,D01,1,1,1
1419,38.0,-1.0,49.0,1645098564.4375,P10,D01,1,1,1
1420,38.0,-1.0,49.0,1645098564.46875,P10,D01,1,1,1
1421,38.0,-1.0,49.0,1645098564.5,P10,D01,1,1,1
1422,38.0,-1.0,49.0,1645098564.53125,P10,D01,1,1,1
1423,37.0,-1.0,49.0,1645098564.5625,P10,D01,1,1,1
1424,38.0,-1.0,49.0,1645098564.59375,P10,D01,1,1,1
1425,38.0,-1.0,49.0,1645098564.625,P10,D01,1,1,1
1426,38.0,-1.0,49.0,1645098564.65625,P10,D01,1,1,1
1427,37.0,-1.0,49.0,1645098564.6875,P10,D01,1,1,1
1428,38.0,-1.0,49.0,1645098564.71875,P10,D01,1,1,1
1429,38.0,-1.0,49.0,1645098564.75,P10,D01,1,1,1
1430,38.0,-1.0,49.0,1645098564.78125,P10,D01,1,1,1
1431,37.0,-1.0,49.0,1645098564.8125,P10,D01,1,1,1
1432,38.0,-1.0,49.0,1645098564.84375,P10,D01,1,1,1
1433,38.0,-1.0,49.0,1645098564.875,P10,D01,1,1,1
1434,37.0,-1.0,49.0,1645098564.90625,P10,D01,1,1,1
1435,38.0,-1.0,49.0,1645098564.9375,P10,D01,1,1,1
1436,38.0,-1.0,49.0,1645098564.96875,P10,D01,1,1,1
1437,38.0,-1.0,49.0,1645098565.0,P10,D01,1,1,1
1438,37.0,-1.0,49.0,1645098565.03125,P10,D01,1,1,1
1439,38.0,-1.0,49.0,1645098565.0625,P10,D01,1,1,1
1440,38.0,-1.0,49.0,1645098565.09375,P10,D01,1,1,1
1441,38.0,-1.0,49.0,1645098565.125,P10,D01,1,1,1
1442,37.0,-1.0,49.0,1645098565.15625,P10,D01,1,1,1
1443,38.0,-1.0,49.0,1645098565.1875,P10,D01,1,1,1
1444,37.0,-1.0,49.0,1645098565.21875,P10,D01,1,1,1
1445,37.0,-1.0,49.0,1645098565.25,P10,D01,1,1,1
1446,38.0,-1.0,49.0,1645098565.28125,P10,D01,1,1,1
1447,38.0,-1.0,49.0,1645098565.3125,P10,D01,1,1,1
1448,37.0,-1.0,49.0,1645098565.34375,P10,D01,1,1,1
1449,38.0,-1.0,49.0,1645098565.375,P10,D01,1,1,1
1450,38.0,-1.0,49.0,1645098565.40625,P10,D01,1,1,1
1451,37.0,-1.0,49.0,1645098565.4375,P10,D01,1,1,1
1452,37.0,-1.0,49.0,1645098565.46875,P10,D01,1,1,1
1453,37.0,-1.0,49.0,1645098565.5,P10,D01,1,1,1
1454,38.0,-1.0,49.0,1645098565.53125,P10,D01,1,1,1
1455,38.0,-1.0,49.0,1645098565.5625,P10,D01,1,1,1
1456,37.0,-1.0,50.0,1645098565.59375,P10,D01,1,1,1
1457,37.0,-1.0,49.0,1645098565.625,P10,D01,1,1,1
1458,38.0,-1.0,49.0,1645098565.65625,P10,D01,1,1,1
1459,37.0,-1.0,49.0,1645098565.6875,P10,D01,1,1,1
1460,37.0,-1.0,49.0,1645098565.71875,P10,D01,1,1,1
1461,37.0,-1.0,49.0,1645098565.75,P10,D01,1,1,1
1462,38.0,-1.0,49.0,1645098565.78125,P10,D01,1,1,1
1463,37.0,-1.0,49.0,1645098565.8125,P10,D01,1,1,1
1464,37.0,-1.0,49.0,1645098565.84375,P10,D01,1,1,1
1465,38.0,-1.0,49.0,1645098565.875,P10,D01,1,1,1
1466,38.0,-1.0,49.0,1645098565.90625,P10,D01,1,1,1
1467,37.0,-1.0,50.0,1645098565.9375,P10,D01,1,1,1
1468,37.0,-1.0,49.0,1645098565.96875,P10,D01,1,1,1
1469,37.0,-1.0,49.0,1645098566.0,P10,D01,1,1,1
1470,37.0,-1.0,49.0,1645098566.03125,P10,D01,1,1,1
1471,37.0,-1.0,49.0,1645098566.0625,P10,D01,1,1,1
1472,37.0,-1.0,49.0,1645098566.09375,P10,D01,1,1,1
1473,37.0,-1.0,49.0,1645098566.125,P10,D01,1,1,1
1474,38.0,-1.0,49.0,1645098566.15625,P10,D01,1,1,1
1475,37.0,-1.0,49.0,1645098566.1875,P10,D01,1,1,1
1476,37.0,-1.0,49.0,1645098566.21875,P10,D01,1,1,1
1477,37.0,-1.0,49.0,1645098566.25,P10,D01,1,1,1
1478,37.0,-1.0,49.0,1645098566.28125,P10,D01,1,1,1
1479,37.0,-1.0,49.0,1645098566.3125,P10,D01,1,1,1
1480,37.0,-1.0,49.0,1645098566.34375,P10,D01,1,1,1
1481,37.0,-1.0,50.0,1645098566.375,P10,D01,1,1,1
1482,37.0,-1.0,49.0,1645098566.40625,P10,D01,1,1,1
1483,37.0,-1.0,49.0,1645098566.4375,P10,D01,1,1,1
1484,37.0,-1.0,49.0,1645098566.46875,P10,D01,1,1,1
1485,37.0,-1.0,49.0,1645098566.5,P10,D01,1,1,1
1486,37.0,-1.0,49.0,1645098566.53125,P10,D01,1,1,1
1487,37.0,-1.0,50.0,1645098566.5625,P10,D01,1,1,1
1488,37.0,-1.0,49.0,1645098566.59375,P10,D01,1,1,1
1489,37.0,-1.0,49.0,1645098566.625,P10,D01,1,1,1
1490,37.0,-1.0,49.0,1645098566.65625,P10,D01,1,1,1
1491,38.0,-1.0,49.0,1645098566.6875,P10,D01,1,1,1
1492,37.0,-1.0,49.0,1645098566.71875,P10,D01,1,1,1
1493,37.0,-1.0,49.0,1645098566.75,P10,D01,1,1,1
1494,37.0,-1.0,49.0,1645098566.78125,P10,D01,1,1,1
1495,37.0,-1.0,49.0,1645098566.8125,P10,D01,1,1,1
1496,37.0,-1.0,50.0,1645098566.84375,P10,D01,1,1,1
1497,37.0,-1.0,50.0,1645098566.875,P10,D01,1,1,1
1498,37.0,-1.0,49.0,1645098566.90625,P10,D01,1,1,1
1499,37.0,-1.0,49.0,1645098566.9375,P10,D01,1,1,1
1500,37.0,-1.0,50.0,1645098566.96875,P10,D01,1,1,1
1501,37.0,-1.0,49.0,1645098567.0,P10,D01,1,1,1
1502,37.0,-1.0,49.0,1645098567.03125,P10,D01,1,1,1
1503,37.0,-1.0,49.0,1645098567.0625,P10,D01,1,1,1
1504,37.0,-1.0,49.0,1645098567.09375,P10,D01,1,1,1
1505,37.0,-1.0,49.0,1645098567.125,P10,D01,1,1,1
1506,37.0,-1.0,49.0,1645098567.15625,P10,D01,1,1,1
1507,37.0,-1.0,49.0,1645098567.1875,P10,D01,1,1,1
1508,37.0,-1.0,50.0,1645098567.21875,P10,D01,1,1,1
1509,37.0,-1.0,49.0,1645098567.25,P10,D01,1,1,1
1510,37.0,-1.0,49.0,1645098567.28125,P10,D01,1,1,1
1511,37.0,-1.0,50.0,1645098567.3125,P10,D01,1,1,1
1512,37.0,-1.0,50.0,1645098567.34375,P10,D01,1,1,1
1513,37.0,-1.0,49.0,1645098567.375,P10,D01,1,1,1
1514,37.0,-1.0,49.0,1645098567.40625,P10,D01,1,1,1
1515,37.0,-1.0,49.0,1645098567.4375,P10,D01,1,1,1
1516,37.0,-1.0,49.0,1645098567.46875,P10,D01,1,1,1
1517,37.0,-1.0,49.0,1645098567.5,P10,D01,1,1,1
1518,37.0,-1.0,50.0,1645098567.53125,P10,D01,1,1,1
1519,37.0,-1.0,49.0,1645098567.5625,P10,D01,1,1,1
1520,37.0,-1.0,50.0,1645098567.59375,P10,D01,1,1,1
1521,37.0,-1.0,49.0,1645098567.625,P10,D01,1,1,1
1522,37.0,-1.0,49.0,1645098567.65625,P10,D01,1,1,1
1523,37.0,-1.0,50.0,1645098567.6875,P10,D01,1,1,1
1524,37.0,-1.0,49.0,1645098567.71875,P10,D01,1,1,1
1525,37.0,-1.0,50.0,1645098567.75,P10,D01,1,1,1
1526,37.0,-1.0,49.0,1645098567.78125,P10,D01,1,1,1
1527,37.0,-1.0,49.0,1645098567.8125,P10,D01,1,1,1
1528,37.0,-1.0,49.0,1645098567.84375,P10,D01,1,1,1
1529,37.0,-1.0,49.0,1645098567.875,P10,D01,1,1,1
1530,37.0,-1.0,50.0,1645098567.90625,P10,D01,1,1,1
1531,38.0,-1.0,49.0,1645098567.9375,P10,D01,1,1,1
1532,37.0,-1.0,49.0,1645098567.96875,P10,D01,1,1,1
1533,37.0,-1.0,49.0,1645098568.0,P10,D01,1,1,1
1534,37.0,-1.0,49.0,1645098568.03125,P10,D01,1,1,1
1535,37.0,-1.0,49.0,1645098568.0625,P10,D01,1,1,1
1536,37.0,-1.0,49.0,1645098568.09375,P10,D01,1,1,1
1537,37.0,-1.0,50.0,1645098568.125,P10,D01,1,1,1
1538,37.0,-1.0,49.0,1645098568.15625,P10,D01,1,1,1
1539,37.0,-1.0,50.0,1645098568.1875,P10,D01,1,1,1
1540,37.0,-1.0,49.0,1645098568.21875,P10,D01,1,1,1
1541,38.0,-1.0,49.0,1645098568.25,P10,D01,1,1,1
1542,37.0,-1.0,49.0,1645098568.28125,P10,D01,1,1,1
1543,37.0,-1.0,49.0,1645098568.3125,P10,D01,1,1,1
1544,37.0,-1.0,49.0,1645098568.34375,P10,D01,1,1,1
1545,37.0,-1.0,49.0,1645098568.375,P10,D01,1,1,1
1546,38.0,-1.0,49.0,1645098568.40625,P10,D01,1,1,1
1547,38.0,-1.0,49.0,1645098568.4375,P10,D01,1,1,1
1548,37.0,-1.0,49.0,1645098568.46875,P10,D01,1,1,1
1549,37.0,-1.0,49.0,1645098568.5,P10,D01,1,1,1
1550,38.0,-1.0,49.0,1645098568.53125,P10,D01,1,1,1
1551,37.0,-1.0,49.0,1645098568.5625,P10,D01,1,1,1
1552,37.0,-1.0,49.0,1645098568.59375,P10,D01,1,1,1
1553,37.0,-1.0,49.0,1645098568.625,P10,D01,1,1,1
1554,37.0,-1.0,50.0,1645098568.65625,P10,D01,1,1,1
1555,37.0,-1.0,49.0,1645098568.6875,P10,D01,1,1,1
1556,38.0,-1.0,49.0,1645098568.71875,P10,D01,1,1,1
1557,37.0,-1.0,49.0,1645098568.75,P10,D01,1,1,1
1558,37.0,-1.0,49.0,1645098568.78125,P10,D01,1,1,1
1559,37.0,-1.0,49.0,1645098568.8125,P10,D01,1,1,1
1560,38.0,-1.0,49.0,1645098568.84375,P10,D01,1,1,1
1561,38.0,-2.0,49.0,1645098568.875,P10,D01,1,1,1
1562,38.0,-1.0,49.0,1645098568.90625,P10,D01,1,1,1
1563,38.0,-1.0,49.0,1645098568.9375,P10,D01,1,1,1
1564,38.0,-1.0,49.0,1645098568.96875,P10,D01,1,1,1
1565,36.0,-1.0,49.0,1645098569.0,P10,D01,1,1,1
1566,37.0,-1.0,49.0,1645098569.03125,P10,D01,1,1,1
1567,38.0,-1.0,49.0,1645098569.0625,P10,D01,1,1,1
1568,37.0,-1.0,49.0,1645098569.09375,P10,D01,1,1,1
1569,37.0,-1.0,50.0,1645098569.125,P10,D01,1,1,1
1570,37.0,-1.0,50.0,1645098569.15625,P10,D01,1,1,1
1571,37.0,-1.0,50.0,1645098569.1875,P10,D01,1,1,1
1572,37.0,-1.0,50.0,1645098569.21875,P10,D01,1,1,1
1573,37.0,-1.0,50.0,1645098569.25,P10,D01,1,1,1
1574,37.0,-2.0,49.0,1645098569.28125,P10,D01,1,1,1
1575,38.0,-1.0,49.0,1645098569.3125,P10,D01,1,1,1
1576,38.0,-1.0,50.0,1645098569.34375,P10,D01,1,1,1
1577,37.0,-1.0,49.0,1645098569.375,P10,D01,1,1,1
1578,38.0,-1.0,50.0,1645098569.40625,P10,D01,1,1,1
1579,37.0,-1.0,49.0,1645098569.4375,P10,D01,1,1,1
1580,38.0,-1.0,49.0,1645098569.46875,P10,D01,1,1,1
1581,38.0,-1.0,49.0,1645098569.5,P10,D01,1,1,1
1582,38.0,-1.0,49.0,1645098569.53125,P10,D01,1,1,1
1583,38.0,-1.0,49.0,1645098569.5625,P10,D01,1,1,1
1584,38.0,-1.0,49.0,1645098569.59375,P10,D01,1,1,1
1585,38.0,-1.0,49.0,1645098569.625,P10,D01,1,1,1
1586,38.0,-1.0,49.0,1645098569.65625,P10,D01,1,1,1
1587,38.0,-1.0,49.0,1645098569.6875,P10,D01,1,1,1
1588,38.0,-1.0,49.0,1645098569.71875,P10,D01,1,1,1
1589,38.0,-1.0,49.0,1645098569.75,P10,D01,1,1,1
1590,38.0,-1.0,48.0,1645098569.78125,P10,D01,1,1,1
1591,38.0,-1.0,49.0,1645098569.8125,P10,D01,1,1,1
1592,39.0,-1.0,49.0,1645098569.84375,P10,D01,1,1,1
1593,38.0,-1.0,49.0,1645098569.875,P10,D01,1,1,1
1594,38.0,-1.0,49.0,1645098569.90625,P10,D01,1,1,1
1595,38.0,-1.0,49.0,1645098569.9375,P10,D01,1,1,1
1596,38.0,-1.0,49.0,1645098569.96875,P10,D01,1,1,1
1597,38.0,-1.0,49.0,1645098570.0,P10,D01,1,1,1
1598,39.0,-1.0,48.0,1645098570.03125,P10,D01,1,1,1
1599,38.0,-1.0,49.0,1645098570.0625,P10,D01,1,1,1
1600,38.0,-1.0,49.0,1645098570.09375,P10,D01,1,1,1
1601,38.0,-1.0,49.0,1645098570.125,P10,D01,1,1,1
1602,38.0,-1.0,49.0,1645098570.15625,P10,D01,1,1,1
1603,38.0,-1.0,48.0,1645098570.1875,P10,D01,1,1,1
1604,38.0,-1.0,48.0,1645098570.21875,P10,D01,1,1,1
1605,38.0,-1.0,49.0,1645098570.25,P10,D01,1,1,1
1606,38.0,-1.0,48.0,1645098570.28125,P10,D01,1,1,1
1607,38.0,-1.0,48.0,1645098570.3125,P10,D01,1,1,1
1608,38.0,-1.0,49.0,1645098570.34375,P10,D01,1,1,1
1609,38.0,-1.0,49.0,1645098570.375,P10,D01,1,1,1
1610,38.0,-1.0,48.0,1645098570.40625,P10,D01,1,1,1
1611,38.0,-1.0,49.0,1645098570.4375,P10,D01,1,1,1
1612,38.0,-1.0,49.0,1645098570.46875,P10,D01,1,1,1
1613,38.0,-1.0,48.0,1645098570.5,P10,D01,1,1,1
1614,38.0,-1.0,48.0,1645098570.53125,P10,D01,1,1,1
1615,38.0,-1.0,49.0,1645098570.5625,P10,D01,1,1,1
1616,38.0,-1.0,49.0,1645098570.59375,P10,D01,1,1,1
1617,38.0,-1.0,49.0,1645098570.625,P10,D01,1,1,1
1618,38.0,-1.0,48.0,1645098570.65625,P10,D01,1,1,1
1619,38.0,-1.0,48.0,1645098570.6875,P10,D01,1,1,1
1620,38.0,-1.0,49.0,1645098570.71875,P10,D01,1,1,1
1621,38.0,-1.0,49.0,1645098570.75,P10,D01,1,1,1
1622,38.0,-1.0,49.0,1645098570.78125,P10,D01,1,1,1
1623,38.0,-1.0,49.0,1645098570.8125,P10,D01,1,1,1
1624,38.0,-1.0,48.0,1645098570.84375,P10,D01,1,1,1
1625,38.0,-1.0,49.0,1645098570.875,P10,D01,1,1,1
1626,38.0,-1.0,49.0,1645098570.90625,P10,D01,1,1,1
1627,38.0,-1.0,49.0,1645098570.9375,P10,D01,1,1,1
1628,38.0,-1.0,49.0,1645098570.96875,P10,D01,1,1,1
1629,38.0,-1.0,49.0,1645098571.0,P10,D01,1,1,1
1630,38.0,-1.0,49.0,1645098571.03125,P10,D01,1,1,1
1631,38.0,-1.0,48.0,1645098571.0625,P10,D01,1,1,1
1632,38.0,-1.0,48.0,1645098571.09375,P10,D01,1,1,1
1633,38.0,-1.0,48.0,1645098571.125,P10,D01,1,1,1
1634,38.0,-1.0,49.0,1645098571.15625,P10,D01,1,1,1
1635,38.0,-1.0,49.0,1645098571.1875,P10,D01,1,1,1
1636,38.0,-1.0,49.0,1645098571.21875,P10,D01,1,1,1
1637,38.0,-1.0,49.0,1645098571.25,P10,D01,1,1,1
1638,38.0,-1.0,49.0,1645098571.28125,P10,D01,1,1,1
1639,38.0,-1.0,48.0,1645098571.3125,P10,D01,1,1,1
1640,38.0,-1.0,48.0,1645098571.34375,P10,D01,1,1,1
1641,38.0,-1.0,48.0,1645098571.375,P10,D01,1,1,1
1642,38.0,-1.0,48.0,1645098571.40625,P10,D01,1,1,1
1643,38.0,-1.0,48.0,1645098571.4375,P10,D01,1,1,1
1644,38.0,-1.0,48.0,1645098571.46875,P10,D01,1,1,1
1645,38.0,-1.0,49.0,1645098571.5,P10,D01,1,1,1
1646,38.0,-1.0,48.0,1645098571.53125,P10,D01,1,1,1
1647,38.0,-1.0,49.0,1645098571.5625,P10,D01,1,1,1
1648,38.0,-1.0,48.0,1645098571.59375,P10,D01,1,1,1
1649,38.0,-1.0,49.0,1645098571.625,P10,D01,1,1,1
1650,38.0,-1.0,49.0,1645098571.65625,P10,D01,1,1,1
1651,38.0,-1.0,49.0,1645098571.6875,P10,D01,1,1,1
1652,38.0,-1.0,49.0,1645098571.71875,P10,D01,1,1,1
1653,38.0,-1.0,48.0,1645098571.75,P10,D01,1,1,1
1654,38.0,-1.0,49.0,1645098571.78125,P10,D01,1,1,1
1655,38.0,-1.0,49.0,1645098571.8125,P10,D01,1,1,1
1656,38.0,-1.0,48.0,1645098571.84375,P10,D01,1,1,1
1657,38.0,-1.0,49.0,1645098571.875,P10,D01,1,1,1
1658,38.0,-1.0,49.0,1645098571.90625,P10,D01,1,1,1
1659,38.0,-1.0,49.0,1645098571.9375,P10,D01,1,1,1
1660,38.0,-1.0,49.0,1645098571.96875,P10,D01,1,1,1
1661,38.0,-1.0,49.0,1645098572.0,P10,D01,1,1,1
1662,38.0,-1.0,49.0,1645098572.03125,P10,D01,1,1,1
1663,39.0,-1.0,48.0,1645098572.0625,P10,D01,1,1,1
1664,38.0,-2.0,48.0,1645098572.09375,P10,D01,1,1,1
1665,38.0,-1.0,49.0,1645098572.125,P10,D01,1,1,1
1666,39.0,-1.0,48.0,1645098572.15625,P10,D01,1,1,1
1667,39.0,-1.0,49.0,1645098572.1875,P10,D01,1,1,1
1668,37.0,-1.0,48.0,1645098572.21875,P10,D01,1,1,1
1669,38.0,-1.0,48.0,1645098572.25,P10,D01,1,1,1
1670,39.0,-1.0,48.0,1645098572.28125,P10,D01,1,1,1
1671,38.0,-1.0,48.0,1645098572.3125,P10,D01,1,1,1
1672,38.0,-1.0,48.0,1645098572.34375,P10,D01,1,1,1
1673,39.0,-1.0,49.0,1645098572.375,P10,D01,1,1,1
1674,39.0,-1.0,48.0,1645098572.40625,P10,D01,1,1,1
1675,38.0,-1.0,48.0,1645098572.4375,P10,D01,1,1,1
1676,39.0,-1.0,48.0,1645098572.46875,P10,D01,1,1,1
1677,39.0,-1.0,49.0,1645098572.5,P10,D01,1,1,1
1678,38.0,-1.0,48.0,1645098572.53125,P10,D01,1,1,1
1679,39.0,-1.0,48.0,1645098572.5625,P10,D01,1,1,1
1680,39.0,-1.0,48.0,1645098572.59375,P10,D01,1,1,1
1681,38.0,-1.0,48.0,1645098572.625,P10,D01,1,1,1
1682,39.0,-1.0,48.0,1645098572.65625,P10,D01,1,1,1
1683,39.0,-1.0,48.0,1645098572.6875,P10,D01,1,1,1
1684,39.0,-1.0,48.0,1645098572.71875,P10,D01,1,1,1
1685,39.0,-1.0,48.0,1645098572.75,P10,D01,1,1,1
1686,39.0,-1.0,48.0,1645098572.78125,P10,D01,1,1,1
1687,38.0,-1.0,48.0,1645098572.8125,P10,D01,1,1,1
1688,39.0,-1.0,48.0,1645098572.84375,P10,D01,1,1,1
1689,38.0,-1.0,48.0,1645098572.875,P10,D01,1,1,1
1690,39.0,-1.0,48.0,1645098572.90625,P10,D01,1,1,1
1691,39.0,-1.0,48.0,1645098572.9375,P10,D01,1,1,1
1692,38.0,-1.0,48.0,1645098572.96875,P10,D01,1,1,1
1693,39.0,-1.0,48.0,1645098573.0,P10,D01,1,1,1
1694,39.0,-1.0,48.0,1645098573.03125,P10,D01,1,1,1
1695,39.0,-1.0,48.0,1645098573.0625,P10,D01,1,1,1
1696,39.0,-1.0,48.0,1645098573.09375,P10,D01,1,1,1
1697,39.0,-1.0,48.0,1645098573.125,P10,D01,1,1,1
1698,38.0,-1.0,48.0,1645098573.15625,P10,D01,1,1,1
1699,38.0,-1.0,48.0,1645098573.1875,P10,D01,1,1,1
1700,39.0,-1.0,48.0,1645098573.21875,P10,D01,1,1,1
1701,39.0,-1.0,48.0,1645098573.25,P10,D01,1,1,1
1702,38.0,-1.0,48.0,1645098573.28125,P10,D01,1,1,1
1703,38.0,-1.0,49.0,1645098573.3125,P10,D01,1,1,1
1704,38.0,-1.0,49.0,1645098573.34375,P10,D01,1,1,1
1705,38.0,-1.0,49.0,1645098573.375,P10,D01,1,1,1
1706,37.0,-1.0,49.0,1645098573.40625,P10,D01,1,1,1
1707,38.0,-1.0,49.0,1645098573.4375,P10,D01,1,1,1
1708,38.0,-1.0,49.0,1645098573.46875,P10,D01,1,1,1
1709,38.0,-1.0,49.0,1645098573.5,P10,D01,1,1,1
1710,38.0,-1.0,49.0,1645098573.53125,P10,D01,1,1,1
1711,39.0,-1.0,48.0,1645098573.5625,P10,D01,1,1,1
1712,39.0,-1.0,48.0,1645098573.59375,P10,D01,1,1,1
1713,39.0,-1.0,48.0,1645098573.625,P10,D01,1,1,1
1714,39.0,-1.0,48.0,1645098573.65625,P10,D01,1,1,1
1715,39.0,-1.0,48.0,1645098573.6875,P10,D01,1,1,1
1716,39.0,-1.0,48.0,1645098573.71875,P10,D01,1,1,1
1717,39.0,-1.0,48.0,1645098573.75,P10,D01,1,1,1
1718,39.0,-1.0,49.0,1645098573.78125,P10,D01,1,1,1
1719,38.0,-1.0,49.0,1645098573.8125,P10,D01,1,1,1
1720,37.0,-1.0,49.0,1645098573.84375,P10,D01,1,1,1
1721,37.0,-1.0,49.0,1645098573.875,P10,D01,1,1,1
1722,38.0,-1.0,49.0,1645098573.90625,P10,D01,1,1,1
1723,38.0,-1.0,49.0,1645098573.9375,P10,D01,1,1,1
1724,38.0,-1.0,49.0,1645098573.96875,P10,D01,1,1,1
1725,38.0,-1.0,49.0,1645098574.0,P10,D01,1,1,1
1726,38.0,-1.0,49.0,1645098574.03125,P10,D01,1,1,1
1727,38.0,-1.0,49.0,1645098574.0625,P10,D01,1,1,1
1728,38.0,-1.0,49.0,1645098574.09375,P10,D01,1,1,1
1729,38.0,-1.0,49.0,1645098574.125,P10,D01,1,1,1
1730,38.0,-1.0,48.0,1645098574.15625,P10,D01,1,1,1
1731,39.0,-1.0,48.0,1645098574.1875,P10,D01,1,1,1
1732,38.0,-1.0,48.0,1645098574.21875,P10,D01,1,1,1
1733,39.0,-1.0,48.0,1645098574.25,P10,D01,1,1,1
1734,39.0,-1.0,48.0,1645098574.28125,P10,D01,1,1,1
1735,39.0,-1.0,48.0,1645098574.3125,P10,D01,1,1,1
1736,38.0,-1.0,49.0,1645098574.34375,P10,D01,1,1,1
1737,38.0,-1.0,48.0,1645098574.375,P10,D01,1,1,1
1738,38.0,-1.0,49.0,1645098574.40625,P10,D01,1,1,1
1739,38.0,-1.0,49.0,1645098574.4375,P10,D01,1,1,1
1740,38.0,-1.0,48.0,1645098574.46875,P10,D01,1,1,1
1741,38.0,-1.0,48.0,1645098574.5,P10,D01,1,1,1
1742,38.0,-1.0,49.0,1645098574.53125,P10,D01,1,1,1
1743,38.0,-1.0,49.0,1645098574.5625,P10,D01,1,1,1
1744,38.0,-1.0,48.0,1645098574.59375,P10,D01,1,1,1
1745,38.0,-1.0,49.0,1645098574.625,P10,D01,1,1,1
1746,38.0,-1.0,49.0,1645098574.65625,P10,D01,1,1,1
1747,39.0,-1.0,48.0,1645098574.6875,P10,D01,1,1,1
1748,39.0,-1.0,48.0,1645098574.71875,P10,D01,1,1,1
1749,39.0,-1.0,48.0,1645098574.75,P10,D01,1,1,1
1750,39.0,-1.0,48.0,1645098574.78125,P10,D01,1,1,1
1751,38.0,-1.0,49.0,1645098574.8125,P10,D01,1,1,1
1752,38.0,-1.0,48.0,1645098574.84375,P10,D01,1,1,1
1753,39.0,-1.0,48.0,1645098574.875,P10,D01,1,1,1
1754,38.0,-1.0,48.0,1645098574.90625,P10,D01,1,1,1
1755,38.0,-1.0,49.0,1645098574.9375,P10,D01,1,1,1
1756,38.0,-1.0,48.0,1645098574.96875,P10,D01,1,1,1
1757,38.0,-1.0,48.0,1645098575.0,P10,D01,1,1,1
1758,38.0,-1.0,48.0,1645098575.03125,P10,D01,1,1,1
1759,38.0,-1.0,48.0,1645098575.0625,P10,D01,1,1,1
1760,39.0,-1.0,48.0,1645098575.09375,P10,D01,1,1,1
1761,39.0,-1.0,48.0,1645098575.125,P10,D01,1,1,1
1762,39.0,-1.0,48.0,1645098575.15625,P10,D01,1,1,1
1763,38.0,-1.0,48.0,1645098575.1875,P10,D01,1,1,1
1764,39.0,-1.0,48.0,1645098575.21875,P10,D01,1,1,1
1765,39.0,-1.0,48.0,1645098575.25,P10,D01,1,1,1
1766,39.0,-1.0,48.0,1645098575.28125,P10,D01,1,1,1
1767,38.0,-1.0,48.0,1645098575.3125,P10,D01,1,1,1
1768,38.0,-1.0,48.0,1645098575.34375,P10,D01,1,1,1
1769,38.0,-1.0,48.0,1645098575.375,P10,D01,1,1,1
1770,38.0,-1.0,49.0,1645098575.40625,P10,D01,1,1,1
1771,38.0,-1.0,48.0,1645098575.4375,P10,D01,1,1,1
1772,38.0,-1.0,48.0,1645098575.46875,P10,D01,1,1,1
1773,38.0,-1.0,48.0,1645098575.5,P10,D01,1,1,1
1774,39.0,-1.0,48.0,1645098575.53125,P10,D01,1,1,1
1775,39.0,-1.0,48.0,1645098575.5625,P10,D01,1,1,1
1776,39.0,-1.0,48.0,1645098575.59375,P10,D01,1,1,1
1777,38.0,-1.0,48.0,1645098575.625,P10,D01,1,1,1
1778,39.0,-1.0,48.0,1645098575.65625,P10,D01,1,1,1
1779,39.0,-1.0,48.0,1645098575.6875,P10,D01,1,1,1
1780,38.0,-1.0,48.0,1645098575.71875,P10,D01,1,1,1
1781,38.0,-1.0,48.0,1645098575.75,P10,D01,1,1,1
1782,38.0,-1.0,48.0,1645098575.78125,P10,D01,1,1,1
1783,39.0,-1.0,48.0,1645098575.8125,P10,D01,1,1,1
1784,39.0,-1.0,48.0,1645098575.84375,P10,D01,1,1,1
1785,38.0,-1.0,48.0,1645098575.875,P10,D01,1,1,1
1786,39.0,-1.0,48.0,1645098575.90625,P10,D01,1,1,1
1787,39.0,-1.0,48.0,1645098575.9375,P10,D01,1,1,1
1788,39.0,-1.0,48.0,1645098575.96875,P10,D01,1,1,1
1789,38.0,-1.0,48.0,1645098576.0,P10,D01,1,1,1
1790,39.0,-1.0,48.0,1645098576.03125,P10,D01,1,1,1
1791,39.0,-1.0,48.0,1645098576.0625,P10,D01,1,1,1
1792,38.0,-1.0,48.0,1645098576.09375,P10,D01,1,1,1
1793,39.0,-1.0,48.0,1645098576.125,P10,D01,1,1,1
1794,39.0,-1.0,48.0,1645098576.15625,P10,D01,1,1,1
1795,39.0,-1.0,48.0,1645098576.1875,P10,D01,1,1,1
1796,39.0,-1.0,48.0,1645098576.21875,P10,D01,1,1,1
1797,39.0,-1.0,48.0,1645098576.25,P10,D01,1,1,1
1798,39.0,-1.0,48.0,1645098576.28125,P10,D01,1,1,1
1799,38.0,-1.0,48.0,1645098576.3125,P10,D01,1,1,1
1800,39.0,-1.0,48.0,1645098576.34375,P10,D01,1,1,1
1801,39.0,-1.0,48.0,1645098576.375,P10,D01,1,1,1
1802,38.0,-1.0,48.0,1645098576.40625,P10,D01,1,1,1
1803,38.0,-1.0,48.0,1645098576.4375,P10,D01,1,1,1
1804,39.0,-1.0,48.0,1645098576.46875,P10,D01,1,1,1
1805,39.0,-1.0,48.0,1645098576.5,P10,D01,1,1,1
1806,39.0,-1.0,48.0,1645098576.53125,P10,D01,1,1,1
1807,39.0,-1.0,48.0,1645098576.5625,P10,D01,1,1,1
1808,39.0,-1.0,48.0,1645098576.59375,P10,D01,1,1,1
1809,39.0,-1.0,48.0,1645098576.625,P10,D01,1,1,1
1810,39.0,-1.0,48.0,1645098576.65625,P10,D01,1,1,1
1811,38.0,-1.0,48.0,1645098576.6875,P10,D01,1,1,1
1812,38.0,-1.0,48.0,1645098576.71875,P10,D01,1,1,1
1813,39.0,-1.0,48.0,1645098576.75,P10,D01,1,1,1
1814,39.0,-1.0,48.0,1645098576.78125,P10,D01,1,1,1
1815,39.0,-1.0,48.0,1645098576.8125,P10,D01,1,1,1
1816,38.0,-1.0,48.0,1645098576.84375,P10,D01,1,1,1
1817,39.0,-1.0,48.0,1645098576.875,P10,D01,1,1,1
1818,39.0,-1.0,48.0,1645098576.90625,P10,D01,1,1,1
1819,39.0,-1.0,48.0,1645098576.9375,P10,D01,1,1,1
1820,39.0,-1.0,48.0,1645098576.96875,P10,D01,1,1,1
1821,38.0,-1.0,48.0,1645098577.0,P10,D01,1,1,1
1822,39.0,-1.0,48.0,1645098577.03125,P10,D01,1,1,1
1823,39.0,-1.0,48.0,1645098577.0625,P10,D01,1,1,1
1824,38.0,-1.0,48.0,1645098577.09375,P10,D01,1,1,1
1825,39.0,-1.0,48.0,1645098577.125,P10,D01,1,1,1
1826,39.0,-1.0,48.0,1645098577.15625,P10,D01,1,1,1
1827,39.0,-1.0,48.0,1645098577.1875,P10,D01,1,1,1
1828,39.0,-1.0,48.0,1645098577.21875,P10,D01,1,1,1
1829,39.0,-1.0,48.0,1645098577.25,P10,D01,1,1,1
1830,39.0,-1.0,48.0,1645098577.28125,P10,D01,1,1,1
1831,39.0,-1.0,48.0,1645098577.3125,P10,D01,1,1,1
1832,39.0,-1.0,48.0,1645098577.34375,P10,D01,1,1,1
1833,39.0,-1.0,48.0,1645098577.375,P10,D01,1,1,1
1834,39.0,-1.0,48.0,1645098577.40625,P10,D01,1,1,1
1835,39.0,-1.0,48.0,1645098577.4375,P10,D01,1,1,1
1836,38.0,-1.0,48.0,1645098577.46875,P10,D01,1,1,1
1837,39.0,-1.0,48.0,1645098577.5,P10,D01,1,1,1
1838,39.0,-1.0,48.0,1645098577.53125,P10,D01,1,1,1
1839,39.0,-1.0,48.0,1645098577.5625,P10,D01,1,1,1
1840,39.0,-1.0,48.0,1645098577.59375,P10,D01,1,1,1
1841,39.0,-1.0,48.0,1645098577.625,P10,D01,1,1,1
1842,39.0,-1.0,48.0,1645098577.65625,P10,D01,1,1,1
1843,39.0,-1.0,48.0,1645098577.6875,P10,D01,1,1,1
1844,39.0,-1.0,48.0,1645098577.71875,P10,D01,1,1,1
1845,39.0,-1.0,48.0,1645098577.75,P10,D01,1,1,1
1846,39.0,-1.0,48.0,1645098577.78125,P10,D01,1,1,1
1847,39.0,-1.0,48.0,1645098577.8125,P10,D01,1,1,1
1848,39.0,-1.0,48.0,1645098577.84375,P10,D01,1,1,1
1849,39.0,-1.0,48.0,1645098577.875,P10,D01,1,1,1
1850,39.0,-1.0,48.0,1645098577.90625,P10,D01,1,1,1
1851,39.0,-1.0,48.0,1645098577.9375,P10,D01,1,1,1
1852,39.0,-1.0,48.0,1645098577.96875,P10,D01,1,1,1
1853,39.0,-1.0,48.0,1645098578.0,P10,D01,1,1,1
1854,39.0,-1.0,48.0,1645098578.03125,P10,D01,1,1,1
1855,39.0,-1.0,48.0,1645098578.0625,P10,D01,1,1,1
1856,39.0,-1.0,48.0,1645098578.09375,P10,D01,1,1,1
1857,39.0,-1.0,48.0,1645098578.125,P10,D01,1,1,1
1858,39.0,-1.0,48.0,1645098578.15625,P10,D01,1,1,1
1859,39.0,-1.0,48.0,1645098578.1875,P10,D01,1,1,1
1860,39.0,-1.0,48.0,1645098578.21875,P10,D01,1,1,1
1861,39.0,-1.0,48.0,1645098578.25,P10,D01,1,1,1
1862,39.0,-1.0,48.0,1645098578.28125,P10,D01,1,1,1
1863,39.0,-1.0,48.0,1645098578.3125,P10,D01,1,1,1
1864,39.0,-1.0,48.0,1645098578.34375,P10,D01,1,1,1
1865,39.0,-1.0,48.0,1645098578.375,P10,D01,1,1,1
1866,39.0,-1.0,48.0,1645098578.40625,P10,D01,1,1,1
1867,38.0,-1.0,48.0,1645098578.4375,P10,D01,1,1,1
1868,39.0,-1.0,48.0,1645098578.46875,P10,D01,1,1,1
1869,39.0,-1.0,48.0,1645098578.5,P10,D01,1,1,1
1870,39.0,-1.0,48.0,1645098578.53125,P10,D01,1,1,1
1871,39.0,-1.0,48.0,1645098578.5625,P10,D01,1,1,1
1872,39.0,-1.0,48.0,1645098578.59375,P10,D01,1,1,1
1873,39.0,-1.0,48.0,1645098578.625,P10,D01,1,1,1
1874,39.0,-1.0,48.0,1645098578.65625,P10,D01,1,1,1
1875,39.0,-1.0,48.0,1645098578.6875,P10,D01,1,1,1
1876,39.0,-1.0,48.0,1645098578.71875,P10,D01,1,1,1
1877,39.0,-1.0,48.0,1645098578.75,P10,D01,1,1,1
1878,39.0,-1.0,48.0,1645098578.78125,P10,D01,1,1,1
1879,38.0,-1.0,48.0,1645098578.8125,P10,D01,1,1,1
1880,39.0,-1.0,48.0,1645098578.84375,P10,D01,1,1,1
1881,39.0,-1.0,48.0,1645098578.875,P10,D01,1,1,1
1882,39.0,-1.0,48.0,1645098578.90625,P10,D01,1,1,1
1883,39.0,-1.0,48.0,1645098578.9375,P10,D01,1,1,1
1884,39.0,-1.0,48.0,1645098578.96875,P10,D01,1,1,1
1885,39.0,-1.0,48.0,1645098579.0,P10,D01,1,1,1
1886,39.0,-1.0,48.0,1645098579.03125,P10,D01,1,1,1
1887,39.0,-1.0,48.0,1645098579.0625,P10,D01,1,1,1
1888,39.0,-1.0,48.0,1645098579.09375,P10,D01,1,1,1
1889,39.0,-1.0,48.0,1645098579.125,P10,D01,1,1,1
1890,39.0,-1.0,48.0,1645098579.15625,P10,D01,1,1,1
1891,38.0,-1.0,48.0,1645098579.1875,P10,D01,1,1,1
1892,39.0,-1.0,48.0,1645098579.21875,P10,D01,1,1,1
1893,39.0,-1.0,48.0,1645098579.25,P10,D01,1,1,1
1894,38.0,-1.0,48.0,1645098579.28125,P10,D01,1,1,1
1895,38.0,-1.0,48.0,1645098579.3125,P10,D01,1,1,1
1896,39.0,-1.0,48.0,1645098579.34375,P10,D01,1,1,1
1897,39.0,-1.0,48.0,1645098579.375,P10,D01,1,1,1
1898,38.0,-1.0,48.0,1645098579.40625,P10,D01,1,1,1
1899,39.0,-1.0,48.0,1645098579.4375,P10,D01,1,1,1
1900,39.0,-1.0,48.0,1645098579.46875,P10,D01,1,1,1
1901,39.0,-1.0,48.0,1645098579.5,P10,D01,1,1,1
1902,39.0,-1.0,48.0,1645098579.53125,P10,D01,1,1,1
1903,39.0,-1.0,48.0,1645098579.5625,P10,D01,1,1,1
1904,38.0,-1.0,48.0,1645098579.59375,P10,D01,1,1,1
1905,38.0,-1.0,48.0,1645098579.625,P10,D01,1,1,1
1906,39.0,-1.0,48.0,1645098579.65625,P10,D01,1,1,1
1907,39.0,-1.0,48.0,1645098579.6875,P10,D01,1,1,1
1908,39.0,-1.0,48.0,1645098579.71875,P10,D01,1,1,1
1909,39.0,-1.0,48.0,1645098579.75,P10,D01,1,1,1
1910,39.0,-1.0,48.0,1645098579.78125,P10,D01,1,1,1
1911,39.0,-1.0,48.0,1645098579.8125,P10,D01,1,1,1
1912,39.0,-1.0,48.0,1645098579.84375,P10,D01,1,1,1
1913,38.0,-1.0,48.0,1645098579.875,P10,D01,1,1,1
1914,39.0,-1.0,48.0,1645098579.90625,P10,D01,1,1,1
1915,39.0,-1.0,48.0,1645098579.9375,P10,D01,1,1,1
1916,39.0,-1.0,48.0,1645098579.96875,P10,D01,1,1,1
1917,38.0,-1.0,48.0,1645098580.0,P10,D01,1,1,1
1918,39.0,-1.0,48.0,1645098580.03125,P10,D01,1,1,1
1919,39.0,-1.0,48.0,1645098580.0625,P10,D01,1,1,1
1920,39.0,-1.0,48.0,1645098580.09375,P10,D01,1,1,1
1921,39.0,-1.0,48.0,1645098580.125,P10,D01,1,1,1
1922,39.0,-1.0,48.0,1645098580.15625,P10,D01,1,1,1
1923,39.0,-1.0,48.0,1645098580.1875,P10,D01,1,1,1
1924,39.0,-1.0,48.0,1645098580.21875,P10,D01,1,1,1
1925,39.0,-1.0,48.0,1645098580.25,P10,D01,1,1,1
1926,38.0,-1.0,48.0,1645098580.28125,P10,D01,1,1,1
1927,38.0,-1.0,48.0,1645098580.3125,P10,D01,1,1,1
1928,39.0,-1.0,48.0,1645098580.34375,P10,D01,1,1,1
1929,38.0,-1.0,48.0,1645098580.375,P10,D01,1,1,1
1930,38.0,-1.0,48.0,1645098580.40625,P10,D01,1,1,1
1931,38.0,-1.0,48.0,1645098580.4375,P10,D01,1,1,1
1932,39.0,-1.0,48.0,1645098580.46875,P10,D01,1,1,1
1933,39.0,-1.0,48.0,1645098580.5,P10,D01,1,1,1
1934,38.0,-1.0,48.0,1645098580.53125,P10,D01,1,1,1
1935,38.0,-1.0,49.0,1645098580.5625,P10,D01,1,1,1
1936,38.0,-1.0,48.0,1645098580.59375,P10,D01,1,1,1
1937,39.0,-1.0,48.0,1645098580.625,P10,D01,1,1,1
1938,39.0,-1.0,48.0,1645098580.65625,P10,D01,1,1,1
1939,39.0,-1.0,48.0,1645098580.6875,P10,D01,1,1,1
1940,38.0,-1.0,48.0,1645098580.71875,P10,D01,1,1,1
1941,39.0,-1.0,48.0,1645098580.75,P10,D01,1,1,1
1942,38.0,-1.0,48.0,1645098580.78125,P10,D01,1,1,1
1943,39.0,-1.0,48.0,1645098580.8125,P10,D01,1,1,1
1944,39.0,-1.0,49.0,1645098580.84375,P10,D01,1,1,1
1945,38.0,-1.0,48.0,1645098580.875,P10,D01,1,1,1
1946,39.0,-1.0,48.0,1645098580.90625,P10,D01,1,1,1
1947,39.0,-1.0,48.0,1645098580.9375,P10,D01,1,1,1
1948,39.0,-1.0,48.0,1645098580.96875,P10,D01,1,1,1
1949,38.0,-1.0,48.0,1645098581.0,P10,D01,1,1,1
1950,39.0,-1.0,48.0,1645098581.03125,P10,D01,1,1,1
1951,39.0,-1.0,48.0,1645098581.0625,P10,D01,1,1,1
1952,39.0,-1.0,48.0,1645098581.09375,P10,D01,1,1,1
1953,38.0,-1.0,48.0,1645098581.125,P10,D01,1,1,1
1954,38.0,-1.0,48.0,1645098581.15625,P10,D01,1,1,1
1955,38.0,-1.0,48.0,1645098581.1875,P10,D01,1,1,1
1956,39.0,-1.0,48.0,1645098581.21875,P10,D01,1,1,1
1957,39.0,-1.0,48.0,1645098581.25,P10,D01,1,1,1
1958,38.0,-1.0,48.0,1645098581.28125,P10,D01,1,1,1
1959,39.0,-1.0,48.0,1645098581.3125,P10,D01,1,1,1
1960,39.0,-1.0,48.0,1645098581.34375,P10,D01,1,1,1
1961,39.0,-1.0,48.0,1645098581.375,P10,D01,1,1,1
1962,39.0,-1.0,48.0,1645098581.40625,P10,D01,1,1,1
1963,39.0,-1.0,48.0,1645098581.4375,P10,D01,1,1,1
1964,38.0,-1.0,48.0,1645098581.46875,P10,D01,1,1,1
1965,39.0,-1.0,49.0,1645098581.5,P10,D01,1,1,1
1966,39.0,-1.0,48.0,1645098581.53125,P10,D01,1,1,1
1967,39.0,-1.0,48.0,1645098581.5625,P10,D01,1,1,1
1968,38.0,-1.0,48.0,1645098581.59375,P10,D01,1,1,1
1969,39.0,-1.0,48.0,1645098581.625,P10,D01,1,1,1
1970,38.0,-1.0,49.0,1645098581.65625,P10,D01,1,1,1
1971,39.0,-1.0,48.0,1645098581.6875,P10,D01,1,1,1
1972,39.0,-1.0,48.0,1645098581.71875,P10,D01,1,1,1
1973,38.0,-1.0,48.0,1645098581.75,P10,D01,1,1,1
1974,39.0,-1.0,48.0,1645098581.78125,P10,D01,1,1,1
1975,39.0,-1.0,48.0,1645098581.8125,P10,D01,1,1,1
1976,39.0,-1.0,48.0,1645098581.84375,P10,D01,1,1,1
1977,38.0,-1.0,48.0,1645098581.875,P10,D01,1,1,1
1978,39.0,-1.0,48.0,1645098581.90625,P10,D01,1,1,1
1979,39.0,-1.0,48.0,1645098581.9375,P10,D01,1,1,1
1980,38.0,-1.0,48.0,1645098581.96875,P10,D01,1,1,1
1981,39.0,-1.0,48.0,1645098582.0,P10,D01,1,1,1
1982,39.0,-1.0,49.0,1645098582.03125,P10,D01,1,1,1
1983,39.0,-1.0,49.0,1645098582.0625,P10,D01,1,1,1
1984,38.0,-1.0,48.0,1645098582.09375,P10,D01,1,1,1
1985,39.0,-1.0,49.0,1645098582.125,P10,D01,1,1,1
1986,38.0,-1.0,48.0,1645098582.15625,P10,D01,1,1,1
1987,38.0,-1.0,48.0,1645098582.1875,P10,D01,1,1,1
1988,38.0,-1.0,48.0,1645098582.21875,P10,D01,1,1,1
1989,39.0,-1.0,48.0,1645098582.25,P10,D01,1,1,1
1990,38.0,-1.0,48.0,1645098582.28125,P10,D01,1,1,1
1991,38.0,-1.0,48.0,1645098582.3125,P10,D01,1,1,1
1992,38.0,-1.0,48.0,1645098582.34375,P10,D01,1,1,1
1993,38.0,-1.0,48.0,1645098582.375,P10,D01,1,1,1
1994,39.0,-1.0,48.0,1645098582.40625,P10,D01,1,1,1
1995,39.0,-1.0,48.0,1645098582.4375,P10,D01,1,1,1
1996,38.0,-1.0,48.0,1645098582.46875,P10,D01,1,1,1
1997,38.0,-1.0,49.0,1645098582.5,P10,D01,1,1,1
1998,39.0,-1.0,48.0,1645098582.53125,P10,D01,1,1,1
1999,39.0,-1.0,48.0,1645098582.5625,P10,D01,1,1,1
2000,38.0,-1.0,48.0,1645098582.59375,P10,D01,1,1,1
2001,38.0,-1.0,48.0,1645098582.625,P10,D01,1,1,1
2002,39.0,-1.0,48.0,1645098582.65625,P10,D01,1,1,1
2003,39.0,-1.0,48.0,1645098582.6875,P10,D01,1,1,1
2004,39.0,-1.0,48.0,1645098582.71875,P10,D01,1,1,1
2005,39.0,-1.0,49.0,1645098582.75,P10,D01,1,1,1
2006,39.0,-1.0,48.0,1645098582.78125,P10,D01,1,1,1
2007,39.0,-1.0,48.0,1645098582.8125,P10,D01,1,1,1
2008,38.0,-1.0,48.0,1645098582.84375,P10,D01,1,1,1
2009,39.0,-1.0,48.0,1645098582.875,P10,D01,1,1,1
2010,38.0,-1.0,48.0,1645098582.90625,P10,D01,1,1,1
2011,38.0,-1.0,48.0,1645098582.9375,P10,D01,1,1,1
2012,39.0,-1.0,48.0,1645098582.96875,P10,D01,1,1,1
2013,39.0,-1.0,48.0,1645098583.0,P10,D01,1,1,1
2014,38.0,-1.0,48.0,1645098583.03125,P10,D01,1,1,1
2015,39.0,-1.0,48.0,1645098583.0625,P10,D01,1,1,1
2016,38.0,-1.0,49.0,1645098583.09375,P10,D01,1,1,1
2017,38.0,-1.0,48.0,1645098583.125,P10,D01,1,1,1
2018,38.0,-1.0,48.0,1645098583.15625,P10,D01,1,1,1
2019,39.0,-1.0,48.0,1645098583.1875,P10,D01,1,1,1
2020,39.0,-1.0,48.0,1645098583.21875,P10,D01,1,1,1
2021,38.0,-1.0,48.0,1645098583.25,P10,D01,1,1,1
2022,38.0,-1.0,48.0,1645098583.28125,P10,D01,1,1,1
2023,39.0,-1.0,48.0,1645098583.3125,P10,D01,1,1,1
2024,39.0,-1.0,48.0,1645098583.34375,P10,D01,1,1,1
2025,38.0,-1.0,49.0,1645098583.375,P10,D01,1,1,1
2026,38.0,-1.0,48.0,1645098583.40625,P10,D01,1,1,1
2027,38.0,-1.0,48.0,1645098583.4375,P10,D01,1,1,1
2028,38.0,-1.0,48.0,1645098583.46875,P10,D01,1,1,1
2029,38.0,-1.0,48.0,1645098583.5,P10,D01,1,1,1
2030,39.0,-1.0,48.0,1645098583.53125,P10,D01,1,1,1
2031,38.0,-1.0,48.0,1645098583.5625,P10,D01,1,1,1
2032,39.0,-1.0,48.0,1645098583.59375,P10,D01,1,1,1
2033,39.0,-1.0,48.0,1645098583.625,P10,D01,1,1,1
2034,39.0,-1.0,48.0,1645098583.65625,P10,D01,1,1,1
2035,38.0,-1.0,49.0,1645098583.6875,P10,D01,1,1,1
2036,38.0,-1.0,48.0,1645098583.71875,P10,D01,1,1,1
2037,39.0,-1.0,48.0,1645098583.75,P10,D01,1,1,1
2038,39.0,-1.0,48.0,1645098583.78125,P10,D01,1,1,1
2039,39.0,-1.0,49.0,1645098583.8125,P10,D01,1,1,1
2040,38.0,-1.0,48.0,1645098583.84375,P10,D01,1,1,1
2041,38.0,-1.0,48.0,1645098583.875,P10,D01,1,1,1
2042,38.0,-1.0,48.0,1645098583.90625,P10,D01,1,1,1
2043,39.0,-1.0,48.0,1645098583.9375,P10,D01,1,1,1
2044,38.0,-1.0,48.0,1645098583.96875,P10,D01,1,1,1
2045,38.0,-1.0,48.0,1645098584.0,P10,D01,1,1,1
2046,39.0,-1.0,48.0,1645098584.03125,P10,D01,1,1,1
2047,38.0,-1.0,48.0,1645098584.0625,P10,D01,1,1,1
2048,38.0,-1.0,48.0,1645098584.09375,P10,D01,1,1,1
2049,39.0,-1.0,48.0,1645098584.125,P10,D01,1,1,1
2050,38.0,-1.0,48.0,1645098584.15625,P10,D01,1,1,1
2051,38.0,-1.0,48.0,1645098584.1875,P10,D01,1,1,1
2052,39.0,-1.0,48.0,1645098584.21875,P10,D01,1,1,1
2053,38.0,-1.0,48.0,1645098584.25,P10,D01,1,1,1
2054,38.0,-1.0,48.0,1645098584.28125,P10,D01,1,1,1
2055,38.0,-1.0,49.0,1645098584.3125,P10,D01,1,1,1
2056,39.0,-1.0,48.0,1645098584.34375,P10,D01,1,1,1
2057,38.0,-1.0,48.0,1645098584.375,P10,D01,1,1,1
2058,38.0,-1.0,48.0,1645098584.40625,P10,D01,1,1,1
2059,39.0,-1.0,48.0,1645098584.4375,P10,D01,1,1,1
2060,39.0,-1.0,48.0,1645098584.46875,P10,D01,1,1,1
2061,39.0,-1.0,48.0,1645098584.5,P10,D01,1,1,1
2062,39.0,-1.0,48.0,1645098584.53125,P10,D01,1,1,1
2063,38.0,-1.0,48.0,1645098584.5625,P10,D01,1,1,1
2064,39.0,-1.0,48.0,1645098584.59375,P10,D01,1,1,1
2065,38.0,-1.0,49.0,1645098584.625,P10,D01,1,1,1
2066,38.0,-1.0,48.0,1645098584.65625,P10,D01,1,1,1
2067,38.0,-1.0,48.0,1645098584.6875,P10,D01,1,1,1
2068,38.0,-1.0,48.0,1645098584.71875,P10,D01,1,1,1
2069,38.0,-1.0,48.0,1645098584.75,P10,D01,1,1,1
2070,38.0,-1.0,49.0,1645098584.78125,P10,D01,1,1,1
2071,38.0,-1.0,48.0,1645098584.8125,P10,D01,1,1,1
2072,38.0,-1.0,48.0,1645098584.84375,P10,D01,1,1,1
2073,38.0,-1.0,48.0,1645098584.875,P10,D01,1,1,1
2074,38.0,-1.0,49.0,1645098584.90625,P10,D01,1,1,1
2075,38.0,-1.0,48.0,1645098584.9375,P10,D01,1,1,1
2076,38.0,-1.0,48.0,1645098584.96875,P10,D01,1,1,1
2077,38.0,-1.0,49.0,1645098585.0,P10,D01,1,1,1
2078,38.0,-1.0,48.0,1645098585.03125,P10,D01,1,1,1
2079,39.0,-1.0,48.0,1645098585.0625,P10,D01,1,1,1
2080,38.0,-1.0,48.0,1645098585.09375,P10,D01,1,1,1
2081,38.0,-1.0,49.0,1645098585.125,P10,D01,1,1,1
2082,38.0,-1.0,48.0,1645098585.15625,P10,D01,1,1,1
2083,38.0,-1.0,48.0,1645098585.1875,P10,D01,1,1,1
2084,38.0,-1.0,48.0,1645098585.21875,P10,D01,1,1,1
2085,39.0,-1.0,48.0,1645098585.25,P10,D01,1,1,1
2086,38.0,-1.0,48.0,1645098585.28125,P10,D01,1,1,1
2087,38.0,-1.0,48.0,1645098585.3125,P10,D01,1,1,1
2088,39.0,-1.0,48.0,1645098585.34375,P10,D01,1,1,1
2089,39.0,-1.0,48.0,1645098585.375,P10,D01,1,1,1
2090,39.0,-1.0,48.0,1645098585.40625,P10,D01,1,1,1
2091,39.0,-1.0,48.0,1645098585.4375,P10,D01,1,1,1
2092,38.0,-1.0,48.0,1645098585.46875,P10,D01,1,1,1
2093,38.0,-1.0,48.0,1645098585.5,P10,D01,1,1,1
2094,38.0,-1.0,48.0,1645098585.53125,P10,D01,1,1,1
2095,38.0,-1.0,49.0,1645098585.5625,P10,D01,1,1,1
2096,38.0,-1.0,48.0,1645098585.59375,P10,D01,1,1,1
2097,38.0,-1.0,48.0,1645098585.625,P10,D01,1,1,1
2098,38.0,-1.0,48.0,1645098585.65625,P10,D01,1,1,1
2099,38.0,-1.0,48.0,1645098585.6875,P10,D01,1,1,1
2100,38.0,-1.0,48.0,1645098585.71875,P10,D01,1,1,1
2101,39.0,-1.0,48.0,1645098585.75,P10,D01,1,1,1
2102,39.0,-1.0,48.0,1645098585.78125,P10,D01,1,1,1
2103,38.0,-1.0,48.0,1645098585.8125,P10,D01,1,1,1
2104,38.0,-1.0,48.0,1645098585.84375,P10,D01,1,1,1
2105,39.0,-1.0,48.0,1645098585.875,P10,D01,1,1,1
2106,39.0,-1.0,48.0,1645098585.90625,P10,D01,1,1,1
2107,39.0,-1.0,48.0,1645098585.9375,P10,D01,1,1,1
2108,39.0,-1.0,48.0,1645098585.96875,P10,D01,1,1,1
2109,39.0,-1.0,48.0,1645098586.0,P10,D01,1,1,1
2110,39.0,-1.0,48.0,1645098586.03125,P10,D01,1,1,1
2111,39.0,-1.0,48.0,1645098586.0625,P10,D01,1,1,1
2112,38.0,-1.0,48.0,1645098586.09375,P10,D01,1,1,1
2113,39.0,-1.0,48.0,1645098586.125,P10,D01,1,1,1
2114,39.0,-1.0,48.0,1645098586.15625,P10,D01,1,1,1
2115,38.0,-1.0,48.0,1645098586.1875,P10,D01,1,1,1
2116,38.0,-1.0,48.0,1645098586.21875,P10,D01,1,1,1
2117,39.0,-1.0,48.0,1645098586.25,P10,D01,1,1,1
2118,39.0,-1.0,48.0,1645098586.28125,P10,D01,1,1,1
2119,38.0,-1.0,48.0,1645098586.3125,P10,D01,1,1,1
2120,39.0,-1.0,48.0,1645098586.34375,P10,D01,1,1,1
2121,39.0,-1.0,48.0,1645098586.375,P10,D01,1,1,1
2122,38.0,-1.0,48.0,1645098586.40625,P10,D01,1,1,1
2123,38.0,-1.0,48.0,1645098586.4375,P10,D01,1,1,1
2124,39.0,-1.0,48.0,1645098586.46875,P10,D01,1,1,1
2125,39.0,-1.0,48.0,1645098586.5,P10,D01,1,1,1
2126,39.0,-1.0,48.0,1645098586.53125,P10,D01,1,1,1
2127,38.0,-1.0,48.0,1645098586.5625,P10,D01,1,1,1
2128,39.0,-1.0,48.0,1645098586.59375,P10,D01,1,1,1
2129,39.0,-1.0,48.0,1645098586.625,P10,D01,1,1,1
2130,38.0,-1.0,48.0,1645098586.65625,P10,D01,1,1,1
2131,39.0,-1.0,48.0,1645098586.6875,P10,D01,1,1,1
2132,38.0,-1.0,48.0,1645098586.71875,P10,D01,1,1,1
2133,38.0,-1.0,48.0,1645098586.75,P10,D01,1,1,1
2134,39.0,-1.0,48.0,1645098586.78125,P10,D01,1,1,1
2135,39.0,-1.0,48.0,1645098586.8125,P10,D01,1,1,1
2136,39.0,-1.0,48.0,1645098586.84375,P10,D01,1,1,1
2137,38.0,-1.0,48.0,1645098586.875,P10,D01,1,1,1
2138,39.0,-1.0,48.0,1645098586.90625,P10,D01,1,1,1
2139,39.0,-1.0,48.0,1645098586.9375,P10,D01,1,1,1
2140,38.0,-1.0,48.0,1645098586.96875,P10,D01,1,1,1
2141,39.0,-1.0,48.0,1645098587.0,P10,D01,1,1,1
2142,38.0,-1.0,48.0,1645098587.03125,P10,D01,1,1,1
2143,39.0,-1.0,48.0,1645098587.0625,P10,D01,1,1,1
2144,38.0,-1.0,48.0,1645098587.09375,P10,D01,1,1,1
2145,38.0,-1.0,49.0,1645098587.125,P10,D01,1,1,1
2146,38.0,-1.0,48.0,1645098587.15625,P10,D01,1,1,1
2147,38.0,-1.0,48.0,1645098587.1875,P10,D01,1,1,1
2148,38.0,-1.0,48.0,1645098587.21875,P10,D01,1,1,1
2149,38.0,-1.0,48.0,1645098587.25,P10,D01,1,1,1
2150,39.0,-1.0,48.0,1645098587.28125,P10,D01,1,1,1
2151,38.0,-1.0,48.0,1645098587.3125,P10,D01,1,1,1
2152,39.0,-1.0,48.0,1645098587.34375,P10,D01,1,1,1
2153,39.0,-1.0,48.0,1645098587.375,P10,D01,1,1,1
2154,39.0,-1.0,48.0,1645098587.40625,P10,D01,1,1,1
2155,38.0,-1.0,48.0,1645098587.4375,P10,D01,1,1,1
2156,38.0,-1.0,48.0,1645098587.46875,P10,D01,1,1,1
2157,38.0,-1.0,48.0,1645098587.5,P10,D01,1,1,1
2158,39.0,-1.0,48.0,1645098587.53125,P10,D01,1,1,1
2159,39.0,-1.0,48.0,1645098587.5625,P10,D01,1,1,1
2160,38.0,-1.0,48.0,1645098587.59375,P10,D01,1,1,1
2161,39.0,-1.0,48.0,1645098587.625,P10,D01,1,1,1
2162,39.0,-1.0,48.0,1645098587.65625,P10,D01,1,1,1
2163,38.0,-1.0,48.0,1645098587.6875,P10,D01,1,1,1
2164,39.0,-1.0,48.0,1645098587.71875,P10,D01,1,1,1
2165,38.0,-1.0,49.0,1645098587.75,P10,D01,1,1,1
2166,38.0,-1.0,48.0,1645098587.78125,P10,D01,1,1,1
2167,39.0,-1.0,48.0,1645098587.8125,P10,D01,1,1,1
2168,39.0,-1.0,48.0,1645098587.84375,P10,D01,1,1,1
2169,38.0,-1.0,48.0,1645098587.875,P10,D01,1,1,1
2170,38.0,-1.0,48.0,1645098587.90625,P10,D01,1,1,1
2171,39.0,-1.0,48.0,1645098587.9375,P10,D01,1,1,1
2172,38.0,-1.0,47.0,1645098587.96875,P10,D01,1,1,1
2173,41.0,-2.0,48.0,1645098588.0,P10,D01,1,1,1
2174,38.0,-1.0,49.0,1645098588.03125,P10,D01,1,1,1
2175,33.0,-2.0,48.0,1645098588.0625,P10,D01,1,1,1
2176,41.0,1.0,52.0,1645098588.09375,P10,D01,1,1,1
2177,39.0,-5.0,55.0,1645098588.125,P10,D01,1,1,1
2178,28.0,3.0,46.0,1645098588.15625,P10,D01,1,1,1
2179,32.0,2.0,49.0,1645098588.1875,P10,D01,1,1,1
2180,37.0,-1.0,51.0,1645098588.21875,P10,D01,1,1,1
2181,36.0,0.0,50.0,1645098588.25,P10,D01,1,1,1
2182,37.0,0.0,52.0,1645098588.28125,P10,D01,1,1,1
2183,38.0,-2.0,52.0,1645098588.3125,P10,D01,1,1,1
2184,33.0,-1.0,52.0,1645098588.34375,P10,D01,1,1,1
2185,31.0,0.0,51.0,1645098588.375,P10,D01,1,1,1
2186,33.0,0.0,51.0,1645098588.40625,P10,D01,1,1,1
2187,35.0,0.0,51.0,1645098588.4375,P10,D01,1,1,1
2188,35.0,0.0,52.0,1645098588.46875,P10,D01,1,1,1
2189,34.0,-1.0,52.0,1645098588.5,P10,D01,1,1,1
2190,33.0,-1.0,52.0,1645098588.53125,P10,D01,1,1,1
2191,34.0,0.0,52.0,1645098588.5625,P10,D01,1,1,1
2192,34.0,0.0,52.0,1645098588.59375,P10,D01,1,1,1
2193,36.0,-1.0,51.0,1645098588.625,P10,D01,1,1,1
2194,35.0,0.0,52.0,1645098588.65625,P10,D01,1,1,1
2195,34.0,-1.0,51.0,1645098588.6875,P10,D01,1,1,1
2196,36.0,0.0,52.0,1645098588.71875,P10,D01,1,1,1
2197,35.0,-1.0,50.0,1645098588.75,P10,D01,1,1,1
2198,36.0,0.0,52.0,1645098588.78125,P10,D01,1,1,1
2199,32.0,-1.0,51.0,1645098588.8125,P10,D01,1,1,1
2200,34.0,-1.0,51.0,1645098588.84375,P10,D01,1,1,1
2201,35.0,-1.0,52.0,1645098588.875,P10,D01,1,1,1
2202,35.0,-1.0,51.0,1645098588.90625,P10,D01,1,1,1
2203,34.0,-1.0,51.0,1645098588.9375,P10,D01,1,1,1
2204,36.0,-1.0,51.0,1645098588.96875,P10,D01,1,1,1
2205,35.0,-1.0,51.0,1645098589.0,P10,D01,1,1,1
2206,34.0,-1.0,51.0,1645098589.03125,P10,D01,1,1,1
2207,35.0,-1.0,51.0,1645098589.0625,P10,D01,1,1,1
2208,34.0,-1.0,51.0,1645098589.09375,P10,D01,1,1,1
2209,35.0,-1.0,52.0,1645098589.125,P10,D01,1,1,1
2210,35.0,-1.0,52.0,1645098589.15625,P10,D01,1,1,1
2211,34.0,-1.0,52.0,1645098589.1875,P10,D01,1,1,1
2212,34.0,-1.0,52.0,1645098589.21875,P10,D01,1,1,1
2213,34.0,-1.0,51.0,1645098589.25,P10,D01,1,1,1
2214,35.0,-2.0,51.0,1645098589.28125,P10,D01,1,1,1
2215,33.0,-1.0,51.0,1645098589.3125,P10,D01,1,1,1
2216,33.0,-1.0,51.0,1645098589.34375,P10,D01,1,1,1
2217,35.0,-1.0,52.0,1645098589.375,P10,D01,1,1,1
2218,34.0,-1.0,52.0,1645098589.40625,P10,D01,1,1,1
2219,34.0,-1.0,52.0,1645098589.4375,P10,D01,1,1,1
2220,33.0,0.0,52.0,1645098589.46875,P10,D01,1,1,1
2221,34.0,-1.0,51.0,1645098589.5,P10,D01,1,1,1
2222,35.0,-1.0,52.0,1645098589.53125,P10,D01,1,1,1
2223,35.0,-1.0,51.0,1645098589.5625,P10,D01,1,1,1
2224,35.0,-1.0,52.0,1645098589.59375,P10,D01,1,1,1
2225,34.0,-1.0,52.0,1645098589.625,P10,D01,1,1,1
2226,34.0,-1.0,52.0,1645098589.65625,P10,D01,1,1,1
2227,34.0,-1.0,52.0,1645098589.6875,P10,D01,1,1,1
2228,34.0,-1.0,52.0,1645098589.71875,P10,D01,1,1,1
2229,34.0,-1.0,52.0,1645098589.75,P10,D01,1,1,1
2230,35.0,-1.0,51.0,1645098589.78125,P10,D01,1,1,1
2231,34.0,-1.0,52.0,1645098589.8125,P10,D01,1,1,1
2232,34.0,-1.0,52.0,1645098589.84375,P10,D01,1,1,1
2233,34.0,-1.0,52.0,1645098589.875,P10,D01,1,1,1
2234,34.0,-1.0,52.0,1645098589.90625,P10,D01,1,1,1
2235,34.0,-1.0,51.0,1645098589.9375,P10,D01,1,1,1
2236,35.0,0.0,52.0,1645098589.96875,P10,D01,1,1,1
2237,35.0,-1.0,52.0,1645098590.0,P10,D01,1,1,1
2238,34.0,0.0,52.0,1645098590.03125,P10,D01,1,1,1
2239,35.0,-1.0,51.0,1645098590.0625,P10,D01,1,1,1
2240,35.0,-1.0,51.0,1645098590.09375,P10,D01,1,1,1
2241,34.0,-1.0,51.0,1645098590.125,P10,D01,1,1,1
2242,35.0,-1.0,51.0,1645098590.15625,P10,D01,1,1,1
2243,35.0,-1.0,51.0,1645098590.1875,P10,D01,1,1,1
2244,34.0,-1.0,52.0,1645098590.21875,P10,D01,1,1,1
2245,34.0,-1.0,51.0,1645098590.25,P10,D01,1,1,1
2246,35.0,-1.0,51.0,1645098590.28125,P10,D01,1,1,1
2247,35.0,-1.0,51.0,1645098590.3125,P10,D01,1,1,1
2248,34.0,-1.0,51.0,1645098590.34375,P10,D01,1,1,1
2249,35.0,-1.0,51.0,1645098590.375,P10,D01,1,1,1
2250,35.0,-1.0,51.0,1645098590.40625,P10,D01,1,1,1
2251,35.0,0.0,51.0,1645098590.4375,P10,D01,1,1,1
2252,35.0,-1.0,51.0,1645098590.46875,P10,D01,1,1,1
2253,35.0,-1.0,51.0,1645098590.5,P10,D01,1,1,1
2254,35.0,-1.0,51.0,1645098590.53125,P10,D01,1,1,1
2255,35.0,-1.0,51.0,1645098590.5625,P10,D01,1,1,1
2256,35.0,0.0,51.0,1645098590.59375,P10,D01,1,1,1
2257,35.0,-1.0,51.0,1645098590.625,P10,D01,1,1,1
2258,35.0,-1.0,51.0,1645098590.65625,P10,D01,1,1,1
2259,34.0,-1.0,51.0,1645098590.6875,P10,D01,1,1,1
2260,35.0,-1.0,51.0,1645098590.71875,P10,D01,1,1,1
2261,35.0,-1.0,51.0,1645098590.75,P10,D01,1,1,1
2262,34.0,-1.0,51.0,1645098590.78125,P10,D01,1,1,1
2263,35.0,0.0,51.0,1645098590.8125,P10,D01,1,1,1
2264,35.0,-1.0,51.0,1645098590.84375,P10,D01,1,1,1
2265,35.0,-1.0,51.0,1645098590.875,P10,D01,1,1,1
2266,35.0,-1.0,51.0,1645098590.90625,P10,D01,1,1,1
2267,35.0,-1.0,51.0,1645098590.9375,P10,D01,1,1,1
2268,34.0,-1.0,51.0,1645098590.96875,P10,D01,1,1,1
2269,35.0,-1.0,51.0,1645098591.0,P10,D01,1,1,1
2270,34.0,-1.0,51.0,1645098591.03125,P10,D01,1,1,1
2271,34.0,-1.0,51.0,1645098591.0625,P10,D01,1,1,1
2272,34.0,-1.0,51.0,1645098591.09375,P10,D01,1,1,1
2273,35.0,-1.0,51.0,1645098591.125,P10,D01,1,1,1
2274,35.0,0.0,52.0,1645098591.15625,P10,D01,1,1,1
2275,34.0,-1.0,51.0,1645098591.1875,P10,D01,1,1,1
2276,35.0,-1.0,51.0,1645098591.21875,P10,D01,1,1,1
2277,35.0,-1.0,51.0,1645098591.25,P10,D01,1,1,1
2278,35.0,-1.0,51.0,1645098591.28125,P10,D01,1,1,1
2279,34.0,-1.0,51.0,1645098591.3125,P10,D01,1,1,1
2280,35.0,-1.0,51.0,1645098591.34375,P10,D01,1,1,1
2281,35.0,-1.0,51.0,1645098591.375,P10,D01,1,1,1
2282,35.0,-1.0,51.0,1645098591.40625,P10,D01,1,1,1
2283,34.0,-1.0,51.0,1645098591.4375,P10,D01,1,1,1
2284,35.0,-1.0,51.0,1645098591.46875,P10,D01,1,1,1
2285,35.0,-1.0,51.0,1645098591.5,P10,D01,1,1,1
2286,35.0,-1.0,51.0,1645098591.53125,P10,D01,1,1,1
2287,35.0,-1.0,51.0,1645098591.5625,P10,D01,1,1,1
2288,34.0,-1.0,51.0,1645098591.59375,P10,D01,1,1,1
2289,35.0,-1.0,51.0,1645098591.625,P10,D01,1,1,1
2290,35.0,-1.0,51.0,1645098591.65625,P10,D01,1,1,1
2291,35.0,0.0,51.0,1645098591.6875,P10,D01,1,1,1
2292,35.0,-1.0,51.0,1645098591.71875,P10,D01,1,1,1
2293,35.0,0.0,51.0,1645098591.75,P10,D01,1,1,1
2294,35.0,-1.0,51.0,1645098591.78125,P10,D01,1,1,1
2295,35.0,-1.0,51.0,1645098591.8125,P10,D01,1,1,1
2296,35.0,-1.0,51.0,1645098591.84375,P10,D01,1,1,1
2297,34.0,-1.0,51.0,1645098591.875,P10,D01,1,1,1
2298,35.0,-1.0,51.0,1645098591.90625,P10,D01,1,1,1
2299,35.0,-1.0,51.0,1645098591.9375,P10,D01,1,1,1
2300,35.0,-1.0,51.0,1645098591.96875,P10,D01,1,1,1
2301,35.0,-1.0,51.0,1645098592.0,P10,D01,1,1,1
2302,35.0,-1.0,51.0,1645098592.03125,P10,D01,1,1,1
2303,35.0,-1.0,51.0,1645098592.0625,P10,D01,1,1,1
2304,35.0,-1.0,51.0,1645098592.09375,P10,D01,1,1,1
2305,35.0,-1.0,51.0,1645098592.125,P10,D01,1,1,1
2306,35.0,-1.0,51.0,1645098592.15625,P10,D01,1,1,1
2307,35.0,-1.0,51.0,1645098592.1875,P10,D01,1,1,1
2308,34.0,-1.0,51.0,1645098592.21875,P10,D01,1,1,1
2309,35.0,-1.0,51.0,1645098592.25,P10,D01,1,1,1
2310,34.0,-1.0,51.0,1645098592.28125,P10,D01,1,1,1
2311,34.0,-1.0,51.0,1645098592.3125,P10,D01,1,1,1
2312,35.0,-1.0,51.0,1645098592.34375,P10,D01,1,1,1
2313,35.0,-1.0,51.0,1645098592.375,P10,D01,1,1,1
2314,35.0,-1.0,51.0,1645098592.40625,P10,D01,1,1,1
2315,35.0,-1.0,51.0,1645098592.4375,P10,D01,1,1,1
2316,35.0,-1.0,51.0,1645098592.46875,P10,D01,1,1,1
2317,35.0,-1.0,51.0,1645098592.5,P10,D01,1,1,1
2318,35.0,-1.0,51.0,1645098592.53125,P10,D01,1,1,1
2319,35.0,-1.0,51.0,1645098592.5625,P10,D01,1,1,1
2320,35.0,-1.0,51.0,1645098592.59375,P10,D01,1,1,1
2321,34.0,-1.0,51.0,1645098592.625,P10,D01,1,1,1
2322,35.0,-1.0,51.0,1645098592.65625,P10,D01,1,1,1
2323,35.0,-1.0,51.0,1645098592.6875,P10,D01,1,1,1
2324,34.0,-1.0,51.0,1645098592.71875,P10,D01,1,1,1
2325,35.0,-1.0,51.0,1645098592.75,P10,D01,1,1,1
2326,35.0,-1.0,51.0,1645098592.78125,P10,D01,1,1,1
2327,35.0,-1.0,51.0,1645098592.8125,P10,D01,1,1,1
2328,34.0,-1.0,51.0,1645098592.84375,P10,D01,1,1,1
2329,35.0,-1.0,51.0,1645098592.875,P10,D01,1,1,1
2330,35.0,-1.0,51.0,1645098592.90625,P10,D01,1,1,1
2331,34.0,-1.0,51.0,1645098592.9375,P10,D01,1,1,1
2332,34.0,-1.0,51.0,1645098592.96875,P10,D01,1,1,1
2333,35.0,-1.0,51.0,1645098593.0,P10,D01,1,1,1
2334,35.0,-1.0,51.0,1645098593.03125,P10,D01,1,1,1
2335,35.0,-1.0,51.0,1645098593.0625,P10,D01,1,1,1
2336,35.0,-1.0,51.0,1645098593.09375,P10,D01,1,1,1
2337,35.0,-1.0,51.0,1645098593.125,P10,D01,1,1,1
2338,35.0,-1.0,52.0,1645098593.15625,P10,D01,1,1,1
2339,34.0,-1.0,51.0,1645098593.1875,P10,D01,1,1,1
2340,35.0,-1.0,51.0,1645098593.21875,P10,D01,1,1,1
2341,35.0,-1.0,51.0,1645098593.25,P10,D01,1,1,1
2342,34.0,-1.0,51.0,1645098593.28125,P10,D01,1,1,1
2343,35.0,-1.0,51.0,1645098593.3125,P10,D01,1,1,1
2344,35.0,-1.0,51.0,1645098593.34375,P10,D01,1,1,1
2345,34.0,-1.0,51.0,1645098593.375,P10,D01,1,1,1
2346,34.0,-1.0,51.0,1645098593.40625,P10,D01,1,1,1
2347,35.0,-1.0,51.0,1645098593.4375,P10,D01,1,1,1
2348,34.0,-1.0,51.0,1645098593.46875,P10,D01,1,1,1
2349,35.0,-1.0,51.0,1645098593.5,P10,D01,1,1,1
2350,35.0,-1.0,51.0,1645098593.53125,P10,D01,1,1,1
2351,34.0,-1.0,51.0,1645098593.5625,P10,D01,1,1,1
2352,34.0,-1.0,51.0,1645098593.59375,P10,D01,1,1,1
2353,35.0,-1.0,51.0,1645098593.625,P10,D01,1,1,1
2354,35.0,-1.0,51.0,1645098593.65625,P10,D01,1,1,1
2355,34.0,-1.0,51.0,1645098593.6875,P10,D01,1,1,1
2356,34.0,-1.0,51.0,1645098593.71875,P10,D01,1,1,1
2357,35.0,-1.0,51.0,1645098593.75,P10,D01,1,1,1
2358,35.0,-1.0,51.0,1645098593.78125,P10,D01,1,1,1
2359,35.0,-1.0,52.0,1645098593.8125,P10,D01,1,1,1
2360,34.0,-1.0,51.0,1645098593.84375,P10,D01,1,1,1
2361,35.0,-1.0,51.0,1645098593.875,P10,D01,1,1,1
2362,34.0,-1.0,51.0,1645098593.90625,P10,D01,1,1,1
2363,35.0,-1.0,51.0,1645098593.9375,P10,D01,1,1,1
2364,35.0,-1.0,51.0,1645098593.96875,P10,D01,1,1,1
2365,35.0,-1.0,51.0,1645098594.0,P10,D01,1,1,1
2366,35.0,-1.0,51.0,1645098594.03125,P10,D01,1,1,1
2367,35.0,-1.0,51.0,1645098594.0625,P10,D01,1,1,1
2368,34.0,-1.0,51.0,1645098594.09375,P10,D01,1,1,1
2369,35.0,-1.0,51.0,1645098594.125,P10,D01,1,1,1
2370,35.0,-1.0,51.0,1645098594.15625,P10,D01,1,1,1
2371,35.0,-1.0,51.0,1645098594.1875,P10,D01,1,1,1
2372,34.0,-1.0,51.0,1645098594.21875,P10,D01,1,1,1
2373,35.0,-1.0,51.0,1645098594.25,P10,D01,1,1,1
2374,34.0,-1.0,51.0,1645098594.28125,P10,D01,1,1,1
2375,35.0,-1.0,51.0,1645098594.3125,P10,D01,1,1,1
2376,35.0,-1.0,51.0,1645098594.34375,P10,D01,1,1,1
2377,35.0,-1.0,51.0,1645098594.375,P10,D01,1,1,1
2378,35.0,-1.0,51.0,1645098594.40625,P10,D01,1,1,1
2379,35.0,-1.0,51.0,1645098594.4375,P10,D01,1,1,1
2380,34.0,-1.0,51.0,1645098594.46875,P10,D01,1,1,1
2381,35.0,-1.0,51.0,1645098594.5,P10,D01,1,1,1
2382,35.0,-1.0,51.0,1645098594.53125,P10,D01,1,1,1
2383,35.0,-1.0,51.0,1645098594.5625,P10,D01,1,1,1
2384,35.0,-1.0,51.0,1645098594.59375,P10,D01,1,1,1
2385,35.0,-1.0,51.0,1645098594.625,P10,D01,1,1,1
2386,35.0,-1.0,51.0,1645098594.65625,P10,D01,1,1,1
2387,35.0,-1.0,51.0,1645098594.6875,P10,D01,1,1,1
2388,35.0,-1.0,51.0,1645098594.71875,P10,D01,1,1,1
2389,35.0,-1.0,51.0,1645098594.75,P10,D01,1,1,1
2390,35.0,-1.0,51.0,1645098594.78125,P10,D01,1,1,1
2391,35.0,-1.0,51.0,1645098594.8125,P10,D01,1,1,1
2392,35.0,-1.0,51.0,1645098594.84375,P10,D01,1,1,1
2393,35.0,-1.0,51.0,1645098594.875,P10,D01,1,1,1
2394,35.0,-1.0,52.0,1645098594.90625,P10,D01,1,1,1
2395,34.0,-1.0,52.0,1645098594.9375,P10,D01,1,1,1
2396,35.0,-1.0,51.0,1645098594.96875,P10,D01,1,1,1
2397,34.0,-1.0,51.0,1645098595.0,P10,D01,1,1,1
2398,35.0,-1.0,51.0,1645098595.03125,P10,D01,1,1,1
2399,34.0,-1.0,51.0,1645098595.0625,P10,D01,1,1,1
2400,35.0,-1.0,52.0,1645098595.09375,P10,D01,1,1,1
2401,35.0,-1.0,51.0,1645098595.125,P10,D01,1,1,1
2402,34.0,-1.0,51.0,1645098595.15625,P10,D01,1,1,1
2403,35.0,-1.0,52.0,1645098595.1875,P10,D01,1,1,1
2404,35.0,-1.0,51.0,1645098595.21875,P10,D01,1,1,1
2405,34.0,-1.0,51.0,1645098595.25,P10,D01,1,1,1
2406,35.0,-1.0,51.0,1645098595.28125,P10,D01,1,1,1
2407,34.0,-1.0,51.0,1645098595.3125,P10,D01,1,1,1
2408,34.0,-1.0,51.0,1645098595.34375,P10,D01,1,1,1
2409,34.0,-1.0,51.0,1645098595.375,P10,D01,1,1,1
2410,35.0,-1.0,51.0,1645098595.40625,P10,D01,1,1,1
2411,35.0,-1.0,52.0,1645098595.4375,P10,D01,1,1,1
2412,35.0,-1.0,51.0,1645098595.46875,P10,D01,1,1,1
2413,34.0,-1.0,51.0,1645098595.5,P10,D01,1,1,1
2414,35.0,-1.0,51.0,1645098595.53125,P10,D01,1,1,1
2415,34.0,-1.0,51.0,1645098595.5625,P10,D01,1,1,1
2416,34.0,-1.0,51.0,1645098595.59375,P10,D01,1,1,1
2417,35.0,-1.0,51.0,1645098595.625,P10,D01,1,1,1
2418,35.0,-1.0,52.0,1645098595.65625,P10,D01,1,1,1
2419,34.0,-1.0,52.0,1645098595.6875,P10,D01,1,1,1
