,acc_x,acc_y,acc_z,timestamp,participant,document,val,arou,eng
0,2.0,-5.0,62.0,1645098842.6875,P10,D03,0,1,1
1,-6.0,-1.0,63.0,1645098842.71875,P10,D03,0,1,1
2,3.0,0.0,64.0,1645098842.75,P10,D03,0,1,1
3,3.0,-2.0,62.0,1645098842.78125,P10,D03,0,1,1
4,4.0,-2.0,60.0,1645098842.8125,P10,D03,0,1,1
5,6.0,-3.0,65.0,1645098842.84375,P10,D03,0,1,1
6,6.0,-3.0,66.0,1645098842.875,P10,D03,0,1,1
7,0.0,-3.0,61.0,1645098842.90625,P10,D03,0,1,1
8,0.0,-5.0,65.0,1645098842.9375,P10,D03,0,1,1
9,0.0,-6.0,67.0,1645098842.96875,P10,D03,0,1,1
10,3.0,-2.0,61.0,1645098843.0,P10,D03,0,1,1
11,6.0,0.0,60.0,1645098843.03125,P10,D03,0,1,1
12,2.0,2.0,55.0,1645098843.0625,P10,D03,0,1,1
13,3.0,4.0,56.0,1645098843.09375,P10,D03,0,1,1
14,11.0,5.0,65.0,1645098843.125,P10,D03,0,1,1
15,12.0,3.0,67.0,1645098843.15625,P10,D03,0,1,1
16,8.0,-5.0,64.0,1645098843.1875,P10,D03,0,1,1
17,5.0,-4.0,62.0,1645098843.21875,P10,D03,0,1,1
18,5.0,-4.0,60.0,1645098843.25,P10,D03,0,1,1
19,3.0,-2.0,61.0,1645098843.28125,P10,D03,0,1,1
20,3.0,0.0,62.0,1645098843.3125,P10,D03,0,1,1
21,6.0,-2.0,66.0,1645098843.34375,P10,D03,0,1,1
22,7.0,-3.0,64.0,1645098843.375,P10,D03,0,1,1
23,5.0,-1.0,59.0,1645098843.40625,P10,D03,0,1,1
24,6.0,0.0,60.0,1645098843.4375,P10,D03,0,1,1
25,7.0,0.0,63.0,1645098843.46875,P10,D03,0,1,1
26,5.0,0.0,60.0,1645098843.5,P10,D03,0,1,1
27,5.0,0.0,61.0,1645098843.53125,P10,D03,0,1,1
28,5.0,0.0,61.0,1645098843.5625,P10,D03,0,1,1
29,4.0,-1.0,61.0,1645098843.59375,P10,D03,0,1,1
30,5.0,-1.0,62.0,1645098843.625,P10,D03,0,1,1
31,4.0,-3.0,62.0,1645098843.65625,P10,D03,0,1,1
32,6.0,-4.0,63.0,1645098843.6875,P10,D03,0,1,1
33,6.0,-3.0,63.0,1645098843.71875,P10,D03,0,1,1
34,5.0,-1.0,61.0,1645098843.75,P10,D03,0,1,1
35,6.0,0.0,61.0,1645098843.78125,P10,D03,0,1,1
36,7.0,0.0,62.0,1645098843.8125,P10,D03,0,1,1
37,8.0,1.0,63.0,1645098843.84375,P10,D03,0,1,1
38,7.0,5.0,63.0,1645098843.875,P10,D03,0,1,1
39,10.0,5.0,66.0,1645098843.90625,P10,D03,0,1,1
40,18.0,8.0,69.0,1645098843.9375,P10,D03,0,1,1
41,7.0,6.0,70.0,1645098843.96875,P10,D03,0,1,1
42,-7.0,3.0,66.0,1645098844.0,P10,D03,0,1,1
43,-19.0,2.0,57.0,1645098844.03125,P10,D03,0,1,1
44,-19.0,-1.0,56.0,1645098844.0625,P10,D03,0,1,1
45,-11.0,-1.0,53.0,1645098844.09375,P10,D03,0,1,1
46,-6.0,-2.0,50.0,1645098844.125,P10,D03,0,1,1
47,-12.0,-3.0,50.0,1645098844.15625,P10,D03,0,1,1
48,-14.0,-1.0,54.0,1645098844.1875,P10,D03,0,1,1
49,-8.0,-10.0,59.0,1645098844.21875,P10,D03,0,1,1
50,-16.0,-12.0,63.0,1645098844.25,P10,D03,0,1,1
51,-13.0,-11.0,77.0,1645098844.28125,P10,D03,0,1,1
52,-3.0,-11.0,69.0,1645098844.3125,P10,D03,0,1,1
53,3.0,-3.0,54.0,1645098844.34375,P10,D03,0,1,1
54,26.0,-2.0,63.0,1645098844.375,P10,D03,0,1,1
55,27.0,3.0,67.0,1645098844.40625,P10,D03,0,1,1
56,-1.0,3.0,57.0,1645098844.4375,P10,D03,0,1,1
57,3.0,-1.0,58.0,1645098844.46875,P10,D03,0,1,1
58,16.0,-3.0,61.0,1645098844.5,P10,D03,0,1,1
59,21.0,0.0,63.0,1645098844.53125,P10,D03,0,1,1
60,28.0,0.0,66.0,1645098844.5625,P10,D03,0,1,1
61,24.0,-4.0,62.0,1645098844.59375,P10,D03,0,1,1
62,12.0,-3.0,60.0,1645098844.625,P10,D03,0,1,1
63,13.0,-2.0,61.0,1645098844.65625,P10,D03,0,1,1
64,14.0,-2.0,61.0,1645098844.6875,P10,D03,0,1,1
65,11.0,-1.0,60.0,1645098844.71875,P10,D03,0,1,1
66,10.0,-2.0,60.0,1645098844.75,P10,D03,0,1,1
67,15.0,-2.0,63.0,1645098844.78125,P10,D03,0,1,1
68,7.0,-4.0,61.0,1645098844.8125,P10,D03,0,1,1
69,7.0,-1.0,61.0,1645098844.84375,P10,D03,0,1,1
70,10.0,1.0,63.0,1645098844.875,P10,D03,0,1,1
71,5.0,-1.0,59.0,1645098844.90625,P10,D03,0,1,1
72,3.0,-2.0,59.0,1645098844.9375,P10,D03,0,1,1
73,8.0,-1.0,62.0,1645098844.96875,P10,D03,0,1,1
74,13.0,-1.0,63.0,1645098845.0,P10,D03,0,1,1
75,7.0,-1.0,61.0,1645098845.03125,P10,D03,0,1,1
76,7.0,-2.0,60.0,1645098845.0625,P10,D03,0,1,1
77,12.0,-1.0,62.0,1645098845.09375,P10,D03,0,1,1
78,13.0,-2.0,62.0,1645098845.125,P10,D03,0,1,1
79,12.0,-2.0,61.0,1645098845.15625,P10,D03,0,1,1
80,11.0,-2.0,61.0,1645098845.1875,P10,D03,0,1,1
81,12.0,-2.0,61.0,1645098845.21875,P10,D03,0,1,1
82,13.0,-2.0,61.0,1645098845.25,P10,D03,0,1,1
83,12.0,-1.0,61.0,1645098845.28125,P10,D03,0,1,1
84,12.0,-2.0,61.0,1645098845.3125,P10,D03,0,1,1
85,12.0,-2.0,61.0,1645098845.34375,P10,D03,0,1,1
86,11.0,-1.0,61.0,1645098845.375,P10,D03,0,1,1
87,13.0,-1.0,61.0,1645098845.40625,P10,D03,0,1,1
88,11.0,-2.0,60.0,1645098845.4375,P10,D03,0,1,1
89,14.0,-2.0,61.0,1645098845.46875,P10,D03,0,1,1
90,13.0,-2.0,61.0,1645098845.5,P10,D03,0,1,1
91,11.0,-2.0,60.0,1645098845.53125,P10,D03,0,1,1
92,12.0,-2.0,61.0,1645098845.5625,P10,D03,0,1,1
93,13.0,-2.0,61.0,1645098845.59375,P10,D03,0,1,1
94,12.0,-2.0,61.0,1645098845.625,P10,D03,0,1,1
95,13.0,-2.0,60.0,1645098845.65625,P10,D03,0,1,1
96,14.0,-2.0,61.0,1645098845.6875,P10,D03,0,1,1
97,12.0,-2.0,61.0,1645098845.71875,P10,D03,0,1,1
98,12.0,-2.0,61.0,1645098845.75,P10,D03,0,1,1
99,13.0,-1.0,61.0,1645098845.78125,P10,D03,0,1,1
100,14.0,-2.0,61.0,1645098845.8125,P10,D03,0,1,1
101,12.0,-2.0,61.0,1645098845.84375,P10,D03,0,1,1
102,13.0,-1.0,61.0,1645098845.875,P10,D03,0,1,1
103,13.0,-2.0,61.0,1645098845.90625,P10,D03,0,1,1
104,12.0,-2.0,61.0,1645098845.9375,P10,D03,0,1,1
105,12.0,-2.0,60.0,1645098845.96875,P10,D03,0,1,1
106,13.0,-1.0,61.0,1645098846.0,P10,D03,0,1,1
107,13.0,-2.0,61.0,1645098846.03125,P10,D03,0,1,1
108,13.0,-2.0,61.0,1645098846.0625,P10,D03,0,1,1
109,13.0,-2.0,61.0,1645098846.09375,P10,D03,0,1,1
110,12.0,-2.0,61.0,1645098846.125,P10,D03,0,1,1
111,13.0,-2.0,61.0,1645098846.15625,P10,D03,0,1,1
112,13.0,-1.0,61.0,1645098846.1875,P10,D03,0,1,1
113,13.0,-2.0,60.0,1645098846.21875,P10,D03,0,1,1
114,12.0,-2.0,61.0,1645098846.25,P10,D03,0,1,1
115,13.0,-2.0,60.0,1645098846.28125,P10,D03,0,1,1
116,13.0,-1.0,61.0,1645098846.3125,P10,D03,0,1,1
117,13.0,-2.0,61.0,1645098846.34375,P10,D03,0,1,1
118,13.0,-1.0,61.0,1645098846.375,P10,D03,0,1,1
119,13.0,-2.0,61.0,1645098846.40625,P10,D03,0,1,1
120,13.0,-2.0,61.0,1645098846.4375,P10,D03,0,1,1
121,14.0,-2.0,61.0,1645098846.46875,P10,D03,0,1,1
122,13.0,-2.0,61.0,1645098846.5,P10,D03,0,1,1
123,13.0,-2.0,61.0,1645098846.53125,P10,D03,0,1,1
124,14.0,-1.0,61.0,1645098846.5625,P10,D03,0,1,1
125,13.0,-2.0,61.0,1645098846.59375,P10,D03,0,1,1
126,13.0,-2.0,61.0,1645098846.625,P10,D03,0,1,1
127,13.0,-2.0,61.0,1645098846.65625,P10,D03,0,1,1
128,13.0,-2.0,60.0,1645098846.6875,P10,D03,0,1,1
129,14.0,-2.0,61.0,1645098846.71875,P10,D03,0,1,1
130,13.0,-2.0,61.0,1645098846.75,P10,D03,0,1,1
131,13.0,-2.0,61.0,1645098846.78125,P10,D03,0,1,1
132,13.0,-2.0,60.0,1645098846.8125,P10,D03,0,1,1
133,13.0,-2.0,61.0,1645098846.84375,P10,D03,0,1,1
134,13.0,-2.0,61.0,1645098846.875,P10,D03,0,1,1
135,14.0,-2.0,61.0,1645098846.90625,P10,D03,0,1,1
136,13.0,-2.0,60.0,1645098846.9375,P10,D03,0,1,1
137,13.0,-2.0,61.0,1645098846.96875,P10,D03,0,1,1
138,13.0,-2.0,61.0,1645098847.0,P10,D03,0,1,1
139,13.0,-2.0,60.0,1645098847.03125,P10,D03,0,1,1
140,13.0,-2.0,61.0,1645098847.0625,P10,D03,0,1,1
141,13.0,-2.0,61.0,1645098847.09375,P10,D03,0,1,1
142,13.0,-2.0,60.0,1645098847.125,P10,D03,0,1,1
143,13.0,-2.0,61.0,1645098847.15625,P10,D03,0,1,1
144,13.0,-2.0,61.0,1645098847.1875,P10,D03,0,1,1
145,13.0,-2.0,61.0,1645098847.21875,P10,D03,0,1,1
146,13.0,-2.0,61.0,1645098847.25,P10,D03,0,1,1
147,13.0,-2.0,61.0,1645098847.28125,P10,D03,0,1,1
148,13.0,-2.0,61.0,1645098847.3125,P10,D03,0,1,1
149,13.0,-2.0,61.0,1645098847.34375,P10,D03,0,1,1
150,13.0,-2.0,61.0,1645098847.375,P10,D03,0,1,1
151,13.0,-2.0,61.0,1645098847.40625,P10,D03,0,1,1
152,13.0,-2.0,60.0,1645098847.4375,P10,D03,0,1,1
153,14.0,-2.0,61.0,1645098847.46875,P10,D03,0,1,1
154,14.0,-1.0,61.0,1645098847.5,P10,D03,0,1,1
155,14.0,-2.0,61.0,1645098847.53125,P10,D03,0,1,1
156,13.0,-1.0,61.0,1645098847.5625,P10,D03,0,1,1
157,14.0,-2.0,61.0,1645098847.59375,P10,D03,0,1,1
158,14.0,-2.0,61.0,1645098847.625,P10,D03,0,1,1
159,13.0,-1.0,61.0,1645098847.65625,P10,D03,0,1,1
160,13.0,-2.0,61.0,1645098847.6875,P10,D03,0,1,1
161,14.0,-1.0,61.0,1645098847.71875,P10,D03,0,1,1
162,14.0,-2.0,61.0,1645098847.75,P10,D03,0,1,1
163,14.0,-2.0,61.0,1645098847.78125,P10,D03,0,1,1
164,14.0,-2.0,60.0,1645098847.8125,P10,D03,0,1,1
165,14.0,-2.0,60.0,1645098847.84375,P10,D03,0,1,1
166,14.0,-2.0,61.0,1645098847.875,P10,D03,0,1,1
167,14.0,-2.0,60.0,1645098847.90625,P10,D03,0,1,1
168,13.0,-2.0,60.0,1645098847.9375,P10,D03,0,1,1
169,14.0,-2.0,60.0,1645098847.96875,P10,D03,0,1,1
170,14.0,-2.0,60.0,1645098848.0,P10,D03,0,1,1
171,14.0,-2.0,61.0,1645098848.03125,P10,D03,0,1,1
172,14.0,-2.0,61.0,1645098848.0625,P10,D03,0,1,1
173,14.0,-2.0,60.0,1645098848.09375,P10,D03,0,1,1
174,14.0,-2.0,61.0,1645098848.125,P10,D03,0,1,1
175,13.0,-2.0,60.0,1645098848.15625,P10,D03,0,1,1
176,14.0,-2.0,61.0,1645098848.1875,P10,D03,0,1,1
177,14.0,-2.0,60.0,1645098848.21875,P10,D03,0,1,1
178,14.0,-2.0,60.0,1645098848.25,P10,D03,0,1,1
179,14.0,-2.0,61.0,1645098848.28125,P10,D03,0,1,1
180,14.0,-1.0,61.0,1645098848.3125,P10,D03,0,1,1
181,14.0,-2.0,61.0,1645098848.34375,P10,D03,0,1,1
182,14.0,-1.0,61.0,1645098848.375,P10,D03,0,1,1
183,13.0,-2.0,61.0,1645098848.40625,P10,D03,0,1,1
184,14.0,-2.0,61.0,1645098848.4375,P10,D03,0,1,1
185,14.0,-2.0,61.0,1645098848.46875,P10,D03,0,1,1
186,14.0,-2.0,60.0,1645098848.5,P10,D03,0,1,1
187,14.0,-2.0,60.0,1645098848.53125,P10,D03,0,1,1
188,14.0,-2.0,61.0,1645098848.5625,P10,D03,0,1,1
189,14.0,-1.0,61.0,1645098848.59375,P10,D03,0,1,1
190,13.0,-2.0,61.0,1645098848.625,P10,D03,0,1,1
191,14.0,-2.0,60.0,1645098848.65625,P10,D03,0,1,1
192,14.0,-2.0,60.0,1645098848.6875,P10,D03,0,1,1
193,14.0,-2.0,60.0,1645098848.71875,P10,D03,0,1,1
194,14.0,-2.0,60.0,1645098848.75,P10,D03,0,1,1
195,14.0,-2.0,60.0,1645098848.78125,P10,D03,0,1,1
196,14.0,-2.0,60.0,1645098848.8125,P10,D03,0,1,1
197,14.0,-2.0,61.0,1645098848.84375,P10,D03,0,1,1
198,14.0,-2.0,61.0,1645098848.875,P10,D03,0,1,1
199,14.0,-2.0,60.0,1645098848.90625,P10,D03,0,1,1
200,14.0,-2.0,60.0,1645098848.9375,P10,D03,0,1,1
201,14.0,-2.0,61.0,1645098848.96875,P10,D03,0,1,1
202,14.0,-2.0,60.0,1645098849.0,P10,D03,0,1,1
203,14.0,-2.0,60.0,1645098849.03125,P10,D03,0,1,1
204,14.0,-2.0,60.0,1645098849.0625,P10,D03,0,1,1
205,14.0,-2.0,60.0,1645098849.09375,P10,D03,0,1,1
206,14.0,-2.0,61.0,1645098849.125,P10,D03,0,1,1
207,14.0,-2.0,60.0,1645098849.15625,P10,D03,0,1,1
208,14.0,-2.0,61.0,1645098849.1875,P10,D03,0,1,1
209,14.0,-2.0,60.0,1645098849.21875,P10,D03,0,1,1
210,14.0,-2.0,60.0,1645098849.25,P10,D03,0,1,1
211,14.0,-2.0,61.0,1645098849.28125,P10,D03,0,1,1
212,14.0,-2.0,60.0,1645098849.3125,P10,D03,0,1,1
213,14.0,-2.0,60.0,1645098849.34375,P10,D03,0,1,1
214,14.0,-2.0,60.0,1645098849.375,P10,D03,0,1,1
215,14.0,-2.0,60.0,1645098849.40625,P10,D03,0,1,1
216,14.0,-2.0,61.0,1645098849.4375,P10,D03,0,1,1
217,14.0,-2.0,60.0,1645098849.46875,P10,D03,0,1,1
218,14.0,-2.0,61.0,1645098849.5,P10,D03,0,1,1
219,14.0,-2.0,60.0,1645098849.53125,P10,D03,0,1,1
220,14.0,-1.0,60.0,1645098849.5625,P10,D03,0,1,1
221,14.0,-2.0,60.0,1645098849.59375,P10,D03,0,1,1
222,14.0,-2.0,60.0,1645098849.625,P10,D03,0,1,1
223,14.0,-2.0,60.0,1645098849.65625,P10,D03,0,1,1
224,14.0,-1.0,61.0,1645098849.6875,P10,D03,0,1,1
225,14.0,-2.0,60.0,1645098849.71875,P10,D03,0,1,1
226,14.0,-2.0,60.0,1645098849.75,P10,D03,0,1,1
227,14.0,-1.0,61.0,1645098849.78125,P10,D03,0,1,1
228,14.0,-2.0,61.0,1645098849.8125,P10,D03,0,1,1
229,14.0,-2.0,60.0,1645098849.84375,P10,D03,0,1,1
230,14.0,-2.0,61.0,1645098849.875,P10,D03,0,1,1
231,14.0,-2.0,61.0,1645098849.90625,P10,D03,0,1,1
232,14.0,-2.0,60.0,1645098849.9375,P10,D03,0,1,1
233,14.0,-2.0,60.0,1645098849.96875,P10,D03,0,1,1
234,14.0,-2.0,60.0,1645098850.0,P10,D03,0,1,1
235,14.0,-1.0,60.0,1645098850.03125,P10,D03,0,1,1
236,14.0,-2.0,60.0,1645098850.0625,P10,D03,0,1,1
237,14.0,-2.0,60.0,1645098850.09375,P10,D03,0,1,1
238,14.0,-2.0,60.0,1645098850.125,P10,D03,0,1,1
239,14.0,-2.0,60.0,1645098850.15625,P10,D03,0,1,1
240,14.0,-2.0,60.0,1645098850.1875,P10,D03,0,1,1
241,14.0,-2.0,60.0,1645098850.21875,P10,D03,0,1,1
242,14.0,-2.0,60.0,1645098850.25,P10,D03,0,1,1
243,14.0,-2.0,61.0,1645098850.28125,P10,D03,0,1,1
244,14.0,-2.0,60.0,1645098850.3125,P10,D03,0,1,1
245,14.0,-2.0,60.0,1645098850.34375,P10,D03,0,1,1
246,14.0,-2.0,60.0,1645098850.375,P10,D03,0,1,1
247,14.0,-2.0,60.0,1645098850.40625,P10,D03,0,1,1
248,14.0,-2.0,61.0,1645098850.4375,P10,D03,0,1,1
249,14.0,-2.0,61.0,1645098850.46875,P10,D03,0,1,1
250,14.0,-2.0,60.0,1645098850.5,P10,D03,0,1,1
251,14.0,-2.0,61.0,1645098850.53125,P10,D03,0,1,1
252,14.0,-2.0,61.0,1645098850.5625,P10,D03,0,1,1
253,13.0,-2.0,60.0,1645098850.59375,P10,D03,0,1,1
254,13.0,-2.0,60.0,1645098850.625,P10,D03,0,1,1
255,14.0,-2.0,61.0,1645098850.65625,P10,D03,0,1,1
256,14.0,-2.0,60.0,1645098850.6875,P10,D03,0,1,1
257,14.0,-2.0,61.0,1645098850.71875,P10,D03,0,1,1
258,14.0,-2.0,60.0,1645098850.75,P10,D03,0,1,1
259,14.0,-2.0,60.0,1645098850.78125,P10,D03,0,1,1
260,14.0,-1.0,61.0,1645098850.8125,P10,D03,0,1,1
261,14.0,-2.0,60.0,1645098850.84375,P10,D03,0,1,1
262,14.0,-2.0,60.0,1645098850.875,P10,D03,0,1,1
263,14.0,-2.0,61.0,1645098850.90625,P10,D03,0,1,1
264,14.0,-2.0,60.0,1645098850.9375,P10,D03,0,1,1
265,14.0,-1.0,60.0,1645098850.96875,P10,D03,0,1,1
266,14.0,-2.0,61.0,1645098851.0,P10,D03,0,1,1
267,14.0,-2.0,60.0,1645098851.03125,P10,D03,0,1,1
268,14.0,-2.0,60.0,1645098851.0625,P10,D03,0,1,1
269,14.0,-2.0,60.0,1645098851.09375,P10,D03,0,1,1
270,14.0,-2.0,61.0,1645098851.125,P10,D03,0,1,1
271,14.0,-2.0,61.0,1645098851.15625,P10,D03,0,1,1
272,14.0,-2.0,60.0,1645098851.1875,P10,D03,0,1,1
273,14.0,-2.0,61.0,1645098851.21875,P10,D03,0,1,1
274,14.0,-2.0,60.0,1645098851.25,P10,D03,0,1,1
275,14.0,-2.0,61.0,1645098851.28125,P10,D03,0,1,1
276,14.0,-2.0,60.0,1645098851.3125,P10,D03,0,1,1
277,14.0,-2.0,61.0,1645098851.34375,P10,D03,0,1,1
278,14.0,-2.0,60.0,1645098851.375,P10,D03,0,1,1
279,14.0,-2.0,60.0,1645098851.40625,P10,D03,0,1,1
280,13.0,-2.0,61.0,1645098851.4375,P10,D03,0,1,1
281,14.0,-2.0,60.0,1645098851.46875,P10,D03,0,1,1
282,13.0,-2.0,61.0,1645098851.5,P10,D03,0,1,1
283,14.0,-2.0,60.0,1645098851.53125,P10,D03,0,1,1
284,14.0,-2.0,61.0,1645098851.5625,P10,D03,0,1,1
285,14.0,-2.0,61.0,1645098851.59375,P10,D03,0,1,1
286,14.0,-2.0,61.0,1645098851.625,P10,D03,0,1,1
287,14.0,-2.0,61.0,1645098851.65625,P10,D03,0,1,1
288,14.0,-1.0,61.0,1645098851.6875,P10,D03,0,1,1
289,14.0,-2.0,60.0,1645098851.71875,P10,D03,0,1,1
290,14.0,-2.0,61.0,1645098851.75,P10,D03,0,1,1
291,14.0,-2.0,60.0,1645098851.78125,P10,D03,0,1,1
292,14.0,-2.0,60.0,1645098851.8125,P10,D03,0,1,1
293,14.0,-2.0,60.0,1645098851.84375,P10,D03,0,1,1
294,14.0,-2.0,60.0,1645098851.875,P10,D03,0,1,1
295,14.0,-2.0,60.0,1645098851.90625,P10,D03,0,1,1
296,14.0,-2.0,60.0,1645098851.9375,P10,D03,0,1,1
297,14.0,-2.0,61.0,1645098851.96875,P10,D03,0,1,1
298,14.0,-2.0,61.0,1645098852.0,P10,D03,0,1,1
299,14.0,-2.0,60.0,1645098852.03125,P10,D03,0,1,1
300,14.0,-2.0,61.0,1645098852.0625,P10,D03,0,1,1
301,14.0,-2.0,60.0,1645098852.09375,P10,D03,0,1,1
302,14.0,-2.0,60.0,1645098852.125,P10,D03,0,1,1
303,14.0,-2.0,61.0,1645098852.15625,P10,D03,0,1,1
304,14.0,-2.0,60.0,1645098852.1875,P10,D03,0,1,1
305,14.0,-2.0,60.0,1645098852.21875,P10,D03,0,1,1
306,14.0,-2.0,60.0,1645098852.25,P10,D03,0,1,1
307,14.0,-2.0,61.0,1645098852.28125,P10,D03,0,1,1
308,14.0,-2.0,60.0,1645098852.3125,P10,D03,0,1,1
309,14.0,-2.0,61.0,1645098852.34375,P10,D03,0,1,1
310,14.0,-2.0,61.0,1645098852.375,P10,D03,0,1,1
311,14.0,-2.0,60.0,1645098852.40625,P10,D03,0,1,1
312,14.0,-2.0,60.0,1645098852.4375,P10,D03,0,1,1
313,14.0,-2.0,61.0,1645098852.46875,P10,D03,0,1,1
314,14.0,-2.0,61.0,1645098852.5,P10,D03,0,1,1
315,14.0,-2.0,61.0,1645098852.53125,P10,D03,0,1,1
316,14.0,-2.0,60.0,1645098852.5625,P10,D03,0,1,1
317,14.0,-2.0,60.0,1645098852.59375,P10,D03,0,1,1
318,14.0,-2.0,60.0,1645098852.625,P10,D03,0,1,1
319,14.0,-2.0,61.0,1645098852.65625,P10,D03,0,1,1
320,14.0,-2.0,60.0,1645098852.6875,P10,D03,0,1,1
321,14.0,-2.0,60.0,1645098852.71875,P10,D03,0,1,1
322,14.0,-2.0,60.0,1645098852.75,P10,D03,0,1,1
323,14.0,-2.0,60.0,1645098852.78125,P10,D03,0,1,1
324,14.0,-2.0,61.0,1645098852.8125,P10,D03,0,1,1
325,14.0,-2.0,60.0,1645098852.84375,P10,D03,0,1,1
326,14.0,-2.0,61.0,1645098852.875,P10,D03,0,1,1
327,14.0,-2.0,61.0,1645098852.90625,P10,D03,0,1,1
328,14.0,-2.0,60.0,1645098852.9375,P10,D03,0,1,1
329,14.0,-2.0,60.0,1645098852.96875,P10,D03,0,1,1
330,14.0,-2.0,61.0,1645098853.0,P10,D03,0,1,1
331,14.0,-2.0,60.0,1645098853.03125,P10,D03,0,1,1
332,14.0,-2.0,60.0,1645098853.0625,P10,D03,0,1,1
333,14.0,-2.0,61.0,1645098853.09375,P10,D03,0,1,1
334,14.0,-2.0,60.0,1645098853.125,P10,D03,0,1,1
335,14.0,-2.0,61.0,1645098853.15625,P10,D03,0,1,1
336,14.0,-2.0,61.0,1645098853.1875,P10,D03,0,1,1
337,14.0,-2.0,61.0,1645098853.21875,P10,D03,0,1,1
338,14.0,-2.0,61.0,1645098853.25,P10,D03,0,1,1
339,14.0,-2.0,60.0,1645098853.28125,P10,D03,0,1,1
340,14.0,-2.0,61.0,1645098853.3125,P10,D03,0,1,1
341,14.0,-2.0,60.0,1645098853.34375,P10,D03,0,1,1
342,14.0,-2.0,60.0,1645098853.375,P10,D03,0,1,1
343,14.0,-2.0,60.0,1645098853.40625,P10,D03,0,1,1
344,14.0,-2.0,60.0,1645098853.4375,P10,D03,0,1,1
345,14.0,-2.0,60.0,1645098853.46875,P10,D03,0,1,1
346,14.0,-2.0,61.0,1645098853.5,P10,D03,0,1,1
347,14.0,-2.0,60.0,1645098853.53125,P10,D03,0,1,1
348,14.0,-2.0,60.0,1645098853.5625,P10,D03,0,1,1
349,14.0,-2.0,61.0,1645098853.59375,P10,D03,0,1,1
350,14.0,-1.0,60.0,1645098853.625,P10,D03,0,1,1
351,14.0,-2.0,60.0,1645098853.65625,P10,D03,0,1,1
352,14.0,-2.0,60.0,1645098853.6875,P10,D03,0,1,1
353,14.0,-2.0,60.0,1645098853.71875,P10,D03,0,1,1
354,15.0,-2.0,60.0,1645098853.75,P10,D03,0,1,1
355,14.0,-2.0,60.0,1645098853.78125,P10,D03,0,1,1
356,14.0,-2.0,61.0,1645098853.8125,P10,D03,0,1,1
357,15.0,-2.0,61.0,1645098853.84375,P10,D03,0,1,1
358,14.0,-2.0,60.0,1645098853.875,P10,D03,0,1,1
359,14.0,-2.0,60.0,1645098853.90625,P10,D03,0,1,1
360,15.0,-2.0,61.0,1645098853.9375,P10,D03,0,1,1
361,15.0,-2.0,60.0,1645098853.96875,P10,D03,0,1,1
362,14.0,-2.0,60.0,1645098854.0,P10,D03,0,1,1
363,14.0,-2.0,60.0,1645098854.03125,P10,D03,0,1,1
364,14.0,-2.0,60.0,1645098854.0625,P10,D03,0,1,1
365,14.0,-2.0,60.0,1645098854.09375,P10,D03,0,1,1
366,14.0,-2.0,60.0,1645098854.125,P10,D03,0,1,1
367,14.0,-2.0,60.0,1645098854.15625,P10,D03,0,1,1
368,14.0,-2.0,61.0,1645098854.1875,P10,D03,0,1,1
369,14.0,-2.0,60.0,1645098854.21875,P10,D03,0,1,1
370,14.0,-2.0,60.0,1645098854.25,P10,D03,0,1,1
371,15.0,-2.0,61.0,1645098854.28125,P10,D03,0,1,1
372,14.0,-2.0,60.0,1645098854.3125,P10,D03,0,1,1
373,14.0,-2.0,60.0,1645098854.34375,P10,D03,0,1,1
374,14.0,-2.0,60.0,1645098854.375,P10,D03,0,1,1
375,14.0,-2.0,60.0,1645098854.40625,P10,D03,0,1,1
376,14.0,-2.0,60.0,1645098854.4375,P10,D03,0,1,1
377,14.0,-2.0,60.0,1645098854.46875,P10,D03,0,1,1
378,14.0,-2.0,60.0,1645098854.5,P10,D03,0,1,1
379,14.0,-2.0,60.0,1645098854.53125,P10,D03,0,1,1
380,14.0,-2.0,60.0,1645098854.5625,P10,D03,0,1,1
381,14.0,-2.0,60.0,1645098854.59375,P10,D03,0,1,1
382,14.0,-2.0,60.0,1645098854.625,P10,D03,0,1,1
383,14.0,-2.0,60.0,1645098854.65625,P10,D03,0,1,1
384,14.0,-2.0,60.0,1645098854.6875,P10,D03,0,1,1
385,14.0,-2.0,60.0,1645098854.71875,P10,D03,0,1,1
386,14.0,-2.0,60.0,1645098854.75,P10,D03,0,1,1
387,14.0,-2.0,60.0,1645098854.78125,P10,D03,0,1,1
388,14.0,-2.0,60.0,1645098854.8125,P10,D03,0,1,1
389,14.0,-2.0,60.0,1645098854.84375,P10,D03,0,1,1
390,14.0,-2.0,61.0,1645098854.875,P10,D03,0,1,1
391,14.0,-2.0,61.0,1645098854.90625,P10,D03,0,1,1
392,14.0,-2.0,60.0,1645098854.9375,P10,D03,0,1,1
393,14.0,-2.0,60.0,1645098854.96875,P10,D03,0,1,1
394,14.0,-2.0,61.0,1645098855.0,P10,D03,0,1,1
395,14.0,-2.0,60.0,1645098855.03125,P10,D03,0,1,1
396,14.0,-2.0,60.0,1645098855.0625,P10,D03,0,1,1
397,14.0,-2.0,60.0,1645098855.09375,P10,D03,0,1,1
398,14.0,-2.0,60.0,1645098855.125,P10,D03,0,1,1
399,14.0,-2.0,60.0,1645098855.15625,P10,D03,0,1,1
400,14.0,-2.0,60.0,1645098855.1875,P10,D03,0,1,1
401,14.0,-2.0,60.0,1645098855.21875,P10,D03,0,1,1
402,14.0,-2.0,60.0,1645098855.25,P10,D03,0,1,1
403,14.0,-2.0,60.0,1645098855.28125,P10,D03,0,1,1
404,14.0,-2.0,60.0,1645098855.3125,P10,D03,0,1,1
405,14.0,-2.0,60.0,1645098855.34375,P10,D03,0,1,1
406,14.0,-2.0,60.0,1645098855.375,P10,D03,0,1,1
407,14.0,-2.0,60.0,1645098855.40625,P10,D03,0,1,1
408,14.0,-2.0,60.0,1645098855.4375,P10,D03,0,1,1
409,14.0,-2.0,60.0,1645098855.46875,P10,D03,0,1,1
410,14.0,-2.0,60.0,1645098855.5,P10,D03,0,1,1
411,14.0,-2.0,60.0,1645098855.53125,P10,D03,0,1,1
412,14.0,-2.0,60.0,1645098855.5625,P10,D03,0,1,1
413,14.0,-2.0,60.0,1645098855.59375,P10,D03,0,1,1
414,14.0,-2.0,60.0,1645098855.625,P10,D03,0,1,1
415,14.0,-2.0,60.0,1645098855.65625,P10,D03,0,1,1
416,14.0,-2.0,60.0,1645098855.6875,P10,D03,0,1,1
417,14.0,-2.0,61.0,1645098855.71875,P10,D03,0,1,1
418,14.0,-1.0,60.0,1645098855.75,P10,D03,0,1,1
419,14.0,-2.0,60.0,1645098855.78125,P10,D03,0,1,1
420,14.0,-2.0,61.0,1645098855.8125,P10,D03,0,1,1
421,14.0,-2.0,61.0,1645098855.84375,P10,D03,0,1,1
422,14.0,-2.0,60.0,1645098855.875,P10,D03,0,1,1
423,14.0,-2.0,61.0,1645098855.90625,P10,D03,0,1,1
424,14.0,-2.0,60.0,1645098855.9375,P10,D03,0,1,1
425,14.0,-2.0,60.0,1645098855.96875,P10,D03,0,1,1
426,14.0,-2.0,60.0,1645098856.0,P10,D03,0,1,1
427,14.0,-2.0,61.0,1645098856.03125,P10,D03,0,1,1
428,14.0,-2.0,60.0,1645098856.0625,P10,D03,0,1,1
429,14.0,-2.0,60.0,1645098856.09375,P10,D03,0,1,1
430,14.0,-2.0,61.0,1645098856.125,P10,D03,0,1,1
431,14.0,-2.0,61.0,1645098856.15625,P10,D03,0,1,1
432,14.0,-2.0,60.0,1645098856.1875,P10,D03,0,1,1
433,14.0,-2.0,60.0,1645098856.21875,P10,D03,0,1,1
434,14.0,-2.0,61.0,1645098856.25,P10,D03,0,1,1
435,14.0,-2.0,60.0,1645098856.28125,P10,D03,0,1,1
436,14.0,-2.0,61.0,1645098856.3125,P10,D03,0,1,1
437,14.0,-2.0,60.0,1645098856.34375,P10,D03,0,1,1
438,14.0,-2.0,60.0,1645098856.375,P10,D03,0,1,1
439,14.0,-2.0,60.0,1645098856.40625,P10,D03,0,1,1
440,14.0,-2.0,60.0,1645098856.4375,P10,D03,0,1,1
441,14.0,-2.0,61.0,1645098856.46875,P10,D03,0,1,1
442,14.0,-2.0,60.0,1645098856.5,P10,D03,0,1,1
443,14.0,-2.0,60.0,1645098856.53125,P10,D03,0,1,1
444,14.0,-2.0,61.0,1645098856.5625,P10,D03,0,1,1
445,14.0,-2.0,60.0,1645098856.59375,P10,D03,0,1,1
446,14.0,-2.0,61.0,1645098856.625,P10,D03,0,1,1
447,14.0,-2.0,60.0,1645098856.65625,P10,D03,0,1,1
448,14.0,-2.0,60.0,1645098856.6875,P10,D03,0,1,1
449,14.0,-2.0,61.0,1645098856.71875,P10,D03,0,1,1
450,14.0,-2.0,60.0,1645098856.75,P10,D03,0,1,1
451,14.0,-2.0,61.0,1645098856.78125,P10,D03,0,1,1
452,14.0,-2.0,60.0,1645098856.8125,P10,D03,0,1,1
453,14.0,-2.0,61.0,1645098856.84375,P10,D03,0,1,1
454,14.0,-2.0,60.0,1645098856.875,P10,D03,0,1,1
455,14.0,-2.0,61.0,1645098856.90625,P10,D03,0,1,1
456,14.0,-2.0,61.0,1645098856.9375,P10,D03,0,1,1
457,14.0,-2.0,60.0,1645098856.96875,P10,D03,0,1,1
458,14.0,-2.0,60.0,1645098857.0,P10,D03,0,1,1
459,14.0,-2.0,61.0,1645098857.03125,P10,D03,0,1,1
460,14.0,-2.0,60.0,1645098857.0625,P10,D03,0,1,1
461,14.0,-2.0,60.0,1645098857.09375,P10,D03,0,1,1
462,14.0,-2.0,61.0,1645098857.125,P10,D03,0,1,1
463,14.0,-2.0,60.0,1645098857.15625,P10,D03,0,1,1
464,14.0,-2.0,60.0,1645098857.1875,P10,D03,0,1,1
465,14.0,-2.0,60.0,1645098857.21875,P10,D03,0,1,1
466,14.0,-2.0,60.0,1645098857.25,P10,D03,0,1,1
467,14.0,-2.0,61.0,1645098857.28125,P10,D03,0,1,1
468,14.0,-2.0,61.0,1645098857.3125,P10,D03,0,1,1
469,14.0,-2.0,60.0,1645098857.34375,P10,D03,0,1,1
470,14.0,-2.0,60.0,1645098857.375,P10,D03,0,1,1
471,14.0,-2.0,60.0,1645098857.40625,P10,D03,0,1,1
472,14.0,-2.0,60.0,1645098857.4375,P10,D03,0,1,1
473,14.0,-2.0,60.0,1645098857.46875,P10,D03,0,1,1
474,14.0,-1.0,61.0,1645098857.5,P10,D03,0,1,1
475,14.0,-2.0,60.0,1645098857.53125,P10,D03,0,1,1
476,14.0,-2.0,60.0,1645098857.5625,P10,D03,0,1,1
477,14.0,-2.0,61.0,1645098857.59375,P10,D03,0,1,1
478,14.0,-2.0,61.0,1645098857.625,P10,D03,0,1,1
479,14.0,-2.0,61.0,1645098857.65625,P10,D03,0,1,1
480,14.0,-2.0,60.0,1645098857.6875,P10,D03,0,1,1
481,14.0,-2.0,61.0,1645098857.71875,P10,D03,0,1,1
482,14.0,-2.0,60.0,1645098857.75,P10,D03,0,1,1
483,14.0,-2.0,60.0,1645098857.78125,P10,D03,0,1,1
484,14.0,-1.0,60.0,1645098857.8125,P10,D03,0,1,1
485,14.0,-2.0,60.0,1645098857.84375,P10,D03,0,1,1
486,14.0,-2.0,60.0,1645098857.875,P10,D03,0,1,1
487,14.0,-2.0,60.0,1645098857.90625,P10,D03,0,1,1
488,14.0,-2.0,60.0,1645098857.9375,P10,D03,0,1,1
489,14.0,-2.0,61.0,1645098857.96875,P10,D03,0,1,1
490,14.0,-2.0,60.0,1645098858.0,P10,D03,0,1,1
491,14.0,-2.0,61.0,1645098858.03125,P10,D03,0,1,1
492,14.0,-2.0,60.0,1645098858.0625,P10,D03,0,1,1
493,14.0,-2.0,60.0,1645098858.09375,P10,D03,0,1,1
494,14.0,-2.0,60.0,1645098858.125,P10,D03,0,1,1
495,14.0,-2.0,61.0,1645098858.15625,P10,D03,0,1,1
496,14.0,-2.0,60.0,1645098858.1875,P10,D03,0,1,1
497,14.0,-2.0,60.0,1645098858.21875,P10,D03,0,1,1
498,14.0,-2.0,61.0,1645098858.25,P10,D03,0,1,1
499,14.0,-2.0,60.0,1645098858.28125,P10,D03,0,1,1
500,14.0,-2.0,60.0,1645098858.3125,P10,D03,0,1,1
501,14.0,-2.0,60.0,1645098858.34375,P10,D03,0,1,1
502,14.0,-2.0,60.0,1645098858.375,P10,D03,0,1,1
503,14.0,-2.0,61.0,1645098858.40625,P10,D03,0,1,1
504,14.0,-2.0,60.0,1645098858.4375,P10,D03,0,1,1
505,14.0,-2.0,60.0,1645098858.46875,P10,D03,0,1,1
506,14.0,-2.0,60.0,1645098858.5,P10,D03,0,1,1
507,14.0,-2.0,60.0,1645098858.53125,P10,D03,0,1,1
508,14.0,-2.0,60.0,1645098858.5625,P10,D03,0,1,1
509,14.0,-2.0,60.0,1645098858.59375,P10,D03,0,1,1
510,14.0,-2.0,61.0,1645098858.625,P10,D03,0,1,1
511,14.0,-2.0,61.0,1645098858.65625,P10,D03,0,1,1
512,14.0,-2.0,60.0,1645098858.6875,P10,D03,0,1,1
513,14.0,-2.0,61.0,1645098858.71875,P10,D03,0,1,1
514,14.0,-2.0,60.0,1645098858.75,P10,D03,0,1,1
515,14.0,-2.0,60.0,1645098858.78125,P10,D03,0,1,1
516,14.0,-2.0,60.0,1645098858.8125,P10,D03,0,1,1
517,14.0,-2.0,60.0,1645098858.84375,P10,D03,0,1,1
518,14.0,-2.0,60.0,1645098858.875,P10,D03,0,1,1
519,15.0,-2.0,61.0,1645098858.90625,P10,D03,0,1,1
520,14.0,-2.0,60.0,1645098858.9375,P10,D03,0,1,1
521,14.0,-2.0,60.0,1645098858.96875,P10,D03,0,1,1
522,14.0,-2.0,60.0,1645098859.0,P10,D03,0,1,1
523,14.0,-2.0,60.0,1645098859.03125,P10,D03,0,1,1
524,15.0,-2.0,60.0,1645098859.0625,P10,D03,0,1,1
525,14.0,-2.0,60.0,1645098859.09375,P10,D03,0,1,1
526,15.0,-2.0,60.0,1645098859.125,P10,D03,0,1,1
527,14.0,-2.0,60.0,1645098859.15625,P10,D03,0,1,1
528,15.0,-2.0,60.0,1645098859.1875,P10,D03,0,1,1
529,15.0,-2.0,60.0,1645098859.21875,P10,D03,0,1,1
530,14.0,-2.0,60.0,1645098859.25,P10,D03,0,1,1
531,15.0,-2.0,60.0,1645098859.28125,P10,D03,0,1,1
532,15.0,-2.0,60.0,1645098859.3125,P10,D03,0,1,1
533,15.0,-2.0,60.0,1645098859.34375,P10,D03,0,1,1
534,15.0,-2.0,60.0,1645098859.375,P10,D03,0,1,1
535,14.0,-2.0,60.0,1645098859.40625,P10,D03,0,1,1
536,14.0,-2.0,60.0,1645098859.4375,P10,D03,0,1,1
537,15.0,-2.0,60.0,1645098859.46875,P10,D03,0,1,1
538,15.0,-2.0,60.0,1645098859.5,P10,D03,0,1,1
539,14.0,-2.0,61.0,1645098859.53125,P10,D03,0,1,1
540,14.0,-2.0,61.0,1645098859.5625,P10,D03,0,1,1
541,15.0,-2.0,60.0,1645098859.59375,P10,D03,0,1,1
542,15.0,-2.0,60.0,1645098859.625,P10,D03,0,1,1
543,14.0,-2.0,60.0,1645098859.65625,P10,D03,0,1,1
544,15.0,-2.0,60.0,1645098859.6875,P10,D03,0,1,1
545,14.0,-2.0,60.0,1645098859.71875,P10,D03,0,1,1
546,15.0,-2.0,60.0,1645098859.75,P10,D03,0,1,1
547,15.0,-2.0,60.0,1645098859.78125,P10,D03,0,1,1
548,14.0,-2.0,60.0,1645098859.8125,P10,D03,0,1,1
549,14.0,-2.0,60.0,1645098859.84375,P10,D03,0,1,1
550,14.0,-2.0,60.0,1645098859.875,P10,D03,0,1,1
551,15.0,-2.0,60.0,1645098859.90625,P10,D03,0,1,1
552,14.0,-2.0,60.0,1645098859.9375,P10,D03,0,1,1
553,15.0,-2.0,60.0,1645098859.96875,P10,D03,0,1,1
554,15.0,-2.0,60.0,1645098860.0,P10,D03,0,1,1
555,14.0,-2.0,61.0,1645098860.03125,P10,D03,0,1,1
556,15.0,-2.0,60.0,1645098860.0625,P10,D03,0,1,1
557,15.0,-2.0,60.0,1645098860.09375,P10,D03,0,1,1
558,15.0,-1.0,60.0,1645098860.125,P10,D03,0,1,1
559,14.0,-2.0,60.0,1645098860.15625,P10,D03,0,1,1
560,14.0,-2.0,60.0,1645098860.1875,P10,D03,0,1,1
561,15.0,-2.0,60.0,1645098860.21875,P10,D03,0,1,1
562,14.0,-2.0,60.0,1645098860.25,P10,D03,0,1,1
563,15.0,-2.0,60.0,1645098860.28125,P10,D03,0,1,1
564,14.0,-2.0,60.0,1645098860.3125,P10,D03,0,1,1
565,15.0,-2.0,60.0,1645098860.34375,P10,D03,0,1,1
566,14.0,-2.0,60.0,1645098860.375,P10,D03,0,1,1
567,14.0,-2.0,60.0,1645098860.40625,P10,D03,0,1,1
568,15.0,-2.0,60.0,1645098860.4375,P10,D03,0,1,1
569,14.0,-2.0,60.0,1645098860.46875,P10,D03,0,1,1
570,14.0,-2.0,60.0,1645098860.5,P10,D03,0,1,1
571,14.0,-2.0,61.0,1645098860.53125,P10,D03,0,1,1
572,15.0,-2.0,60.0,1645098860.5625,P10,D03,0,1,1
573,14.0,-2.0,60.0,1645098860.59375,P10,D03,0,1,1
574,14.0,-2.0,60.0,1645098860.625,P10,D03,0,1,1
575,14.0,-2.0,60.0,1645098860.65625,P10,D03,0,1,1
576,15.0,-2.0,60.0,1645098860.6875,P10,D03,0,1,1
577,14.0,-2.0,60.0,1645098860.71875,P10,D03,0,1,1
578,15.0,-2.0,60.0,1645098860.75,P10,D03,0,1,1
579,14.0,-2.0,60.0,1645098860.78125,P10,D03,0,1,1
580,14.0,-2.0,61.0,1645098860.8125,P10,D03,0,1,1
581,14.0,-2.0,60.0,1645098860.84375,P10,D03,0,1,1
582,15.0,-2.0,60.0,1645098860.875,P10,D03,0,1,1
583,14.0,-2.0,60.0,1645098860.90625,P10,D03,0,1,1
584,14.0,-2.0,60.0,1645098860.9375,P10,D03,0,1,1
585,14.0,-2.0,60.0,1645098860.96875,P10,D03,0,1,1
586,15.0,-2.0,60.0,1645098861.0,P10,D03,0,1,1
587,14.0,-2.0,60.0,1645098861.03125,P10,D03,0,1,1
588,14.0,-2.0,60.0,1645098861.0625,P10,D03,0,1,1
589,14.0,-2.0,60.0,1645098861.09375,P10,D03,0,1,1
590,14.0,-2.0,60.0,1645098861.125,P10,D03,0,1,1
591,14.0,-2.0,60.0,1645098861.15625,P10,D03,0,1,1
592,15.0,-2.0,60.0,1645098861.1875,P10,D03,0,1,1
593,15.0,-2.0,60.0,1645098861.21875,P10,D03,0,1,1
594,14.0,-2.0,60.0,1645098861.25,P10,D03,0,1,1
595,14.0,-2.0,60.0,1645098861.28125,P10,D03,0,1,1
596,15.0,-2.0,60.0,1645098861.3125,P10,D03,0,1,1
597,15.0,-2.0,60.0,1645098861.34375,P10,D03,0,1,1
598,14.0,-2.0,60.0,1645098861.375,P10,D03,0,1,1
599,15.0,-2.0,60.0,1645098861.40625,P10,D03,0,1,1
600,15.0,-2.0,60.0,1645098861.4375,P10,D03,0,1,1
601,15.0,-2.0,60.0,1645098861.46875,P10,D03,0,1,1
602,14.0,-2.0,60.0,1645098861.5,P10,D03,0,1,1
603,15.0,-2.0,60.0,1645098861.53125,P10,D03,0,1,1
604,15.0,-2.0,60.0,1645098861.5625,P10,D03,0,1,1
605,15.0,-2.0,61.0,1645098861.59375,P10,D03,0,1,1
606,15.0,-2.0,60.0,1645098861.625,P10,D03,0,1,1
607,15.0,-2.0,60.0,1645098861.65625,P10,D03,0,1,1
608,15.0,-2.0,60.0,1645098861.6875,P10,D03,0,1,1
609,15.0,-2.0,60.0,1645098861.71875,P10,D03,0,1,1
610,15.0,-2.0,61.0,1645098861.75,P10,D03,0,1,1
611,15.0,-2.0,60.0,1645098861.78125,P10,D03,0,1,1
612,15.0,-2.0,60.0,1645098861.8125,P10,D03,0,1,1
613,15.0,-2.0,60.0,1645098861.84375,P10,D03,0,1,1
614,15.0,-2.0,60.0,1645098861.875,P10,D03,0,1,1
615,15.0,-2.0,60.0,1645098861.90625,P10,D03,0,1,1
616,14.0,-2.0,60.0,1645098861.9375,P10,D03,0,1,1
617,15.0,-2.0,60.0,1645098861.96875,P10,D03,0,1,1
618,15.0,-2.0,60.0,1645098862.0,P10,D03,0,1,1
619,14.0,-2.0,60.0,1645098862.03125,P10,D03,0,1,1
620,14.0,-2.0,60.0,1645098862.0625,P10,D03,0,1,1
621,15.0,-2.0,60.0,1645098862.09375,P10,D03,0,1,1
622,15.0,-2.0,60.0,1645098862.125,P10,D03,0,1,1
623,15.0,-2.0,60.0,1645098862.15625,P10,D03,0,1,1
624,14.0,-2.0,60.0,1645098862.1875,P10,D03,0,1,1
625,14.0,-2.0,60.0,1645098862.21875,P10,D03,0,1,1
626,15.0,-2.0,60.0,1645098862.25,P10,D03,0,1,1
627,15.0,-2.0,60.0,1645098862.28125,P10,D03,0,1,1
628,15.0,-2.0,60.0,1645098862.3125,P10,D03,0,1,1
629,15.0,-2.0,61.0,1645098862.34375,P10,D03,0,1,1
630,14.0,-2.0,60.0,1645098862.375,P10,D03,0,1,1
631,14.0,-2.0,60.0,1645098862.40625,P10,D03,0,1,1
632,15.0,-2.0,60.0,1645098862.4375,P10,D03,0,1,1
633,14.0,-2.0,60.0,1645098862.46875,P10,D03,0,1,1
634,14.0,-2.0,60.0,1645098862.5,P10,D03,0,1,1
635,14.0,-2.0,60.0,1645098862.53125,P10,D03,0,1,1
636,15.0,-2.0,61.0,1645098862.5625,P10,D03,0,1,1
637,14.0,-2.0,60.0,1645098862.59375,P10,D03,0,1,1
638,14.0,-2.0,60.0,1645098862.625,P10,D03,0,1,1
639,14.0,-2.0,60.0,1645098862.65625,P10,D03,0,1,1
640,15.0,-2.0,60.0,1645098862.6875,P10,D03,0,1,1
641,15.0,-2.0,60.0,1645098862.71875,P10,D03,0,1,1
642,15.0,-2.0,60.0,1645098862.75,P10,D03,0,1,1
643,14.0,-2.0,60.0,1645098862.78125,P10,D03,0,1,1
644,14.0,-2.0,60.0,1645098862.8125,P10,D03,0,1,1
645,15.0,-2.0,61.0,1645098862.84375,P10,D03,0,1,1
646,14.0,-2.0,60.0,1645098862.875,P10,D03,0,1,1
647,14.0,-2.0,60.0,1645098862.90625,P10,D03,0,1,1
648,14.0,-2.0,60.0,1645098862.9375,P10,D03,0,1,1
649,14.0,-2.0,60.0,1645098862.96875,P10,D03,0,1,1
650,15.0,-2.0,60.0,1645098863.0,P10,D03,0,1,1
651,15.0,-2.0,60.0,1645098863.03125,P10,D03,0,1,1
652,14.0,-2.0,60.0,1645098863.0625,P10,D03,0,1,1
653,15.0,-2.0,60.0,1645098863.09375,P10,D03,0,1,1
654,14.0,-2.0,60.0,1645098863.125,P10,D03,0,1,1
655,14.0,-2.0,60.0,1645098863.15625,P10,D03,0,1,1
656,14.0,-2.0,60.0,1645098863.1875,P10,D03,0,1,1
657,14.0,-2.0,60.0,1645098863.21875,P10,D03,0,1,1
658,15.0,-2.0,60.0,1645098863.25,P10,D03,0,1,1
659,14.0,-2.0,60.0,1645098863.28125,P10,D03,0,1,1
660,14.0,-2.0,60.0,1645098863.3125,P10,D03,0,1,1
661,15.0,-2.0,61.0,1645098863.34375,P10,D03,0,1,1
662,15.0,-2.0,61.0,1645098863.375,P10,D03,0,1,1
663,15.0,-2.0,60.0,1645098863.40625,P10,D03,0,1,1
664,14.0,-2.0,61.0,1645098863.4375,P10,D03,0,1,1
665,15.0,-2.0,60.0,1645098863.46875,P10,D03,0,1,1
666,15.0,-2.0,60.0,1645098863.5,P10,D03,0,1,1
667,14.0,-2.0,60.0,1645098863.53125,P10,D03,0,1,1
668,15.0,-2.0,61.0,1645098863.5625,P10,D03,0,1,1
669,14.0,-2.0,60.0,1645098863.59375,P10,D03,0,1,1
670,15.0,-2.0,60.0,1645098863.625,P10,D03,0,1,1
671,15.0,-2.0,60.0,1645098863.65625,P10,D03,0,1,1
672,15.0,-2.0,61.0,1645098863.6875,P10,D03,0,1,1
673,15.0,-2.0,60.0,1645098863.71875,P10,D03,0,1,1
674,15.0,-2.0,60.0,1645098863.75,P10,D03,0,1,1
675,14.0,-2.0,60.0,1645098863.78125,P10,D03,0,1,1
676,14.0,-2.0,60.0,1645098863.8125,P10,D03,0,1,1
677,15.0,-2.0,60.0,1645098863.84375,P10,D03,0,1,1
678,14.0,-2.0,60.0,1645098863.875,P10,D03,0,1,1
679,15.0,-2.0,60.0,1645098863.90625,P10,D03,0,1,1
680,15.0,-2.0,60.0,1645098863.9375,P10,D03,0,1,1
681,14.0,-2.0,60.0,1645098863.96875,P10,D03,0,1,1
682,15.0,-2.0,60.0,1645098864.0,P10,D03,0,1,1
683,14.0,-2.0,60.0,1645098864.03125,P10,D03,0,1,1
684,15.0,-2.0,60.0,1645098864.0625,P10,D03,0,1,1
685,14.0,-2.0,60.0,1645098864.09375,P10,D03,0,1,1
686,14.0,-2.0,60.0,1645098864.125,P10,D03,0,1,1
687,14.0,-2.0,60.0,1645098864.15625,P10,D03,0,1,1
688,15.0,-2.0,60.0,1645098864.1875,P10,D03,0,1,1
689,14.0,-2.0,60.0,1645098864.21875,P10,D03,0,1,1
690,15.0,-2.0,60.0,1645098864.25,P10,D03,0,1,1
691,14.0,-2.0,60.0,1645098864.28125,P10,D03,0,1,1
692,15.0,-2.0,60.0,1645098864.3125,P10,D03,0,1,1
693,14.0,-2.0,60.0,1645098864.34375,P10,D03,0,1,1
694,15.0,-2.0,60.0,1645098864.375,P10,D03,0,1,1
695,15.0,-2.0,60.0,1645098864.40625,P10,D03,0,1,1
696,14.0,-2.0,60.0,1645098864.4375,P10,D03,0,1,1
697,14.0,-2.0,60.0,1645098864.46875,P10,D03,0,1,1
698,14.0,-2.0,60.0,1645098864.5,P10,D03,0,1,1
699,15.0,-2.0,60.0,1645098864.53125,P10,D03,0,1,1
700,14.0,-2.0,60.0,1645098864.5625,P10,D03,0,1,1
701,14.0,-2.0,60.0,1645098864.59375,P10,D03,0,1,1
702,15.0,-2.0,60.0,1645098864.625,P10,D03,0,1,1
703,15.0,-2.0,60.0,1645098864.65625,P10,D03,0,1,1
704,14.0,-2.0,60.0,1645098864.6875,P10,D03,0,1,1
705,14.0,-2.0,60.0,1645098864.71875,P10,D03,0,1,1
706,14.0,-2.0,60.0,1645098864.75,P10,D03,0,1,1
707,14.0,-2.0,60.0,1645098864.78125,P10,D03,0,1,1
708,15.0,-2.0,60.0,1645098864.8125,P10,D03,0,1,1
709,15.0,-2.0,60.0,1645098864.84375,P10,D03,0,1,1
710,14.0,-2.0,60.0,1645098864.875,P10,D03,0,1,1
711,15.0,-2.0,60.0,1645098864.90625,P10,D03,0,1,1
712,15.0,-2.0,60.0,1645098864.9375,P10,D03,0,1,1
713,15.0,-2.0,60.0,1645098864.96875,P10,D03,0,1,1
714,15.0,-2.0,60.0,1645098865.0,P10,D03,0,1,1
715,14.0,-2.0,60.0,1645098865.03125,P10,D03,0,1,1
716,15.0,-2.0,60.0,1645098865.0625,P10,D03,0,1,1
717,15.0,-2.0,60.0,1645098865.09375,P10,D03,0,1,1
718,14.0,-2.0,60.0,1645098865.125,P10,D03,0,1,1
719,15.0,-2.0,60.0,1645098865.15625,P10,D03,0,1,1
720,15.0,-2.0,60.0,1645098865.1875,P10,D03,0,1,1
721,15.0,-2.0,60.0,1645098865.21875,P10,D03,0,1,1
722,15.0,-2.0,60.0,1645098865.25,P10,D03,0,1,1
723,15.0,-2.0,60.0,1645098865.28125,P10,D03,0,1,1
724,15.0,-2.0,60.0,1645098865.3125,P10,D03,0,1,1
725,15.0,-2.0,60.0,1645098865.34375,P10,D03,0,1,1
726,15.0,-2.0,60.0,1645098865.375,P10,D03,0,1,1
727,15.0,-2.0,60.0,1645098865.40625,P10,D03,0,1,1
728,14.0,-2.0,60.0,1645098865.4375,P10,D03,0,1,1
729,15.0,-2.0,60.0,1645098865.46875,P10,D03,0,1,1
730,14.0,-2.0,60.0,1645098865.5,P10,D03,0,1,1
731,14.0,-2.0,60.0,1645098865.53125,P10,D03,0,1,1
732,15.0,-2.0,60.0,1645098865.5625,P10,D03,0,1,1
733,15.0,-2.0,60.0,1645098865.59375,P10,D03,0,1,1
734,15.0,-2.0,60.0,1645098865.625,P10,D03,0,1,1
735,15.0,-2.0,60.0,1645098865.65625,P10,D03,0,1,1
736,15.0,-2.0,60.0,1645098865.6875,P10,D03,0,1,1
737,14.0,-2.0,60.0,1645098865.71875,P10,D03,0,1,1
738,15.0,-2.0,60.0,1645098865.75,P10,D03,0,1,1
739,15.0,-2.0,60.0,1645098865.78125,P10,D03,0,1,1
740,15.0,-2.0,60.0,1645098865.8125,P10,D03,0,1,1
741,14.0,-2.0,60.0,1645098865.84375,P10,D03,0,1,1
742,15.0,-2.0,60.0,1645098865.875,P10,D03,0,1,1
743,15.0,-2.0,60.0,1645098865.90625,P10,D03,0,1,1
744,15.0,-2.0,60.0,1645098865.9375,P10,D03,0,1,1
745,14.0,-2.0,60.0,1645098865.96875,P10,D03,0,1,1
746,14.0,-2.0,60.0,1645098866.0,P10,D03,0,1,1
747,15.0,-2.0,60.0,1645098866.03125,P10,D03,0,1,1
748,15.0,-2.0,60.0,1645098866.0625,P10,D03,0,1,1
749,15.0,-2.0,60.0,1645098866.09375,P10,D03,0,1,1
750,14.0,-2.0,60.0,1645098866.125,P10,D03,0,1,1
751,14.0,-2.0,60.0,1645098866.15625,P10,D03,0,1,1
752,15.0,-2.0,60.0,1645098866.1875,P10,D03,0,1,1
753,15.0,-2.0,60.0,1645098866.21875,P10,D03,0,1,1
754,14.0,-2.0,60.0,1645098866.25,P10,D03,0,1,1
755,15.0,-2.0,60.0,1645098866.28125,P10,D03,0,1,1
756,15.0,-2.0,60.0,1645098866.3125,P10,D03,0,1,1
757,15.0,-2.0,60.0,1645098866.34375,P10,D03,0,1,1
758,15.0,-2.0,60.0,1645098866.375,P10,D03,0,1,1
759,14.0,-2.0,60.0,1645098866.40625,P10,D03,0,1,1
760,14.0,-2.0,60.0,1645098866.4375,P10,D03,0,1,1
761,15.0,-2.0,60.0,1645098866.46875,P10,D03,0,1,1
762,15.0,-2.0,60.0,1645098866.5,P10,D03,0,1,1
763,15.0,-2.0,60.0,1645098866.53125,P10,D03,0,1,1
764,15.0,-2.0,60.0,1645098866.5625,P10,D03,0,1,1
765,15.0,-2.0,60.0,1645098866.59375,P10,D03,0,1,1
766,15.0,-2.0,60.0,1645098866.625,P10,D03,0,1,1
767,15.0,-2.0,60.0,1645098866.65625,P10,D03,0,1,1
768,15.0,-2.0,60.0,1645098866.6875,P10,D03,0,1,1
769,14.0,-2.0,60.0,1645098866.71875,P10,D03,0,1,1
770,14.0,-2.0,60.0,1645098866.75,P10,D03,0,1,1
771,15.0,-2.0,60.0,1645098866.78125,P10,D03,0,1,1
772,15.0,-2.0,60.0,1645098866.8125,P10,D03,0,1,1
773,14.0,-2.0,60.0,1645098866.84375,P10,D03,0,1,1
774,15.0,-2.0,60.0,1645098866.875,P10,D03,0,1,1
775,15.0,-2.0,60.0,1645098866.90625,P10,D03,0,1,1
776,15.0,-2.0,60.0,1645098866.9375,P10,D03,0,1,1
777,14.0,-2.0,60.0,1645098866.96875,P10,D03,0,1,1
778,15.0,-2.0,60.0,1645098867.0,P10,D03,0,1,1
779,14.0,-2.0,60.0,1645098867.03125,P10,D03,0,1,1
780,15.0,-2.0,60.0,1645098867.0625,P10,D03,0,1,1
781,15.0,-2.0,60.0,1645098867.09375,P10,D03,0,1,1
782,14.0,-2.0,60.0,1645098867.125,P10,D03,0,1,1
783,15.0,-2.0,60.0,1645098867.15625,P10,D03,0,1,1
784,15.0,-2.0,60.0,1645098867.1875,P10,D03,0,1,1
785,15.0,-2.0,60.0,1645098867.21875,P10,D03,0,1,1
786,15.0,-2.0,60.0,1645098867.25,P10,D03,0,1,1
787,14.0,-2.0,60.0,1645098867.28125,P10,D03,0,1,1
788,15.0,-2.0,60.0,1645098867.3125,P10,D03,0,1,1
789,15.0,-2.0,60.0,1645098867.34375,P10,D03,0,1,1
790,15.0,-2.0,60.0,1645098867.375,P10,D03,0,1,1
791,14.0,-2.0,60.0,1645098867.40625,P10,D03,0,1,1
792,15.0,-2.0,60.0,1645098867.4375,P10,D03,0,1,1
793,15.0,-2.0,60.0,1645098867.46875,P10,D03,0,1,1
794,15.0,-2.0,60.0,1645098867.5,P10,D03,0,1,1
795,15.0,-2.0,60.0,1645098867.53125,P10,D03,0,1,1
796,15.0,-2.0,60.0,1645098867.5625,P10,D03,0,1,1
797,15.0,-2.0,60.0,1645098867.59375,P10,D03,0,1,1
798,15.0,-2.0,60.0,1645098867.625,P10,D03,0,1,1
799,15.0,-2.0,60.0,1645098867.65625,P10,D03,0,1,1
800,15.0,-2.0,61.0,1645098867.6875,P10,D03,0,1,1
801,13.0,-2.0,59.0,1645098867.71875,P10,D03,0,1,1
802,15.0,-1.0,60.0,1645098867.75,P10,D03,0,1,1
803,14.0,-2.0,60.0,1645098867.78125,P10,D03,0,1,1
804,15.0,-2.0,60.0,1645098867.8125,P10,D03,0,1,1
805,15.0,-2.0,60.0,1645098867.84375,P10,D03,0,1,1
806,14.0,-2.0,60.0,1645098867.875,P10,D03,0,1,1
807,15.0,-2.0,60.0,1645098867.90625,P10,D03,0,1,1
808,14.0,-2.0,60.0,1645098867.9375,P10,D03,0,1,1
809,15.0,-2.0,61.0,1645098867.96875,P10,D03,0,1,1
810,15.0,-2.0,60.0,1645098868.0,P10,D03,0,1,1
811,14.0,-2.0,60.0,1645098868.03125,P10,D03,0,1,1
812,14.0,-2.0,60.0,1645098868.0625,P10,D03,0,1,1
813,15.0,-2.0,60.0,1645098868.09375,P10,D03,0,1,1
814,14.0,-2.0,61.0,1645098868.125,P10,D03,0,1,1
815,15.0,-2.0,61.0,1645098868.15625,P10,D03,0,1,1
816,14.0,-2.0,60.0,1645098868.1875,P10,D03,0,1,1
817,15.0,-2.0,61.0,1645098868.21875,P10,D03,0,1,1
818,14.0,-2.0,60.0,1645098868.25,P10,D03,0,1,1
819,15.0,-2.0,60.0,1645098868.28125,P10,D03,0,1,1
820,15.0,-2.0,60.0,1645098868.3125,P10,D03,0,1,1
821,15.0,-2.0,60.0,1645098868.34375,P10,D03,0,1,1
822,15.0,-2.0,60.0,1645098868.375,P10,D03,0,1,1
823,15.0,-2.0,60.0,1645098868.40625,P10,D03,0,1,1
824,15.0,-2.0,60.0,1645098868.4375,P10,D03,0,1,1
825,15.0,-2.0,60.0,1645098868.46875,P10,D03,0,1,1
826,14.0,-2.0,60.0,1645098868.5,P10,D03,0,1,1
827,15.0,-2.0,60.0,1645098868.53125,P10,D03,0,1,1
828,14.0,-2.0,60.0,1645098868.5625,P10,D03,0,1,1
829,15.0,-2.0,60.0,1645098868.59375,P10,D03,0,1,1
830,15.0,-2.0,60.0,1645098868.625,P10,D03,0,1,1
831,15.0,-2.0,60.0,1645098868.65625,P10,D03,0,1,1
832,15.0,-2.0,60.0,1645098868.6875,P10,D03,0,1,1
833,14.0,-2.0,60.0,1645098868.71875,P10,D03,0,1,1
834,14.0,-2.0,60.0,1645098868.75,P10,D03,0,1,1
835,14.0,-2.0,60.0,1645098868.78125,P10,D03,0,1,1
836,14.0,-2.0,60.0,1645098868.8125,P10,D03,0,1,1
837,15.0,-2.0,60.0,1645098868.84375,P10,D03,0,1,1
838,15.0,-2.0,60.0,1645098868.875,P10,D03,0,1,1
839,15.0,-2.0,60.0,1645098868.90625,P10,D03,0,1,1
840,15.0,-2.0,60.0,1645098868.9375,P10,D03,0,1,1
841,15.0,-2.0,60.0,1645098868.96875,P10,D03,0,1,1
842,14.0,-2.0,60.0,1645098869.0,P10,D03,0,1,1
843,15.0,-2.0,60.0,1645098869.03125,P10,D03,0,1,1
844,15.0,-2.0,60.0,1645098869.0625,P10,D03,0,1,1
845,14.0,-2.0,60.0,1645098869.09375,P10,D03,0,1,1
846,14.0,-2.0,60.0,1645098869.125,P10,D03,0,1,1
847,14.0,-2.0,60.0,1645098869.15625,P10,D03,0,1,1
848,14.0,-2.0,60.0,1645098869.1875,P10,D03,0,1,1
849,14.0,-2.0,60.0,1645098869.21875,P10,D03,0,1,1
850,14.0,-2.0,60.0,1645098869.25,P10,D03,0,1,1
851,15.0,-2.0,60.0,1645098869.28125,P10,D03,0,1,1
852,15.0,-2.0,60.0,1645098869.3125,P10,D03,0,1,1
853,14.0,-2.0,60.0,1645098869.34375,P10,D03,0,1,1
854,14.0,-2.0,61.0,1645098869.375,P10,D03,0,1,1
855,15.0,-2.0,60.0,1645098869.40625,P10,D03,0,1,1
856,15.0,-2.0,60.0,1645098869.4375,P10,D03,0,1,1
857,15.0,-2.0,60.0,1645098869.46875,P10,D03,0,1,1
858,15.0,-2.0,60.0,1645098869.5,P10,D03,0,1,1
859,15.0,-2.0,60.0,1645098869.53125,P10,D03,0,1,1
860,15.0,-2.0,60.0,1645098869.5625,P10,D03,0,1,1
861,15.0,-2.0,60.0,1645098869.59375,P10,D03,0,1,1
862,15.0,-2.0,60.0,1645098869.625,P10,D03,0,1,1
863,15.0,-2.0,60.0,1645098869.65625,P10,D03,0,1,1
864,14.0,-2.0,60.0,1645098869.6875,P10,D03,0,1,1
865,15.0,-2.0,60.0,1645098869.71875,P10,D03,0,1,1
866,14.0,-2.0,60.0,1645098869.75,P10,D03,0,1,1
867,14.0,-2.0,60.0,1645098869.78125,P10,D03,0,1,1
868,15.0,-2.0,60.0,1645098869.8125,P10,D03,0,1,1
869,15.0,-2.0,60.0,1645098869.84375,P10,D03,0,1,1
870,15.0,-2.0,60.0,1645098869.875,P10,D03,0,1,1
871,14.0,-2.0,60.0,1645098869.90625,P10,D03,0,1,1
872,14.0,-2.0,60.0,1645098869.9375,P10,D03,0,1,1
873,15.0,-2.0,60.0,1645098869.96875,P10,D03,0,1,1
874,15.0,-2.0,60.0,1645098870.0,P10,D03,0,1,1
875,15.0,-2.0,60.0,1645098870.03125,P10,D03,0,1,1
876,14.0,-2.0,60.0,1645098870.0625,P10,D03,0,1,1
877,14.0,-2.0,60.0,1645098870.09375,P10,D03,0,1,1
878,15.0,-2.0,60.0,1645098870.125,P10,D03,0,1,1
879,14.0,-2.0,60.0,1645098870.15625,P10,D03,0,1,1
880,14.0,-2.0,60.0,1645098870.1875,P10,D03,0,1,1
881,15.0,-2.0,60.0,1645098870.21875,P10,D03,0,1,1
882,14.0,-2.0,60.0,1645098870.25,P10,D03,0,1,1
883,14.0,-2.0,60.0,1645098870.28125,P10,D03,0,1,1
884,14.0,-2.0,60.0,1645098870.3125,P10,D03,0,1,1
885,14.0,-2.0,60.0,1645098870.34375,P10,D03,0,1,1
886,14.0,-2.0,61.0,1645098870.375,P10,D03,0,1,1
887,14.0,-2.0,60.0,1645098870.40625,P10,D03,0,1,1
888,14.0,-2.0,60.0,1645098870.4375,P10,D03,0,1,1
889,14.0,-2.0,60.0,1645098870.46875,P10,D03,0,1,1
890,14.0,-2.0,60.0,1645098870.5,P10,D03,0,1,1
891,14.0,-2.0,61.0,1645098870.53125,P10,D03,0,1,1
892,14.0,-2.0,60.0,1645098870.5625,P10,D03,0,1,1
893,14.0,-2.0,60.0,1645098870.59375,P10,D03,0,1,1
894,14.0,-2.0,60.0,1645098870.625,P10,D03,0,1,1
895,14.0,-2.0,61.0,1645098870.65625,P10,D03,0,1,1
896,14.0,-2.0,61.0,1645098870.6875,P10,D03,0,1,1
897,14.0,-2.0,60.0,1645098870.71875,P10,D03,0,1,1
898,14.0,-2.0,60.0,1645098870.75,P10,D03,0,1,1
899,14.0,-2.0,60.0,1645098870.78125,P10,D03,0,1,1
900,14.0,-2.0,61.0,1645098870.8125,P10,D03,0,1,1
901,14.0,-2.0,60.0,1645098870.84375,P10,D03,0,1,1
902,14.0,-2.0,60.0,1645098870.875,P10,D03,0,1,1
903,14.0,-2.0,60.0,1645098870.90625,P10,D03,0,1,1
904,14.0,-2.0,61.0,1645098870.9375,P10,D03,0,1,1
905,14.0,-2.0,61.0,1645098870.96875,P10,D03,0,1,1
906,14.0,-2.0,60.0,1645098871.0,P10,D03,0,1,1
907,14.0,-2.0,61.0,1645098871.03125,P10,D03,0,1,1
908,14.0,-2.0,61.0,1645098871.0625,P10,D03,0,1,1
909,14.0,-2.0,60.0,1645098871.09375,P10,D03,0,1,1
910,14.0,-2.0,61.0,1645098871.125,P10,D03,0,1,1
911,14.0,-2.0,60.0,1645098871.15625,P10,D03,0,1,1
912,14.0,-2.0,60.0,1645098871.1875,P10,D03,0,1,1
913,14.0,-2.0,60.0,1645098871.21875,P10,D03,0,1,1
914,14.0,-2.0,60.0,1645098871.25,P10,D03,0,1,1
915,14.0,-2.0,60.0,1645098871.28125,P10,D03,0,1,1
916,14.0,-2.0,60.0,1645098871.3125,P10,D03,0,1,1
917,15.0,-2.0,61.0,1645098871.34375,P10,D03,0,1,1
918,14.0,-2.0,60.0,1645098871.375,P10,D03,0,1,1
919,15.0,-2.0,60.0,1645098871.40625,P10,D03,0,1,1
920,14.0,-2.0,60.0,1645098871.4375,P10,D03,0,1,1
921,14.0,-2.0,61.0,1645098871.46875,P10,D03,0,1,1
922,14.0,-2.0,60.0,1645098871.5,P10,D03,0,1,1
923,14.0,-2.0,60.0,1645098871.53125,P10,D03,0,1,1
924,15.0,-2.0,60.0,1645098871.5625,P10,D03,0,1,1
925,14.0,-2.0,60.0,1645098871.59375,P10,D03,0,1,1
926,14.0,-2.0,60.0,1645098871.625,P10,D03,0,1,1
927,14.0,-2.0,61.0,1645098871.65625,P10,D03,0,1,1
928,14.0,-2.0,61.0,1645098871.6875,P10,D03,0,1,1
929,14.0,-2.0,60.0,1645098871.71875,P10,D03,0,1,1
930,14.0,-2.0,60.0,1645098871.75,P10,D03,0,1,1
931,15.0,-2.0,61.0,1645098871.78125,P10,D03,0,1,1
932,14.0,-2.0,60.0,1645098871.8125,P10,D03,0,1,1
933,15.0,-2.0,60.0,1645098871.84375,P10,D03,0,1,1
934,14.0,-2.0,61.0,1645098871.875,P10,D03,0,1,1
935,14.0,-2.0,60.0,1645098871.90625,P10,D03,0,1,1
936,14.0,-2.0,60.0,1645098871.9375,P10,D03,0,1,1
937,14.0,-2.0,60.0,1645098871.96875,P10,D03,0,1,1
938,15.0,-2.0,60.0,1645098872.0,P10,D03,0,1,1
939,14.0,-2.0,60.0,1645098872.03125,P10,D03,0,1,1
940,15.0,-2.0,60.0,1645098872.0625,P10,D03,0,1,1
941,14.0,-2.0,60.0,1645098872.09375,P10,D03,0,1,1
942,15.0,-2.0,60.0,1645098872.125,P10,D03,0,1,1
943,14.0,-2.0,60.0,1645098872.15625,P10,D03,0,1,1
944,14.0,-2.0,60.0,1645098872.1875,P10,D03,0,1,1
945,14.0,-2.0,61.0,1645098872.21875,P10,D03,0,1,1
946,14.0,-2.0,60.0,1645098872.25,P10,D03,0,1,1
947,14.0,-2.0,60.0,1645098872.28125,P10,D03,0,1,1
948,14.0,-2.0,60.0,1645098872.3125,P10,D03,0,1,1
949,14.0,-2.0,60.0,1645098872.34375,P10,D03,0,1,1
950,14.0,-2.0,60.0,1645098872.375,P10,D03,0,1,1
951,15.0,-2.0,60.0,1645098872.40625,P10,D03,0,1,1
952,14.0,-2.0,60.0,1645098872.4375,P10,D03,0,1,1
953,14.0,-2.0,60.0,1645098872.46875,P10,D03,0,1,1
954,14.0,-2.0,60.0,1645098872.5,P10,D03,0,1,1
955,14.0,-2.0,60.0,1645098872.53125,P10,D03,0,1,1
956,14.0,-2.0,60.0,1645098872.5625,P10,D03,0,1,1
957,14.0,-2.0,60.0,1645098872.59375,P10,D03,0,1,1
958,14.0,-2.0,60.0,1645098872.625,P10,D03,0,1,1
959,14.0,-2.0,60.0,1645098872.65625,P10,D03,0,1,1
960,14.0,-2.0,60.0,1645098872.6875,P10,D03,0,1,1
961,14.0,-2.0,60.0,1645098872.71875,P10,D03,0,1,1
962,14.0,-2.0,60.0,1645098872.75,P10,D03,0,1,1
963,14.0,-2.0,61.0,1645098872.78125,P10,D03,0,1,1
964,14.0,-2.0,60.0,1645098872.8125,P10,D03,0,1,1
965,14.0,-2.0,60.0,1645098872.84375,P10,D03,0,1,1
966,15.0,-2.0,60.0,1645098872.875,P10,D03,0,1,1
967,14.0,-2.0,60.0,1645098872.90625,P10,D03,0,1,1
968,15.0,-2.0,60.0,1645098872.9375,P10,D03,0,1,1
969,15.0,-2.0,60.0,1645098872.96875,P10,D03,0,1,1
970,15.0,-2.0,61.0,1645098873.0,P10,D03,0,1,1
971,14.0,-2.0,60.0,1645098873.03125,P10,D03,0,1,1
972,15.0,-2.0,60.0,1645098873.0625,P10,D03,0,1,1
973,15.0,-2.0,60.0,1645098873.09375,P10,D03,0,1,1
974,15.0,-2.0,60.0,1645098873.125,P10,D03,0,1,1
975,15.0,-2.0,60.0,1645098873.15625,P10,D03,0,1,1
976,15.0,-2.0,60.0,1645098873.1875,P10,D03,0,1,1
977,15.0,-2.0,60.0,1645098873.21875,P10,D03,0,1,1
978,15.0,-2.0,60.0,1645098873.25,P10,D03,0,1,1
979,15.0,-1.0,60.0,1645098873.28125,P10,D03,0,1,1
980,14.0,-2.0,60.0,1645098873.3125,P10,D03,0,1,1
981,14.0,-2.0,60.0,1645098873.34375,P10,D03,0,1,1
982,14.0,-2.0,60.0,1645098873.375,P10,D03,0,1,1
983,15.0,-2.0,60.0,1645098873.40625,P10,D03,0,1,1
984,14.0,-2.0,60.0,1645098873.4375,P10,D03,0,1,1
985,14.0,-2.0,60.0,1645098873.46875,P10,D03,0,1,1
986,15.0,-2.0,60.0,1645098873.5,P10,D03,0,1,1
987,15.0,-2.0,60.0,1645098873.53125,P10,D03,0,1,1
988,15.0,-2.0,60.0,1645098873.5625,P10,D03,0,1,1
989,14.0,-1.0,60.0,1645098873.59375,P10,D03,0,1,1
990,14.0,-2.0,60.0,1645098873.625,P10,D03,0,1,1
991,14.0,-2.0,60.0,1645098873.65625,P10,D03,0,1,1
992,15.0,-2.0,60.0,1645098873.6875,P10,D03,0,1,1
993,14.0,-2.0,60.0,1645098873.71875,P10,D03,0,1,1
994,14.0,-2.0,60.0,1645098873.75,P10,D03,0,1,1
995,15.0,-2.0,60.0,1645098873.78125,P10,D03,0,1,1
996,14.0,-2.0,60.0,1645098873.8125,P10,D03,0,1,1
997,15.0,-2.0,60.0,1645098873.84375,P10,D03,0,1,1
998,14.0,-2.0,60.0,1645098873.875,P10,D03,0,1,1
999,14.0,-2.0,60.0,1645098873.90625,P10,D03,0,1,1
1000,15.0,-2.0,61.0,1645098873.9375,P10,D03,0,1,1
1001,15.0,-2.0,60.0,1645098873.96875,P10,D03,0,1,1
1002,14.0,-2.0,60.0,1645098874.0,P10,D03,0,1,1
1003,14.0,-2.0,60.0,1645098874.03125,P10,D03,0,1,1
1004,15.0,-2.0,60.0,1645098874.0625,P10,D03,0,1,1
1005,15.0,-2.0,60.0,1645098874.09375,P10,D03,0,1,1
1006,15.0,-2.0,60.0,1645098874.125,P10,D03,0,1,1
1007,14.0,-2.0,60.0,1645098874.15625,P10,D03,0,1,1
1008,15.0,-2.0,60.0,1645098874.1875,P10,D03,0,1,1
1009,15.0,-2.0,60.0,1645098874.21875,P10,D03,0,1,1
1010,15.0,-2.0,60.0,1645098874.25,P10,D03,0,1,1
1011,15.0,-2.0,60.0,1645098874.28125,P10,D03,0,1,1
1012,15.0,-2.0,60.0,1645098874.3125,P10,D03,0,1,1
1013,14.0,-2.0,60.0,1645098874.34375,P10,D03,0,1,1
1014,15.0,-2.0,60.0,1645098874.375,P10,D03,0,1,1
1015,14.0,-2.0,60.0,1645098874.40625,P10,D03,0,1,1
1016,14.0,-2.0,60.0,1645098874.4375,P10,D03,0,1,1
1017,15.0,-2.0,60.0,1645098874.46875,P10,D03,0,1,1
1018,15.0,-2.0,60.0,1645098874.5,P10,D03,0,1,1
1019,15.0,-2.0,60.0,1645098874.53125,P10,D03,0,1,1
1020,14.0,-2.0,60.0,1645098874.5625,P10,D03,0,1,1
1021,15.0,-2.0,60.0,1645098874.59375,P10,D03,0,1,1
1022,15.0,-2.0,60.0,1645098874.625,P10,D03,0,1,1
1023,15.0,-2.0,60.0,1645098874.65625,P10,D03,0,1,1
1024,15.0,-2.0,60.0,1645098874.6875,P10,D03,0,1,1
1025,14.0,-2.0,60.0,1645098874.71875,P10,D03,0,1,1
1026,15.0,-2.0,60.0,1645098874.75,P10,D03,0,1,1
1027,15.0,-2.0,60.0,1645098874.78125,P10,D03,0,1,1
1028,15.0,-2.0,60.0,1645098874.8125,P10,D03,0,1,1
1029,14.0,-2.0,60.0,1645098874.84375,P10,D03,0,1,1
1030,15.0,-2.0,60.0,1645098874.875,P10,D03,0,1,1
1031,15.0,-2.0,60.0,1645098874.90625,P10,D03,0,1,1
1032,15.0,-2.0,60.0,1645098874.9375,P10,D03,0,1,1
1033,15.0,-2.0,60.0,1645098874.96875,P10,D03,0,1,1
1034,15.0,-2.0,60.0,1645098875.0,P10,D03,0,1,1
1035,15.0,-2.0,60.0,1645098875.03125,P10,D03,0,1,1
1036,15.0,-2.0,60.0,1645098875.0625,P10,D03,0,1,1
1037,15.0,-2.0,60.0,1645098875.09375,P10,D03,0,1,1
1038,15.0,-2.0,60.0,1645098875.125,P10,D03,0,1,1
1039,15.0,-2.0,60.0,1645098875.15625,P10,D03,0,1,1
1040,15.0,-2.0,60.0,1645098875.1875,P10,D03,0,1,1
1041,15.0,-2.0,60.0,1645098875.21875,P10,D03,0,1,1
1042,15.0,-2.0,60.0,1645098875.25,P10,D03,0,1,1
1043,14.0,-2.0,60.0,1645098875.28125,P10,D03,0,1,1
1044,15.0,-2.0,60.0,1645098875.3125,P10,D03,0,1,1
1045,15.0,-2.0,60.0,1645098875.34375,P10,D03,0,1,1
1046,15.0,-2.0,60.0,1645098875.375,P10,D03,0,1,1
1047,14.0,-2.0,60.0,1645098875.40625,P10,D03,0,1,1
1048,15.0,-2.0,60.0,1645098875.4375,P10,D03,0,1,1
1049,15.0,-2.0,60.0,1645098875.46875,P10,D03,0,1,1
1050,15.0,-2.0,60.0,1645098875.5,P10,D03,0,1,1
1051,15.0,-2.0,60.0,1645098875.53125,P10,D03,0,1,1
1052,14.0,-2.0,60.0,1645098875.5625,P10,D03,0,1,1
1053,15.0,-2.0,60.0,1645098875.59375,P10,D03,0,1,1
1054,14.0,-2.0,60.0,1645098875.625,P10,D03,0,1,1
1055,15.0,-2.0,60.0,1645098875.65625,P10,D03,0,1,1
1056,14.0,-2.0,60.0,1645098875.6875,P10,D03,0,1,1
1057,15.0,-2.0,60.0,1645098875.71875,P10,D03,0,1,1
1058,14.0,-2.0,60.0,1645098875.75,P10,D03,0,1,1
1059,15.0,-2.0,60.0,1645098875.78125,P10,D03,0,1,1
1060,15.0,-2.0,60.0,1645098875.8125,P10,D03,0,1,1
1061,14.0,-2.0,60.0,1645098875.84375,P10,D03,0,1,1
1062,15.0,-2.0,60.0,1645098875.875,P10,D03,0,1,1
1063,15.0,-2.0,60.0,1645098875.90625,P10,D03,0,1,1
1064,15.0,-2.0,60.0,1645098875.9375,P10,D03,0,1,1
1065,14.0,-2.0,60.0,1645098875.96875,P10,D03,0,1,1
1066,15.0,-2.0,60.0,1645098876.0,P10,D03,0,1,1
1067,15.0,-2.0,60.0,1645098876.03125,P10,D03,0,1,1
1068,15.0,-2.0,60.0,1645098876.0625,P10,D03,0,1,1
1069,14.0,-2.0,60.0,1645098876.09375,P10,D03,0,1,1
1070,15.0,-2.0,60.0,1645098876.125,P10,D03,0,1,1
1071,14.0,-2.0,60.0,1645098876.15625,P10,D03,0,1,1
1072,15.0,-2.0,60.0,1645098876.1875,P10,D03,0,1,1
1073,15.0,-2.0,60.0,1645098876.21875,P10,D03,0,1,1
1074,14.0,-2.0,60.0,1645098876.25,P10,D03,0,1,1
1075,15.0,-2.0,60.0,1645098876.28125,P10,D03,0,1,1
1076,15.0,-2.0,60.0,1645098876.3125,P10,D03,0,1,1
1077,15.0,-2.0,60.0,1645098876.34375,P10,D03,0,1,1
1078,15.0,-2.0,60.0,1645098876.375,P10,D03,0,1,1
1079,15.0,-2.0,60.0,1645098876.40625,P10,D03,0,1,1
1080,15.0,-2.0,60.0,1645098876.4375,P10,D03,0,1,1
1081,15.0,-2.0,60.0,1645098876.46875,P10,D03,0,1,1
1082,15.0,-2.0,60.0,1645098876.5,P10,D03,0,1,1
1083,15.0,-2.0,60.0,1645098876.53125,P10,D03,0,1,1
1084,15.0,-2.0,60.0,1645098876.5625,P10,D03,0,1,1
1085,14.0,-2.0,60.0,1645098876.59375,P10,D03,0,1,1
1086,15.0,-2.0,60.0,1645098876.625,P10,D03,0,1,1
1087,15.0,-2.0,60.0,1645098876.65625,P10,D03,0,1,1
1088,14.0,-2.0,60.0,1645098876.6875,P10,D03,0,1,1
1089,15.0,-2.0,60.0,1645098876.71875,P10,D03,0,1,1
1090,15.0,-2.0,60.0,1645098876.75,P10,D03,0,1,1
1091,15.0,-2.0,60.0,1645098876.78125,P10,D03,0,1,1
1092,14.0,-2.0,60.0,1645098876.8125,P10,D03,0,1,1
1093,15.0,-2.0,60.0,1645098876.84375,P10,D03,0,1,1
1094,15.0,-1.0,60.0,1645098876.875,P10,D03,0,1,1
1095,15.0,-1.0,60.0,1645098876.90625,P10,D03,0,1,1
1096,15.0,-2.0,60.0,1645098876.9375,P10,D03,0,1,1
1097,15.0,-2.0,60.0,1645098876.96875,P10,D03,0,1,1
1098,15.0,-2.0,60.0,1645098877.0,P10,D03,0,1,1
1099,15.0,-2.0,60.0,1645098877.03125,P10,D03,0,1,1
1100,15.0,-2.0,60.0,1645098877.0625,P10,D03,0,1,1
1101,15.0,-2.0,60.0,1645098877.09375,P10,D03,0,1,1
1102,15.0,-2.0,60.0,1645098877.125,P10,D03,0,1,1
1103,15.0,-2.0,60.0,1645098877.15625,P10,D03,0,1,1
1104,15.0,-2.0,60.0,1645098877.1875,P10,D03,0,1,1
1105,15.0,-2.0,60.0,1645098877.21875,P10,D03,0,1,1
1106,14.0,-3.0,60.0,1645098877.25,P10,D03,0,1,1
1107,15.0,-1.0,60.0,1645098877.28125,P10,D03,0,1,1
1108,15.0,-2.0,60.0,1645098877.3125,P10,D03,0,1,1
1109,15.0,-2.0,60.0,1645098877.34375,P10,D03,0,1,1
1110,15.0,-2.0,60.0,1645098877.375,P10,D03,0,1,1
1111,15.0,-2.0,60.0,1645098877.40625,P10,D03,0,1,1
1112,15.0,-2.0,60.0,1645098877.4375,P10,D03,0,1,1
1113,15.0,-2.0,60.0,1645098877.46875,P10,D03,0,1,1
1114,15.0,-2.0,60.0,1645098877.5,P10,D03,0,1,1
1115,14.0,-2.0,60.0,1645098877.53125,P10,D03,0,1,1
1116,15.0,-2.0,60.0,1645098877.5625,P10,D03,0,1,1
1117,15.0,-2.0,60.0,1645098877.59375,P10,D03,0,1,1
1118,14.0,-2.0,61.0,1645098877.625,P10,D03,0,1,1
1119,14.0,-2.0,60.0,1645098877.65625,P10,D03,0,1,1
1120,14.0,-2.0,60.0,1645098877.6875,P10,D03,0,1,1
1121,15.0,-1.0,60.0,1645098877.71875,P10,D03,0,1,1
1122,15.0,-2.0,60.0,1645098877.75,P10,D03,0,1,1
1123,15.0,-2.0,60.0,1645098877.78125,P10,D03,0,1,1
1124,15.0,-2.0,60.0,1645098877.8125,P10,D03,0,1,1
1125,15.0,-2.0,60.0,1645098877.84375,P10,D03,0,1,1
1126,15.0,-1.0,60.0,1645098877.875,P10,D03,0,1,1
1127,15.0,-2.0,60.0,1645098877.90625,P10,D03,0,1,1
1128,15.0,-2.0,60.0,1645098877.9375,P10,D03,0,1,1
1129,15.0,-2.0,60.0,1645098877.96875,P10,D03,0,1,1
1130,14.0,-2.0,60.0,1645098878.0,P10,D03,0,1,1
1131,15.0,-2.0,60.0,1645098878.03125,P10,D03,0,1,1
1132,15.0,-2.0,60.0,1645098878.0625,P10,D03,0,1,1
1133,15.0,-2.0,60.0,1645098878.09375,P10,D03,0,1,1
1134,14.0,-2.0,60.0,1645098878.125,P10,D03,0,1,1
1135,15.0,-2.0,60.0,1645098878.15625,P10,D03,0,1,1
1136,15.0,-2.0,60.0,1645098878.1875,P10,D03,0,1,1
1137,15.0,-1.0,60.0,1645098878.21875,P10,D03,0,1,1
1138,15.0,-2.0,60.0,1645098878.25,P10,D03,0,1,1
1139,15.0,-2.0,60.0,1645098878.28125,P10,D03,0,1,1
1140,15.0,-2.0,60.0,1645098878.3125,P10,D03,0,1,1
1141,14.0,-2.0,60.0,1645098878.34375,P10,D03,0,1,1
1142,15.0,-2.0,60.0,1645098878.375,P10,D03,0,1,1
1143,15.0,-2.0,60.0,1645098878.40625,P10,D03,0,1,1
1144,15.0,-2.0,60.0,1645098878.4375,P10,D03,0,1,1
1145,15.0,-2.0,60.0,1645098878.46875,P10,D03,0,1,1
1146,15.0,-2.0,60.0,1645098878.5,P10,D03,0,1,1
1147,15.0,-1.0,60.0,1645098878.53125,P10,D03,0,1,1
1148,14.0,-2.0,60.0,1645098878.5625,P10,D03,0,1,1
1149,14.0,-2.0,60.0,1645098878.59375,P10,D03,0,1,1
1150,15.0,-2.0,60.0,1645098878.625,P10,D03,0,1,1
1151,15.0,-2.0,60.0,1645098878.65625,P10,D03,0,1,1
1152,14.0,-2.0,60.0,1645098878.6875,P10,D03,0,1,1
1153,15.0,-1.0,60.0,1645098878.71875,P10,D03,0,1,1
1154,15.0,-2.0,60.0,1645098878.75,P10,D03,0,1,1
1155,15.0,-2.0,60.0,1645098878.78125,P10,D03,0,1,1
1156,15.0,-2.0,60.0,1645098878.8125,P10,D03,0,1,1
1157,15.0,-2.0,60.0,1645098878.84375,P10,D03,0,1,1
1158,15.0,-2.0,60.0,1645098878.875,P10,D03,0,1,1
1159,15.0,-2.0,60.0,1645098878.90625,P10,D03,0,1,1
1160,15.0,-2.0,60.0,1645098878.9375,P10,D03,0,1,1
1161,15.0,-2.0,60.0,1645098878.96875,P10,D03,0,1,1
1162,15.0,-2.0,60.0,1645098879.0,P10,D03,0,1,1
1163,15.0,-2.0,60.0,1645098879.03125,P10,D03,0,1,1
1164,14.0,-2.0,60.0,1645098879.0625,P10,D03,0,1,1
1165,14.0,-2.0,60.0,1645098879.09375,P10,D03,0,1,1
1166,14.0,-2.0,60.0,1645098879.125,P10,D03,0,1,1
1167,16.0,-2.0,60.0,1645098879.15625,P10,D03,0,1,1
1168,13.0,-2.0,60.0,1645098879.1875,P10,D03,0,1,1
1169,13.0,-3.0,58.0,1645098879.21875,P10,D03,0,1,1
1170,18.0,5.0,62.0,1645098879.25,P10,D03,0,1,1
1171,41.0,0.0,69.0,1645098879.28125,P10,D03,0,1,1
1172,5.0,-8.0,58.0,1645098879.3125,P10,D03,0,1,1
1173,-1.0,-2.0,55.0,1645098879.34375,P10,D03,0,1,1
1174,24.0,-1.0,52.0,1645098879.375,P10,D03,0,1,1
1175,35.0,2.0,57.0,1645098879.40625,P10,D03,0,1,1
1176,22.0,-1.0,64.0,1645098879.4375,P10,D03,0,1,1
1177,-3.0,5.0,52.0,1645098879.46875,P10,D03,0,1,1
1178,6.0,1.0,60.0,1645098879.5,P10,D03,0,1,1
1179,29.0,-8.0,63.0,1645098879.53125,P10,D03,0,1,1
1180,22.0,-7.0,59.0,1645098879.5625,P10,D03,0,1,1
1181,25.0,-2.0,59.0,1645098879.59375,P10,D03,0,1,1
1182,28.0,0.0,54.0,1645098879.625,P10,D03,0,1,1
1183,38.0,-3.0,54.0,1645098879.65625,P10,D03,0,1,1
1184,32.0,-2.0,55.0,1645098879.6875,P10,D03,0,1,1
1185,32.0,0.0,51.0,1645098879.71875,P10,D03,0,1,1
1186,41.0,-1.0,51.0,1645098879.75,P10,D03,0,1,1
1187,36.0,0.0,49.0,1645098879.78125,P10,D03,0,1,1
1188,39.0,1.0,49.0,1645098879.8125,P10,D03,0,1,1
1189,42.0,0.0,49.0,1645098879.84375,P10,D03,0,1,1
1190,31.0,-2.0,52.0,1645098879.875,P10,D03,0,1,1
1191,27.0,0.0,48.0,1645098879.90625,P10,D03,0,1,1
1192,42.0,1.0,51.0,1645098879.9375,P10,D03,0,1,1
1193,40.0,1.0,50.0,1645098879.96875,P10,D03,0,1,1
1194,37.0,1.0,48.0,1645098880.0,P10,D03,0,1,1
1195,39.0,0.0,50.0,1645098880.03125,P10,D03,0,1,1
1196,39.0,-1.0,50.0,1645098880.0625,P10,D03,0,1,1
1197,37.0,0.0,49.0,1645098880.09375,P10,D03,0,1,1
1198,39.0,-1.0,49.0,1645098880.125,P10,D03,0,1,1
1199,43.0,0.0,49.0,1645098880.15625,P10,D03,0,1,1
1200,44.0,-1.0,50.0,1645098880.1875,P10,D03,0,1,1
1201,37.0,-1.0,52.0,1645098880.21875,P10,D03,0,1,1
1202,32.0,-1.0,52.0,1645098880.25,P10,D03,0,1,1
1203,24.0,0.0,54.0,1645098880.28125,P10,D03,0,1,1
1204,21.0,-2.0,55.0,1645098880.3125,P10,D03,0,1,1
1205,25.0,-1.0,56.0,1645098880.34375,P10,D03,0,1,1
1206,28.0,-2.0,56.0,1645098880.375,P10,D03,0,1,1
1207,27.0,-1.0,56.0,1645098880.40625,P10,D03,0,1,1
1208,26.0,-2.0,57.0,1645098880.4375,P10,D03,0,1,1
1209,25.0,-1.0,58.0,1645098880.46875,P10,D03,0,1,1
1210,24.0,-1.0,58.0,1645098880.5,P10,D03,0,1,1
1211,17.0,-2.0,58.0,1645098880.53125,P10,D03,0,1,1
1212,16.0,-4.0,59.0,1645098880.5625,P10,D03,0,1,1
1213,16.0,-3.0,60.0,1645098880.59375,P10,D03,0,1,1
1214,15.0,-1.0,59.0,1645098880.625,P10,D03,0,1,1
1215,14.0,-2.0,59.0,1645098880.65625,P10,D03,0,1,1
1216,11.0,0.0,58.0,1645098880.6875,P10,D03,0,1,1
1217,12.0,-1.0,58.0,1645098880.71875,P10,D03,0,1,1
1218,20.0,-6.0,64.0,1645098880.75,P10,D03,0,1,1
1219,23.0,-8.0,61.0,1645098880.78125,P10,D03,0,1,1
1220,11.0,-3.0,60.0,1645098880.8125,P10,D03,0,1,1
1221,8.0,-5.0,61.0,1645098880.84375,P10,D03,0,1,1
1222,-6.0,-8.0,66.0,1645098880.875,P10,D03,0,1,1
1223,8.0,-6.0,60.0,1645098880.90625,P10,D03,0,1,1
1224,15.0,-8.0,63.0,1645098880.9375,P10,D03,0,1,1
1225,-2.0,-7.0,60.0,1645098880.96875,P10,D03,0,1,1
1226,5.0,-5.0,62.0,1645098881.0,P10,D03,0,1,1
1227,8.0,-7.0,62.0,1645098881.03125,P10,D03,0,1,1
1228,5.0,-8.0,62.0,1645098881.0625,P10,D03,0,1,1
1229,3.0,-6.0,61.0,1645098881.09375,P10,D03,0,1,1
1230,3.0,-6.0,61.0,1645098881.125,P10,D03,0,1,1
1231,5.0,-7.0,62.0,1645098881.15625,P10,D03,0,1,1
1232,6.0,-7.0,62.0,1645098881.1875,P10,D03,0,1,1
1233,2.0,-6.0,62.0,1645098881.21875,P10,D03,0,1,1
1234,4.0,-7.0,62.0,1645098881.25,P10,D03,0,1,1
1235,5.0,-6.0,62.0,1645098881.28125,P10,D03,0,1,1
1236,5.0,-6.0,61.0,1645098881.3125,P10,D03,0,1,1
1237,4.0,-6.0,62.0,1645098881.34375,P10,D03,0,1,1
1238,4.0,-7.0,62.0,1645098881.375,P10,D03,0,1,1
1239,4.0,-6.0,61.0,1645098881.40625,P10,D03,0,1,1
1240,6.0,-6.0,62.0,1645098881.4375,P10,D03,0,1,1
1241,5.0,-6.0,61.0,1645098881.46875,P10,D03,0,1,1
1242,5.0,-6.0,61.0,1645098881.5,P10,D03,0,1,1
1243,5.0,-6.0,62.0,1645098881.53125,P10,D03,0,1,1
1244,8.0,-7.0,62.0,1645098881.5625,P10,D03,0,1,1
1245,7.0,-6.0,62.0,1645098881.59375,P10,D03,0,1,1
1246,8.0,-7.0,63.0,1645098881.625,P10,D03,0,1,1
1247,5.0,-6.0,61.0,1645098881.65625,P10,D03,0,1,1
1248,3.0,-5.0,61.0,1645098881.6875,P10,D03,0,1,1
1249,6.0,-6.0,61.0,1645098881.71875,P10,D03,0,1,1
1250,5.0,-6.0,62.0,1645098881.75,P10,D03,0,1,1
1251,5.0,-6.0,62.0,1645098881.78125,P10,D03,0,1,1
1252,5.0,-6.0,61.0,1645098881.8125,P10,D03,0,1,1
1253,6.0,-7.0,62.0,1645098881.84375,P10,D03,0,1,1
1254,5.0,-7.0,63.0,1645098881.875,P10,D03,0,1,1
1255,6.0,-6.0,61.0,1645098881.90625,P10,D03,0,1,1
1256,8.0,-6.0,62.0,1645098881.9375,P10,D03,0,1,1
1257,7.0,-6.0,62.0,1645098881.96875,P10,D03,0,1,1
1258,5.0,-6.0,62.0,1645098882.0,P10,D03,0,1,1
1259,5.0,-6.0,62.0,1645098882.03125,P10,D03,0,1,1
1260,6.0,-6.0,61.0,1645098882.0625,P10,D03,0,1,1
1261,6.0,-6.0,62.0,1645098882.09375,P10,D03,0,1,1
1262,6.0,-6.0,61.0,1645098882.125,P10,D03,0,1,1
1263,5.0,-6.0,62.0,1645098882.15625,P10,D03,0,1,1
1264,6.0,-6.0,62.0,1645098882.1875,P10,D03,0,1,1
1265,6.0,-6.0,62.0,1645098882.21875,P10,D03,0,1,1
1266,5.0,-6.0,61.0,1645098882.25,P10,D03,0,1,1
1267,6.0,-6.0,62.0,1645098882.28125,P10,D03,0,1,1
1268,5.0,-6.0,62.0,1645098882.3125,P10,D03,0,1,1
1269,5.0,-6.0,61.0,1645098882.34375,P10,D03,0,1,1
1270,6.0,-6.0,62.0,1645098882.375,P10,D03,0,1,1
1271,5.0,-6.0,61.0,1645098882.40625,P10,D03,0,1,1
1272,6.0,-6.0,62.0,1645098882.4375,P10,D03,0,1,1
1273,5.0,-6.0,61.0,1645098882.46875,P10,D03,0,1,1
1274,6.0,-6.0,62.0,1645098882.5,P10,D03,0,1,1
1275,5.0,-6.0,61.0,1645098882.53125,P10,D03,0,1,1
1276,6.0,-6.0,62.0,1645098882.5625,P10,D03,0,1,1
1277,6.0,-6.0,62.0,1645098882.59375,P10,D03,0,1,1
1278,5.0,-6.0,62.0,1645098882.625,P10,D03,0,1,1
1279,6.0,-6.0,62.0,1645098882.65625,P10,D03,0,1,1
1280,6.0,-6.0,62.0,1645098882.6875,P10,D03,0,1,1
1281,5.0,-6.0,62.0,1645098882.71875,P10,D03,0,1,1
1282,6.0,-5.0,62.0,1645098882.75,P10,D03,0,1,1
1283,5.0,-6.0,62.0,1645098882.78125,P10,D03,0,1,1
1284,5.0,-6.0,61.0,1645098882.8125,P10,D03,0,1,1
1285,6.0,-6.0,62.0,1645098882.84375,P10,D03,0,1,1
1286,5.0,-6.0,62.0,1645098882.875,P10,D03,0,1,1
1287,5.0,-6.0,62.0,1645098882.90625,P10,D03,0,1,1
1288,6.0,-6.0,62.0,1645098882.9375,P10,D03,0,1,1
1289,6.0,-6.0,62.0,1645098882.96875,P10,D03,0,1,1
1290,5.0,-6.0,61.0,1645098883.0,P10,D03,0,1,1
1291,5.0,-6.0,62.0,1645098883.03125,P10,D03,0,1,1
1292,5.0,-6.0,62.0,1645098883.0625,P10,D03,0,1,1
1293,5.0,-6.0,62.0,1645098883.09375,P10,D03,0,1,1
1294,6.0,-6.0,62.0,1645098883.125,P10,D03,0,1,1
1295,5.0,-6.0,62.0,1645098883.15625,P10,D03,0,1,1
1296,5.0,-6.0,62.0,1645098883.1875,P10,D03,0,1,1
1297,6.0,-6.0,62.0,1645098883.21875,P10,D03,0,1,1
1298,6.0,-6.0,61.0,1645098883.25,P10,D03,0,1,1
1299,5.0,-6.0,62.0,1645098883.28125,P10,D03,0,1,1
1300,5.0,-7.0,62.0,1645098883.3125,P10,D03,0,1,1
1301,5.0,-6.0,62.0,1645098883.34375,P10,D03,0,1,1
1302,6.0,-6.0,62.0,1645098883.375,P10,D03,0,1,1
1303,5.0,-6.0,62.0,1645098883.40625,P10,D03,0,1,1
1304,5.0,-6.0,62.0,1645098883.4375,P10,D03,0,1,1
1305,6.0,-6.0,62.0,1645098883.46875,P10,D03,0,1,1
1306,5.0,-6.0,62.0,1645098883.5,P10,D03,0,1,1
1307,5.0,-6.0,62.0,1645098883.53125,P10,D03,0,1,1
1308,5.0,-6.0,62.0,1645098883.5625,P10,D03,0,1,1
1309,5.0,-6.0,62.0,1645098883.59375,P10,D03,0,1,1
1310,5.0,-6.0,62.0,1645098883.625,P10,D03,0,1,1
1311,5.0,-6.0,62.0,1645098883.65625,P10,D03,0,1,1
1312,5.0,-6.0,62.0,1645098883.6875,P10,D03,0,1,1
1313,5.0,-6.0,62.0,1645098883.71875,P10,D03,0,1,1
1314,5.0,-6.0,61.0,1645098883.75,P10,D03,0,1,1
1315,6.0,-6.0,61.0,1645098883.78125,P10,D03,0,1,1
1316,5.0,-6.0,62.0,1645098883.8125,P10,D03,0,1,1
1317,5.0,-6.0,61.0,1645098883.84375,P10,D03,0,1,1
1318,5.0,-6.0,61.0,1645098883.875,P10,D03,0,1,1
1319,5.0,-6.0,61.0,1645098883.90625,P10,D03,0,1,1
1320,5.0,-6.0,62.0,1645098883.9375,P10,D03,0,1,1
1321,6.0,-6.0,62.0,1645098883.96875,P10,D03,0,1,1
1322,5.0,-6.0,62.0,1645098884.0,P10,D03,0,1,1
1323,6.0,-6.0,62.0,1645098884.03125,P10,D03,0,1,1
1324,6.0,-6.0,62.0,1645098884.0625,P10,D03,0,1,1
1325,6.0,-6.0,61.0,1645098884.09375,P10,D03,0,1,1
1326,6.0,-6.0,62.0,1645098884.125,P10,D03,0,1,1
1327,6.0,-6.0,62.0,1645098884.15625,P10,D03,0,1,1
1328,6.0,-6.0,62.0,1645098884.1875,P10,D03,0,1,1
1329,6.0,-6.0,62.0,1645098884.21875,P10,D03,0,1,1
1330,6.0,-6.0,62.0,1645098884.25,P10,D03,0,1,1
1331,6.0,-6.0,62.0,1645098884.28125,P10,D03,0,1,1
1332,6.0,-6.0,62.0,1645098884.3125,P10,D03,0,1,1
1333,6.0,-6.0,62.0,1645098884.34375,P10,D03,0,1,1
1334,6.0,-6.0,62.0,1645098884.375,P10,D03,0,1,1
1335,6.0,-6.0,62.0,1645098884.40625,P10,D03,0,1,1
1336,6.0,-6.0,62.0,1645098884.4375,P10,D03,0,1,1
1337,6.0,-6.0,62.0,1645098884.46875,P10,D03,0,1,1
1338,6.0,-6.0,62.0,1645098884.5,P10,D03,0,1,1
1339,6.0,-6.0,61.0,1645098884.53125,P10,D03,0,1,1
1340,6.0,-6.0,61.0,1645098884.5625,P10,D03,0,1,1
1341,6.0,-6.0,62.0,1645098884.59375,P10,D03,0,1,1
1342,6.0,-6.0,62.0,1645098884.625,P10,D03,0,1,1
1343,6.0,-6.0,61.0,1645098884.65625,P10,D03,0,1,1
1344,6.0,-6.0,62.0,1645098884.6875,P10,D03,0,1,1
1345,6.0,-6.0,62.0,1645098884.71875,P10,D03,0,1,1
1346,6.0,-6.0,62.0,1645098884.75,P10,D03,0,1,1
1347,6.0,-6.0,62.0,1645098884.78125,P10,D03,0,1,1
1348,6.0,-6.0,62.0,1645098884.8125,P10,D03,0,1,1
1349,5.0,-6.0,62.0,1645098884.84375,P10,D03,0,1,1
1350,6.0,-6.0,62.0,1645098884.875,P10,D03,0,1,1
1351,6.0,-6.0,61.0,1645098884.90625,P10,D03,0,1,1
1352,6.0,-6.0,62.0,1645098884.9375,P10,D03,0,1,1
1353,5.0,-6.0,62.0,1645098884.96875,P10,D03,0,1,1
1354,6.0,-6.0,62.0,1645098885.0,P10,D03,0,1,1
1355,6.0,-6.0,61.0,1645098885.03125,P10,D03,0,1,1
1356,6.0,-6.0,62.0,1645098885.0625,P10,D03,0,1,1
1357,6.0,-6.0,62.0,1645098885.09375,P10,D03,0,1,1
1358,6.0,-6.0,62.0,1645098885.125,P10,D03,0,1,1
1359,5.0,-6.0,62.0,1645098885.15625,P10,D03,0,1,1
1360,6.0,-6.0,61.0,1645098885.1875,P10,D03,0,1,1
1361,6.0,-6.0,61.0,1645098885.21875,P10,D03,0,1,1
1362,7.0,-6.0,62.0,1645098885.25,P10,D03,0,1,1
1363,5.0,-6.0,61.0,1645098885.28125,P10,D03,0,1,1
1364,4.0,-6.0,62.0,1645098885.3125,P10,D03,0,1,1
1365,4.0,-5.0,62.0,1645098885.34375,P10,D03,0,1,1
1366,6.0,-6.0,61.0,1645098885.375,P10,D03,0,1,1
1367,9.0,-5.0,61.0,1645098885.40625,P10,D03,0,1,1
1368,8.0,-5.0,61.0,1645098885.4375,P10,D03,0,1,1
1369,8.0,-5.0,62.0,1645098885.46875,P10,D03,0,1,1
1370,9.0,-5.0,62.0,1645098885.5,P10,D03,0,1,1
1371,10.0,-5.0,62.0,1645098885.53125,P10,D03,0,1,1
1372,9.0,-4.0,61.0,1645098885.5625,P10,D03,0,1,1
1373,8.0,-4.0,61.0,1645098885.59375,P10,D03,0,1,1
1374,5.0,-5.0,61.0,1645098885.625,P10,D03,0,1,1
1375,5.0,-5.0,62.0,1645098885.65625,P10,D03,0,1,1
1376,7.0,-4.0,61.0,1645098885.6875,P10,D03,0,1,1
1377,7.0,-5.0,61.0,1645098885.71875,P10,D03,0,1,1
1378,6.0,-5.0,62.0,1645098885.75,P10,D03,0,1,1
1379,6.0,-5.0,62.0,1645098885.78125,P10,D03,0,1,1
1380,7.0,-5.0,61.0,1645098885.8125,P10,D03,0,1,1
1381,7.0,-5.0,61.0,1645098885.84375,P10,D03,0,1,1
1382,7.0,-5.0,62.0,1645098885.875,P10,D03,0,1,1
1383,7.0,-5.0,61.0,1645098885.90625,P10,D03,0,1,1
1384,8.0,-5.0,61.0,1645098885.9375,P10,D03,0,1,1
1385,7.0,-5.0,62.0,1645098885.96875,P10,D03,0,1,1
1386,7.0,-5.0,62.0,1645098886.0,P10,D03,0,1,1
1387,8.0,-5.0,62.0,1645098886.03125,P10,D03,0,1,1
1388,8.0,-5.0,61.0,1645098886.0625,P10,D03,0,1,1
1389,7.0,-5.0,62.0,1645098886.09375,P10,D03,0,1,1
1390,7.0,-5.0,62.0,1645098886.125,P10,D03,0,1,1
1391,7.0,-5.0,62.0,1645098886.15625,P10,D03,0,1,1
1392,8.0,-5.0,62.0,1645098886.1875,P10,D03,0,1,1
1393,8.0,-5.0,62.0,1645098886.21875,P10,D03,0,1,1
1394,7.0,-5.0,61.0,1645098886.25,P10,D03,0,1,1
1395,8.0,-5.0,62.0,1645098886.28125,P10,D03,0,1,1
1396,9.0,-5.0,62.0,1645098886.3125,P10,D03,0,1,1
1397,9.0,-5.0,61.0,1645098886.34375,P10,D03,0,1,1
1398,8.0,-6.0,62.0,1645098886.375,P10,D03,0,1,1
1399,7.0,-6.0,62.0,1645098886.40625,P10,D03,0,1,1
1400,7.0,-5.0,62.0,1645098886.4375,P10,D03,0,1,1
1401,8.0,-5.0,61.0,1645098886.46875,P10,D03,0,1,1
1402,7.0,-6.0,61.0,1645098886.5,P10,D03,0,1,1
1403,6.0,-6.0,61.0,1645098886.53125,P10,D03,0,1,1
1404,7.0,-5.0,61.0,1645098886.5625,P10,D03,0,1,1
1405,7.0,-5.0,62.0,1645098886.59375,P10,D03,0,1,1
1406,7.0,-6.0,62.0,1645098886.625,P10,D03,0,1,1
1407,7.0,-5.0,62.0,1645098886.65625,P10,D03,0,1,1
1408,7.0,-5.0,61.0,1645098886.6875,P10,D03,0,1,1
1409,7.0,-6.0,61.0,1645098886.71875,P10,D03,0,1,1
1410,8.0,-5.0,62.0,1645098886.75,P10,D03,0,1,1
1411,6.0,-6.0,61.0,1645098886.78125,P10,D03,0,1,1
1412,7.0,-6.0,62.0,1645098886.8125,P10,D03,0,1,1
1413,7.0,-6.0,61.0,1645098886.84375,P10,D03,0,1,1
1414,7.0,-6.0,62.0,1645098886.875,P10,D03,0,1,1
1415,7.0,-5.0,61.0,1645098886.90625,P10,D03,0,1,1
1416,7.0,-6.0,61.0,1645098886.9375,P10,D03,0,1,1
1417,7.0,-5.0,62.0,1645098886.96875,P10,D03,0,1,1
1418,7.0,-6.0,61.0,1645098887.0,P10,D03,0,1,1
1419,7.0,-6.0,62.0,1645098887.03125,P10,D03,0,1,1
1420,7.0,-5.0,61.0,1645098887.0625,P10,D03,0,1,1
1421,7.0,-5.0,61.0,1645098887.09375,P10,D03,0,1,1
1422,7.0,-6.0,61.0,1645098887.125,P10,D03,0,1,1
1423,7.0,-6.0,61.0,1645098887.15625,P10,D03,0,1,1
1424,7.0,-6.0,61.0,1645098887.1875,P10,D03,0,1,1
1425,7.0,-5.0,61.0,1645098887.21875,P10,D03,0,1,1
1426,7.0,-6.0,62.0,1645098887.25,P10,D03,0,1,1
1427,7.0,-6.0,62.0,1645098887.28125,P10,D03,0,1,1
1428,7.0,-6.0,61.0,1645098887.3125,P10,D03,0,1,1
1429,7.0,-5.0,61.0,1645098887.34375,P10,D03,0,1,1
1430,7.0,-5.0,61.0,1645098887.375,P10,D03,0,1,1
1431,9.0,-5.0,61.0,1645098887.40625,P10,D03,0,1,1
1432,7.0,-5.0,61.0,1645098887.4375,P10,D03,0,1,1
1433,8.0,-5.0,62.0,1645098887.46875,P10,D03,0,1,1
1434,7.0,-5.0,61.0,1645098887.5,P10,D03,0,1,1
1435,8.0,-5.0,61.0,1645098887.53125,P10,D03,0,1,1
1436,7.0,-5.0,62.0,1645098887.5625,P10,D03,0,1,1
1437,8.0,-5.0,61.0,1645098887.59375,P10,D03,0,1,1
1438,8.0,-6.0,62.0,1645098887.625,P10,D03,0,1,1
1439,7.0,-6.0,62.0,1645098887.65625,P10,D03,0,1,1
1440,7.0,-6.0,62.0,1645098887.6875,P10,D03,0,1,1
1441,8.0,-4.0,61.0,1645098887.71875,P10,D03,0,1,1
1442,7.0,-6.0,61.0,1645098887.75,P10,D03,0,1,1
1443,6.0,-6.0,61.0,1645098887.78125,P10,D03,0,1,1
1444,7.0,-6.0,62.0,1645098887.8125,P10,D03,0,1,1
1445,7.0,-5.0,62.0,1645098887.84375,P10,D03,0,1,1
1446,7.0,-5.0,62.0,1645098887.875,P10,D03,0,1,1
1447,7.0,-6.0,62.0,1645098887.90625,P10,D03,0,1,1
1448,7.0,-5.0,62.0,1645098887.9375,P10,D03,0,1,1
1449,8.0,-5.0,61.0,1645098887.96875,P10,D03,0,1,1
1450,7.0,-6.0,61.0,1645098888.0,P10,D03,0,1,1
1451,7.0,-6.0,62.0,1645098888.03125,P10,D03,0,1,1
1452,8.0,-5.0,61.0,1645098888.0625,P10,D03,0,1,1
1453,8.0,-5.0,62.0,1645098888.09375,P10,D03,0,1,1
1454,7.0,-6.0,61.0,1645098888.125,P10,D03,0,1,1
1455,7.0,-5.0,61.0,1645098888.15625,P10,D03,0,1,1
1456,8.0,-5.0,61.0,1645098888.1875,P10,D03,0,1,1
1457,7.0,-5.0,61.0,1645098888.21875,P10,D03,0,1,1
1458,7.0,-6.0,62.0,1645098888.25,P10,D03,0,1,1
1459,7.0,-6.0,62.0,1645098888.28125,P10,D03,0,1,1
1460,7.0,-5.0,61.0,1645098888.3125,P10,D03,0,1,1
1461,9.0,-5.0,62.0,1645098888.34375,P10,D03,0,1,1
1462,8.0,-6.0,61.0,1645098888.375,P10,D03,0,1,1
1463,7.0,-5.0,62.0,1645098888.40625,P10,D03,0,1,1
1464,7.0,-5.0,62.0,1645098888.4375,P10,D03,0,1,1
1465,8.0,-5.0,61.0,1645098888.46875,P10,D03,0,1,1
1466,7.0,-5.0,61.0,1645098888.5,P10,D03,0,1,1
1467,7.0,-6.0,61.0,1645098888.53125,P10,D03,0,1,1
1468,8.0,-5.0,61.0,1645098888.5625,P10,D03,0,1,1
1469,8.0,-5.0,61.0,1645098888.59375,P10,D03,0,1,1
1470,8.0,-5.0,61.0,1645098888.625,P10,D03,0,1,1
1471,7.0,-6.0,61.0,1645098888.65625,P10,D03,0,1,1
1472,8.0,-6.0,61.0,1645098888.6875,P10,D03,0,1,1
1473,8.0,-5.0,62.0,1645098888.71875,P10,D03,0,1,1
1474,8.0,-5.0,62.0,1645098888.75,P10,D03,0,1,1
1475,7.0,-6.0,61.0,1645098888.78125,P10,D03,0,1,1
1476,8.0,-5.0,62.0,1645098888.8125,P10,D03,0,1,1
1477,8.0,-5.0,61.0,1645098888.84375,P10,D03,0,1,1
1478,8.0,-6.0,61.0,1645098888.875,P10,D03,0,1,1
1479,8.0,-5.0,61.0,1645098888.90625,P10,D03,0,1,1
1480,8.0,-5.0,61.0,1645098888.9375,P10,D03,0,1,1
1481,8.0,-5.0,62.0,1645098888.96875,P10,D03,0,1,1
1482,7.0,-6.0,61.0,1645098889.0,P10,D03,0,1,1
1483,7.0,-5.0,61.0,1645098889.03125,P10,D03,0,1,1
1484,8.0,-5.0,61.0,1645098889.0625,P10,D03,0,1,1
1485,8.0,-6.0,61.0,1645098889.09375,P10,D03,0,1,1
1486,8.0,-6.0,62.0,1645098889.125,P10,D03,0,1,1
1487,7.0,-6.0,61.0,1645098889.15625,P10,D03,0,1,1
1488,8.0,-5.0,61.0,1645098889.1875,P10,D03,0,1,1
1489,8.0,-5.0,62.0,1645098889.21875,P10,D03,0,1,1
1490,8.0,-5.0,62.0,1645098889.25,P10,D03,0,1,1
1491,8.0,-5.0,61.0,1645098889.28125,P10,D03,0,1,1
1492,8.0,-6.0,61.0,1645098889.3125,P10,D03,0,1,1
1493,8.0,-5.0,61.0,1645098889.34375,P10,D03,0,1,1
1494,7.0,-5.0,62.0,1645098889.375,P10,D03,0,1,1
1495,7.0,-6.0,61.0,1645098889.40625,P10,D03,0,1,1
1496,8.0,-6.0,61.0,1645098889.4375,P10,D03,0,1,1
1497,8.0,-5.0,61.0,1645098889.46875,P10,D03,0,1,1
1498,7.0,-5.0,61.0,1645098889.5,P10,D03,0,1,1
1499,8.0,-5.0,61.0,1645098889.53125,P10,D03,0,1,1
1500,8.0,-5.0,61.0,1645098889.5625,P10,D03,0,1,1
1501,8.0,-5.0,61.0,1645098889.59375,P10,D03,0,1,1
1502,7.0,-6.0,61.0,1645098889.625,P10,D03,0,1,1
1503,8.0,-5.0,61.0,1645098889.65625,P10,D03,0,1,1
1504,8.0,-5.0,61.0,1645098889.6875,P10,D03,0,1,1
1505,8.0,-6.0,61.0,1645098889.71875,P10,D03,0,1,1
1506,7.0,-5.0,62.0,1645098889.75,P10,D03,0,1,1
1507,8.0,-5.0,61.0,1645098889.78125,P10,D03,0,1,1
1508,8.0,-5.0,61.0,1645098889.8125,P10,D03,0,1,1
1509,8.0,-5.0,62.0,1645098889.84375,P10,D03,0,1,1
1510,8.0,-5.0,61.0,1645098889.875,P10,D03,0,1,1
1511,8.0,-5.0,61.0,1645098889.90625,P10,D03,0,1,1
1512,8.0,-5.0,61.0,1645098889.9375,P10,D03,0,1,1
1513,8.0,-5.0,62.0,1645098889.96875,P10,D03,0,1,1
1514,8.0,-5.0,61.0,1645098890.0,P10,D03,0,1,1
1515,7.0,-5.0,62.0,1645098890.03125,P10,D03,0,1,1
1516,8.0,-5.0,62.0,1645098890.0625,P10,D03,0,1,1
1517,8.0,-6.0,61.0,1645098890.09375,P10,D03,0,1,1
1518,8.0,-6.0,61.0,1645098890.125,P10,D03,0,1,1
1519,7.0,-6.0,61.0,1645098890.15625,P10,D03,0,1,1
1520,8.0,-5.0,61.0,1645098890.1875,P10,D03,0,1,1
1521,8.0,-5.0,61.0,1645098890.21875,P10,D03,0,1,1
1522,7.0,-6.0,61.0,1645098890.25,P10,D03,0,1,1
1523,7.0,-5.0,61.0,1645098890.28125,P10,D03,0,1,1
1524,8.0,-6.0,61.0,1645098890.3125,P10,D03,0,1,1
1525,8.0,-6.0,61.0,1645098890.34375,P10,D03,0,1,1
1526,7.0,-5.0,61.0,1645098890.375,P10,D03,0,1,1
1527,8.0,-6.0,61.0,1645098890.40625,P10,D03,0,1,1
1528,8.0,-5.0,61.0,1645098890.4375,P10,D03,0,1,1
1529,8.0,-5.0,62.0,1645098890.46875,P10,D03,0,1,1
1530,8.0,-6.0,61.0,1645098890.5,P10,D03,0,1,1
1531,8.0,-6.0,62.0,1645098890.53125,P10,D03,0,1,1
1532,8.0,-5.0,61.0,1645098890.5625,P10,D03,0,1,1
1533,8.0,-5.0,61.0,1645098890.59375,P10,D03,0,1,1
1534,8.0,-5.0,62.0,1645098890.625,P10,D03,0,1,1
1535,8.0,-5.0,61.0,1645098890.65625,P10,D03,0,1,1
1536,8.0,-5.0,61.0,1645098890.6875,P10,D03,0,1,1
1537,8.0,-5.0,61.0,1645098890.71875,P10,D03,0,1,1
1538,8.0,-5.0,61.0,1645098890.75,P10,D03,0,1,1
1539,8.0,-6.0,61.0,1645098890.78125,P10,D03,0,1,1
1540,8.0,-5.0,61.0,1645098890.8125,P10,D03,0,1,1
1541,8.0,-5.0,62.0,1645098890.84375,P10,D03,0,1,1
1542,8.0,-6.0,61.0,1645098890.875,P10,D03,0,1,1
1543,8.0,-5.0,61.0,1645098890.90625,P10,D03,0,1,1
1544,8.0,-5.0,61.0,1645098890.9375,P10,D03,0,1,1
1545,8.0,-5.0,62.0,1645098890.96875,P10,D03,0,1,1
1546,8.0,-5.0,61.0,1645098891.0,P10,D03,0,1,1
1547,8.0,-6.0,61.0,1645098891.03125,P10,D03,0,1,1
1548,8.0,-6.0,61.0,1645098891.0625,P10,D03,0,1,1
1549,7.0,-5.0,61.0,1645098891.09375,P10,D03,0,1,1
1550,7.0,-5.0,62.0,1645098891.125,P10,D03,0,1,1
1551,8.0,-5.0,61.0,1645098891.15625,P10,D03,0,1,1
1552,8.0,-5.0,61.0,1645098891.1875,P10,D03,0,1,1
1553,7.0,-6.0,61.0,1645098891.21875,P10,D03,0,1,1
1554,7.0,-5.0,61.0,1645098891.25,P10,D03,0,1,1
1555,8.0,-5.0,61.0,1645098891.28125,P10,D03,0,1,1
1556,8.0,-5.0,61.0,1645098891.3125,P10,D03,0,1,1
1557,8.0,-6.0,61.0,1645098891.34375,P10,D03,0,1,1
1558,8.0,-5.0,61.0,1645098891.375,P10,D03,0,1,1
1559,8.0,-5.0,61.0,1645098891.40625,P10,D03,0,1,1
1560,8.0,-5.0,62.0,1645098891.4375,P10,D03,0,1,1
1561,8.0,-5.0,61.0,1645098891.46875,P10,D03,0,1,1
1562,8.0,-5.0,61.0,1645098891.5,P10,D03,0,1,1
1563,8.0,-6.0,61.0,1645098891.53125,P10,D03,0,1,1
1564,7.0,-5.0,61.0,1645098891.5625,P10,D03,0,1,1
1565,8.0,-5.0,61.0,1645098891.59375,P10,D03,0,1,1
1566,8.0,-6.0,61.0,1645098891.625,P10,D03,0,1,1
1567,8.0,-5.0,61.0,1645098891.65625,P10,D03,0,1,1
1568,8.0,-6.0,61.0,1645098891.6875,P10,D03,0,1,1
1569,8.0,-6.0,61.0,1645098891.71875,P10,D03,0,1,1
1570,8.0,-6.0,61.0,1645098891.75,P10,D03,0,1,1
1571,8.0,-5.0,62.0,1645098891.78125,P10,D03,0,1,1
1572,8.0,-6.0,61.0,1645098891.8125,P10,D03,0,1,1
1573,8.0,-5.0,61.0,1645098891.84375,P10,D03,0,1,1
1574,7.0,-5.0,62.0,1645098891.875,P10,D03,0,1,1
1575,8.0,-6.0,61.0,1645098891.90625,P10,D03,0,1,1
1576,8.0,-5.0,61.0,1645098891.9375,P10,D03,0,1,1
1577,8.0,-6.0,61.0,1645098891.96875,P10,D03,0,1,1
1578,7.0,-6.0,61.0,1645098892.0,P10,D03,0,1,1
1579,9.0,-5.0,61.0,1645098892.03125,P10,D03,0,1,1
1580,8.0,-5.0,61.0,1645098892.0625,P10,D03,0,1,1
1581,7.0,-6.0,61.0,1645098892.09375,P10,D03,0,1,1
1582,8.0,-6.0,61.0,1645098892.125,P10,D03,0,1,1
1583,8.0,-6.0,61.0,1645098892.15625,P10,D03,0,1,1
1584,8.0,-6.0,61.0,1645098892.1875,P10,D03,0,1,1
1585,8.0,-6.0,61.0,1645098892.21875,P10,D03,0,1,1
1586,9.0,-6.0,61.0,1645098892.25,P10,D03,0,1,1
1587,8.0,-5.0,62.0,1645098892.28125,P10,D03,0,1,1
1588,7.0,-6.0,61.0,1645098892.3125,P10,D03,0,1,1
1589,8.0,-5.0,62.0,1645098892.34375,P10,D03,0,1,1
1590,8.0,-5.0,61.0,1645098892.375,P10,D03,0,1,1
1591,8.0,-5.0,61.0,1645098892.40625,P10,D03,0,1,1
1592,8.0,-5.0,61.0,1645098892.4375,P10,D03,0,1,1
1593,8.0,-6.0,61.0,1645098892.46875,P10,D03,0,1,1
1594,8.0,-5.0,61.0,1645098892.5,P10,D03,0,1,1
1595,8.0,-5.0,61.0,1645098892.53125,P10,D03,0,1,1
1596,8.0,-6.0,61.0,1645098892.5625,P10,D03,0,1,1
1597,8.0,-6.0,61.0,1645098892.59375,P10,D03,0,1,1
1598,8.0,-5.0,61.0,1645098892.625,P10,D03,0,1,1
1599,8.0,-6.0,61.0,1645098892.65625,P10,D03,0,1,1
1600,8.0,-6.0,61.0,1645098892.6875,P10,D03,0,1,1
1601,8.0,-5.0,61.0,1645098892.71875,P10,D03,0,1,1
1602,8.0,-5.0,61.0,1645098892.75,P10,D03,0,1,1
1603,8.0,-5.0,61.0,1645098892.78125,P10,D03,0,1,1
1604,8.0,-6.0,61.0,1645098892.8125,P10,D03,0,1,1
1605,8.0,-5.0,61.0,1645098892.84375,P10,D03,0,1,1
1606,8.0,-6.0,61.0,1645098892.875,P10,D03,0,1,1
1607,8.0,-6.0,61.0,1645098892.90625,P10,D03,0,1,1
1608,7.0,-5.0,61.0,1645098892.9375,P10,D03,0,1,1
1609,8.0,-6.0,61.0,1645098892.96875,P10,D03,0,1,1
1610,8.0,-6.0,62.0,1645098893.0,P10,D03,0,1,1
1611,7.0,-5.0,62.0,1645098893.03125,P10,D03,0,1,1
1612,8.0,-5.0,61.0,1645098893.0625,P10,D03,0,1,1
1613,8.0,-6.0,61.0,1645098893.09375,P10,D03,0,1,1
1614,7.0,-6.0,62.0,1645098893.125,P10,D03,0,1,1
1615,7.0,-5.0,61.0,1645098893.15625,P10,D03,0,1,1
1616,8.0,-6.0,61.0,1645098893.1875,P10,D03,0,1,1
1617,8.0,-5.0,61.0,1645098893.21875,P10,D03,0,1,1
1618,7.0,-5.0,61.0,1645098893.25,P10,D03,0,1,1
1619,8.0,-6.0,61.0,1645098893.28125,P10,D03,0,1,1
1620,8.0,-6.0,61.0,1645098893.3125,P10,D03,0,1,1
1621,8.0,-5.0,61.0,1645098893.34375,P10,D03,0,1,1
1622,8.0,-5.0,61.0,1645098893.375,P10,D03,0,1,1
1623,8.0,-6.0,61.0,1645098893.40625,P10,D03,0,1,1
1624,8.0,-5.0,61.0,1645098893.4375,P10,D03,0,1,1
1625,8.0,-6.0,61.0,1645098893.46875,P10,D03,0,1,1
1626,8.0,-6.0,61.0,1645098893.5,P10,D03,0,1,1
1627,8.0,-5.0,61.0,1645098893.53125,P10,D03,0,1,1
1628,7.0,-6.0,61.0,1645098893.5625,P10,D03,0,1,1
1629,8.0,-6.0,61.0,1645098893.59375,P10,D03,0,1,1
1630,8.0,-6.0,61.0,1645098893.625,P10,D03,0,1,1
1631,8.0,-6.0,61.0,1645098893.65625,P10,D03,0,1,1
1632,7.0,-5.0,61.0,1645098893.6875,P10,D03,0,1,1
1633,8.0,-5.0,62.0,1645098893.71875,P10,D03,0,1,1
1634,8.0,-6.0,61.0,1645098893.75,P10,D03,0,1,1
1635,8.0,-6.0,61.0,1645098893.78125,P10,D03,0,1,1
1636,8.0,-5.0,61.0,1645098893.8125,P10,D03,0,1,1
1637,8.0,-5.0,61.0,1645098893.84375,P10,D03,0,1,1
1638,8.0,-5.0,61.0,1645098893.875,P10,D03,0,1,1
1639,8.0,-6.0,62.0,1645098893.90625,P10,D03,0,1,1
1640,8.0,-5.0,61.0,1645098893.9375,P10,D03,0,1,1
1641,9.0,-5.0,61.0,1645098893.96875,P10,D03,0,1,1
1642,8.0,-6.0,61.0,1645098894.0,P10,D03,0,1,1
1643,6.0,-5.0,61.0,1645098894.03125,P10,D03,0,1,1
1644,8.0,-5.0,62.0,1645098894.0625,P10,D03,0,1,1
1645,9.0,-7.0,61.0,1645098894.09375,P10,D03,0,1,1
1646,7.0,-6.0,61.0,1645098894.125,P10,D03,0,1,1
1647,6.0,-5.0,61.0,1645098894.15625,P10,D03,0,1,1
1648,8.0,-6.0,61.0,1645098894.1875,P10,D03,0,1,1
1649,9.0,-6.0,61.0,1645098894.21875,P10,D03,0,1,1
1650,6.0,-5.0,62.0,1645098894.25,P10,D03,0,1,1
1651,7.0,-6.0,61.0,1645098894.28125,P10,D03,0,1,1
1652,9.0,-6.0,61.0,1645098894.3125,P10,D03,0,1,1
1653,8.0,-5.0,61.0,1645098894.34375,P10,D03,0,1,1
1654,7.0,-5.0,62.0,1645098894.375,P10,D03,0,1,1
1655,8.0,-6.0,61.0,1645098894.40625,P10,D03,0,1,1
1656,9.0,-5.0,62.0,1645098894.4375,P10,D03,0,1,1
1657,8.0,-6.0,62.0,1645098894.46875,P10,D03,0,1,1
1658,8.0,-5.0,62.0,1645098894.5,P10,D03,0,1,1
1659,8.0,-5.0,61.0,1645098894.53125,P10,D03,0,1,1
1660,9.0,-6.0,61.0,1645098894.5625,P10,D03,0,1,1
1661,7.0,-5.0,61.0,1645098894.59375,P10,D03,0,1,1
1662,7.0,-5.0,61.0,1645098894.625,P10,D03,0,1,1
1663,9.0,-6.0,61.0,1645098894.65625,P10,D03,0,1,1
1664,8.0,-6.0,61.0,1645098894.6875,P10,D03,0,1,1
1665,8.0,-6.0,62.0,1645098894.71875,P10,D03,0,1,1
1666,8.0,-6.0,61.0,1645098894.75,P10,D03,0,1,1
1667,8.0,-5.0,61.0,1645098894.78125,P10,D03,0,1,1
1668,8.0,-6.0,61.0,1645098894.8125,P10,D03,0,1,1
1669,8.0,-6.0,61.0,1645098894.84375,P10,D03,0,1,1
1670,8.0,-6.0,62.0,1645098894.875,P10,D03,0,1,1
1671,8.0,-5.0,61.0,1645098894.90625,P10,D03,0,1,1
1672,8.0,-6.0,61.0,1645098894.9375,P10,D03,0,1,1
1673,8.0,-6.0,61.0,1645098894.96875,P10,D03,0,1,1
1674,8.0,-6.0,61.0,1645098895.0,P10,D03,0,1,1
1675,8.0,-6.0,61.0,1645098895.03125,P10,D03,0,1,1
1676,8.0,-5.0,61.0,1645098895.0625,P10,D03,0,1,1
1677,12.0,-5.0,62.0,1645098895.09375,P10,D03,0,1,1
1678,8.0,-6.0,61.0,1645098895.125,P10,D03,0,1,1
1679,8.0,-6.0,61.0,1645098895.15625,P10,D03,0,1,1
1680,9.0,-5.0,61.0,1645098895.1875,P10,D03,0,1,1
1681,10.0,-5.0,61.0,1645098895.21875,P10,D03,0,1,1
1682,9.0,-6.0,61.0,1645098895.25,P10,D03,0,1,1
1683,9.0,-5.0,61.0,1645098895.28125,P10,D03,0,1,1
1684,10.0,-6.0,61.0,1645098895.3125,P10,D03,0,1,1
1685,8.0,-5.0,61.0,1645098895.34375,P10,D03,0,1,1
1686,9.0,-5.0,61.0,1645098895.375,P10,D03,0,1,1
1687,10.0,-6.0,61.0,1645098895.40625,P10,D03,0,1,1
1688,9.0,-5.0,61.0,1645098895.4375,P10,D03,0,1,1
1689,8.0,-6.0,61.0,1645098895.46875,P10,D03,0,1,1
1690,9.0,-6.0,61.0,1645098895.5,P10,D03,0,1,1
1691,10.0,-6.0,61.0,1645098895.53125,P10,D03,0,1,1
1692,8.0,-5.0,61.0,1645098895.5625,P10,D03,0,1,1
1693,9.0,-6.0,61.0,1645098895.59375,P10,D03,0,1,1
1694,10.0,-6.0,61.0,1645098895.625,P10,D03,0,1,1
1695,9.0,-6.0,61.0,1645098895.65625,P10,D03,0,1,1
1696,8.0,-5.0,61.0,1645098895.6875,P10,D03,0,1,1
1697,9.0,-5.0,61.0,1645098895.71875,P10,D03,0,1,1
1698,10.0,-5.0,61.0,1645098895.75,P10,D03,0,1,1
1699,9.0,-6.0,61.0,1645098895.78125,P10,D03,0,1,1
1700,9.0,-6.0,61.0,1645098895.8125,P10,D03,0,1,1
1701,9.0,-5.0,61.0,1645098895.84375,P10,D03,0,1,1
1702,9.0,-6.0,61.0,1645098895.875,P10,D03,0,1,1
1703,9.0,-6.0,61.0,1645098895.90625,P10,D03,0,1,1
1704,9.0,-5.0,61.0,1645098895.9375,P10,D03,0,1,1
1705,9.0,-5.0,61.0,1645098895.96875,P10,D03,0,1,1
1706,9.0,-6.0,61.0,1645098896.0,P10,D03,0,1,1
1707,8.0,-5.0,61.0,1645098896.03125,P10,D03,0,1,1
1708,9.0,-5.0,61.0,1645098896.0625,P10,D03,0,1,1
1709,9.0,-6.0,61.0,1645098896.09375,P10,D03,0,1,1
1710,9.0,-6.0,61.0,1645098896.125,P10,D03,0,1,1
1711,9.0,-5.0,61.0,1645098896.15625,P10,D03,0,1,1
1712,9.0,-6.0,61.0,1645098896.1875,P10,D03,0,1,1
1713,9.0,-5.0,61.0,1645098896.21875,P10,D03,0,1,1
1714,9.0,-5.0,61.0,1645098896.25,P10,D03,0,1,1
1715,9.0,-5.0,61.0,1645098896.28125,P10,D03,0,1,1
1716,9.0,-5.0,61.0,1645098896.3125,P10,D03,0,1,1
1717,8.0,-6.0,61.0,1645098896.34375,P10,D03,0,1,1
1718,9.0,-6.0,61.0,1645098896.375,P10,D03,0,1,1
1719,9.0,-6.0,61.0,1645098896.40625,P10,D03,0,1,1
1720,9.0,-6.0,61.0,1645098896.4375,P10,D03,0,1,1
1721,9.0,-6.0,61.0,1645098896.46875,P10,D03,0,1,1
1722,8.0,-5.0,61.0,1645098896.5,P10,D03,0,1,1
1723,9.0,-6.0,61.0,1645098896.53125,P10,D03,0,1,1
1724,9.0,-5.0,61.0,1645098896.5625,P10,D03,0,1,1
1725,8.0,-5.0,61.0,1645098896.59375,P10,D03,0,1,1
1726,9.0,-5.0,62.0,1645098896.625,P10,D03,0,1,1
1727,9.0,-6.0,61.0,1645098896.65625,P10,D03,0,1,1
1728,9.0,-5.0,62.0,1645098896.6875,P10,D03,0,1,1
1729,9.0,-5.0,61.0,1645098896.71875,P10,D03,0,1,1
1730,8.0,-5.0,61.0,1645098896.75,P10,D03,0,1,1
1731,8.0,-6.0,61.0,1645098896.78125,P10,D03,0,1,1
1732,9.0,-6.0,61.0,1645098896.8125,P10,D03,0,1,1
1733,9.0,-5.0,61.0,1645098896.84375,P10,D03,0,1,1
1734,9.0,-6.0,61.0,1645098896.875,P10,D03,0,1,1
1735,8.0,-6.0,61.0,1645098896.90625,P10,D03,0,1,1
1736,9.0,-6.0,61.0,1645098896.9375,P10,D03,0,1,1
1737,9.0,-5.0,61.0,1645098896.96875,P10,D03,0,1,1
1738,8.0,-6.0,61.0,1645098897.0,P10,D03,0,1,1
1739,9.0,-5.0,61.0,1645098897.03125,P10,D03,0,1,1
1740,9.0,-5.0,61.0,1645098897.0625,P10,D03,0,1,1
1741,8.0,-6.0,61.0,1645098897.09375,P10,D03,0,1,1
1742,8.0,-5.0,61.0,1645098897.125,P10,D03,0,1,1
1743,9.0,-5.0,61.0,1645098897.15625,P10,D03,0,1,1
1744,8.0,-6.0,61.0,1645098897.1875,P10,D03,0,1,1
1745,8.0,-5.0,62.0,1645098897.21875,P10,D03,0,1,1
1746,9.0,-6.0,61.0,1645098897.25,P10,D03,0,1,1
1747,9.0,-5.0,61.0,1645098897.28125,P10,D03,0,1,1
1748,9.0,-6.0,61.0,1645098897.3125,P10,D03,0,1,1
1749,9.0,-5.0,61.0,1645098897.34375,P10,D03,0,1,1
1750,8.0,-5.0,61.0,1645098897.375,P10,D03,0,1,1
1751,9.0,-5.0,61.0,1645098897.40625,P10,D03,0,1,1
1752,9.0,-5.0,61.0,1645098897.4375,P10,D03,0,1,1
1753,8.0,-6.0,61.0,1645098897.46875,P10,D03,0,1,1
1754,9.0,-6.0,61.0,1645098897.5,P10,D03,0,1,1
1755,9.0,-6.0,62.0,1645098897.53125,P10,D03,0,1,1
1756,9.0,-6.0,61.0,1645098897.5625,P10,D03,0,1,1
1757,9.0,-5.0,61.0,1645098897.59375,P10,D03,0,1,1
1758,9.0,-5.0,61.0,1645098897.625,P10,D03,0,1,1
1759,9.0,-5.0,61.0,1645098897.65625,P10,D03,0,1,1
1760,9.0,-5.0,61.0,1645098897.6875,P10,D03,0,1,1
1761,9.0,-5.0,61.0,1645098897.71875,P10,D03,0,1,1
1762,9.0,-5.0,61.0,1645098897.75,P10,D03,0,1,1
1763,9.0,-6.0,61.0,1645098897.78125,P10,D03,0,1,1
1764,8.0,-5.0,61.0,1645098897.8125,P10,D03,0,1,1
1765,9.0,-5.0,61.0,1645098897.84375,P10,D03,0,1,1
1766,9.0,-6.0,61.0,1645098897.875,P10,D03,0,1,1
1767,9.0,-6.0,61.0,1645098897.90625,P10,D03,0,1,1
1768,9.0,-5.0,61.0,1645098897.9375,P10,D03,0,1,1
1769,9.0,-6.0,61.0,1645098897.96875,P10,D03,0,1,1
1770,9.0,-6.0,61.0,1645098898.0,P10,D03,0,1,1
1771,9.0,-5.0,61.0,1645098898.03125,P10,D03,0,1,1
1772,9.0,-5.0,61.0,1645098898.0625,P10,D03,0,1,1
1773,9.0,-6.0,61.0,1645098898.09375,P10,D03,0,1,1
1774,9.0,-6.0,61.0,1645098898.125,P10,D03,0,1,1
1775,9.0,-5.0,61.0,1645098898.15625,P10,D03,0,1,1
1776,9.0,-6.0,61.0,1645098898.1875,P10,D03,0,1,1
1777,9.0,-5.0,61.0,1645098898.21875,P10,D03,0,1,1
1778,9.0,-5.0,61.0,1645098898.25,P10,D03,0,1,1
1779,9.0,-6.0,61.0,1645098898.28125,P10,D03,0,1,1
1780,9.0,-6.0,62.0,1645098898.3125,P10,D03,0,1,1
1781,8.0,-5.0,61.0,1645098898.34375,P10,D03,0,1,1
1782,9.0,-6.0,61.0,1645098898.375,P10,D03,0,1,1
1783,9.0,-5.0,61.0,1645098898.40625,P10,D03,0,1,1
1784,9.0,-5.0,61.0,1645098898.4375,P10,D03,0,1,1
1785,9.0,-5.0,61.0,1645098898.46875,P10,D03,0,1,1
1786,9.0,-5.0,61.0,1645098898.5,P10,D03,0,1,1
1787,8.0,-6.0,61.0,1645098898.53125,P10,D03,0,1,1
1788,9.0,-6.0,61.0,1645098898.5625,P10,D03,0,1,1
1789,9.0,-5.0,61.0,1645098898.59375,P10,D03,0,1,1
1790,8.0,-5.0,61.0,1645098898.625,P10,D03,0,1,1
1791,8.0,-6.0,61.0,1645098898.65625,P10,D03,0,1,1
1792,9.0,-5.0,62.0,1645098898.6875,P10,D03,0,1,1
1793,9.0,-5.0,61.0,1645098898.71875,P10,D03,0,1,1
1794,9.0,-5.0,61.0,1645098898.75,P10,D03,0,1,1
1795,9.0,-5.0,61.0,1645098898.78125,P10,D03,0,1,1
1796,9.0,-5.0,61.0,1645098898.8125,P10,D03,0,1,1
1797,9.0,-5.0,61.0,1645098898.84375,P10,D03,0,1,1
1798,9.0,-5.0,61.0,1645098898.875,P10,D03,0,1,1
1799,9.0,-5.0,61.0,1645098898.90625,P10,D03,0,1,1
1800,9.0,-5.0,61.0,1645098898.9375,P10,D03,0,1,1
1801,9.0,-5.0,61.0,1645098898.96875,P10,D03,0,1,1
1802,9.0,-5.0,61.0,1645098899.0,P10,D03,0,1,1
1803,9.0,-6.0,61.0,1645098899.03125,P10,D03,0,1,1
1804,9.0,-5.0,61.0,1645098899.0625,P10,D03,0,1,1
1805,9.0,-6.0,61.0,1645098899.09375,P10,D03,0,1,1
1806,9.0,-5.0,61.0,1645098899.125,P10,D03,0,1,1
1807,9.0,-5.0,61.0,1645098899.15625,P10,D03,0,1,1
1808,9.0,-5.0,61.0,1645098899.1875,P10,D03,0,1,1
1809,9.0,-5.0,61.0,1645098899.21875,P10,D03,0,1,1
1810,9.0,-5.0,61.0,1645098899.25,P10,D03,0,1,1
1811,9.0,-6.0,61.0,1645098899.28125,P10,D03,0,1,1
1812,9.0,-6.0,61.0,1645098899.3125,P10,D03,0,1,1
1813,9.0,-5.0,61.0,1645098899.34375,P10,D03,0,1,1
1814,9.0,-5.0,61.0,1645098899.375,P10,D03,0,1,1
1815,9.0,-5.0,61.0,1645098899.40625,P10,D03,0,1,1
1816,9.0,-6.0,61.0,1645098899.4375,P10,D03,0,1,1
1817,9.0,-5.0,61.0,1645098899.46875,P10,D03,0,1,1
1818,9.0,-5.0,62.0,1645098899.5,P10,D03,0,1,1
1819,9.0,-5.0,61.0,1645098899.53125,P10,D03,0,1,1
1820,9.0,-6.0,61.0,1645098899.5625,P10,D03,0,1,1
1821,9.0,-6.0,61.0,1645098899.59375,P10,D03,0,1,1
1822,8.0,-5.0,61.0,1645098899.625,P10,D03,0,1,1
1823,9.0,-6.0,61.0,1645098899.65625,P10,D03,0,1,1
1824,9.0,-6.0,61.0,1645098899.6875,P10,D03,0,1,1
1825,9.0,-5.0,61.0,1645098899.71875,P10,D03,0,1,1
1826,8.0,-5.0,61.0,1645098899.75,P10,D03,0,1,1
1827,9.0,-6.0,61.0,1645098899.78125,P10,D03,0,1,1
1828,9.0,-5.0,61.0,1645098899.8125,P10,D03,0,1,1
1829,9.0,-6.0,61.0,1645098899.84375,P10,D03,0,1,1
1830,9.0,-6.0,61.0,1645098899.875,P10,D03,0,1,1
1831,8.0,-5.0,61.0,1645098899.90625,P10,D03,0,1,1
1832,9.0,-5.0,61.0,1645098899.9375,P10,D03,0,1,1
1833,9.0,-5.0,61.0,1645098899.96875,P10,D03,0,1,1
1834,9.0,-5.0,61.0,1645098900.0,P10,D03,0,1,1
1835,9.0,-5.0,61.0,1645098900.03125,P10,D03,0,1,1
1836,9.0,-5.0,61.0,1645098900.0625,P10,D03,0,1,1
1837,8.0,-5.0,61.0,1645098900.09375,P10,D03,0,1,1
1838,9.0,-5.0,61.0,1645098900.125,P10,D03,0,1,1
1839,9.0,-6.0,61.0,1645098900.15625,P10,D03,0,1,1
1840,9.0,-5.0,61.0,1645098900.1875,P10,D03,0,1,1
1841,9.0,-5.0,61.0,1645098900.21875,P10,D03,0,1,1
1842,9.0,-6.0,61.0,1645098900.25,P10,D03,0,1,1
1843,9.0,-6.0,61.0,1645098900.28125,P10,D03,0,1,1
1844,9.0,-5.0,61.0,1645098900.3125,P10,D03,0,1,1
1845,9.0,-5.0,61.0,1645098900.34375,P10,D03,0,1,1
1846,9.0,-6.0,61.0,1645098900.375,P10,D03,0,1,1
1847,9.0,-5.0,61.0,1645098900.40625,P10,D03,0,1,1
1848,9.0,-5.0,61.0,1645098900.4375,P10,D03,0,1,1
1849,9.0,-6.0,61.0,1645098900.46875,P10,D03,0,1,1
1850,8.0,-5.0,62.0,1645098900.5,P10,D03,0,1,1
1851,9.0,-5.0,61.0,1645098900.53125,P10,D03,0,1,1
1852,9.0,-5.0,61.0,1645098900.5625,P10,D03,0,1,1
1853,9.0,-5.0,61.0,1645098900.59375,P10,D03,0,1,1
1854,8.0,-6.0,61.0,1645098900.625,P10,D03,0,1,1
1855,9.0,-5.0,61.0,1645098900.65625,P10,D03,0,1,1
1856,9.0,-5.0,61.0,1645098900.6875,P10,D03,0,1,1
1857,9.0,-6.0,61.0,1645098900.71875,P10,D03,0,1,1
1858,9.0,-5.0,61.0,1645098900.75,P10,D03,0,1,1
1859,9.0,-5.0,61.0,1645098900.78125,P10,D03,0,1,1
1860,9.0,-5.0,62.0,1645098900.8125,P10,D03,0,1,1
1861,9.0,-6.0,61.0,1645098900.84375,P10,D03,0,1,1
1862,9.0,-5.0,61.0,1645098900.875,P10,D03,0,1,1
1863,8.0,-5.0,61.0,1645098900.90625,P10,D03,0,1,1
1864,9.0,-6.0,61.0,1645098900.9375,P10,D03,0,1,1
1865,9.0,-6.0,61.0,1645098900.96875,P10,D03,0,1,1
1866,9.0,-5.0,61.0,1645098901.0,P10,D03,0,1,1
1867,9.0,-5.0,61.0,1645098901.03125,P10,D03,0,1,1
1868,9.0,-6.0,61.0,1645098901.0625,P10,D03,0,1,1
1869,9.0,-5.0,61.0,1645098901.09375,P10,D03,0,1,1
1870,9.0,-5.0,61.0,1645098901.125,P10,D03,0,1,1
1871,8.0,-6.0,61.0,1645098901.15625,P10,D03,0,1,1
1872,9.0,-5.0,61.0,1645098901.1875,P10,D03,0,1,1
1873,9.0,-6.0,61.0,1645098901.21875,P10,D03,0,1,1
1874,9.0,-5.0,61.0,1645098901.25,P10,D03,0,1,1
1875,9.0,-5.0,61.0,1645098901.28125,P10,D03,0,1,1
1876,9.0,-6.0,61.0,1645098901.3125,P10,D03,0,1,1
1877,9.0,-5.0,61.0,1645098901.34375,P10,D03,0,1,1
1878,9.0,-5.0,61.0,1645098901.375,P10,D03,0,1,1
1879,8.0,-6.0,61.0,1645098901.40625,P10,D03,0,1,1
1880,9.0,-6.0,61.0,1645098901.4375,P10,D03,0,1,1
1881,9.0,-5.0,61.0,1645098901.46875,P10,D03,0,1,1
1882,9.0,-5.0,61.0,1645098901.5,P10,D03,0,1,1
1883,8.0,-6.0,61.0,1645098901.53125,P10,D03,0,1,1
1884,9.0,-5.0,61.0,1645098901.5625,P10,D03,0,1,1
1885,9.0,-5.0,61.0,1645098901.59375,P10,D03,0,1,1
1886,9.0,-5.0,61.0,1645098901.625,P10,D03,0,1,1
1887,8.0,-5.0,61.0,1645098901.65625,P10,D03,0,1,1
1888,8.0,-5.0,61.0,1645098901.6875,P10,D03,0,1,1
1889,9.0,-5.0,62.0,1645098901.71875,P10,D03,0,1,1
1890,9.0,-5.0,61.0,1645098901.75,P10,D03,0,1,1
1891,8.0,-5.0,61.0,1645098901.78125,P10,D03,0,1,1
1892,8.0,-6.0,61.0,1645098901.8125,P10,D03,0,1,1
1893,9.0,-5.0,61.0,1645098901.84375,P10,D03,0,1,1
1894,9.0,-5.0,61.0,1645098901.875,P10,D03,0,1,1
1895,8.0,-6.0,61.0,1645098901.90625,P10,D03,0,1,1
1896,9.0,-5.0,61.0,1645098901.9375,P10,D03,0,1,1
1897,8.0,-6.0,61.0,1645098901.96875,P10,D03,0,1,1
1898,8.0,-6.0,61.0,1645098902.0,P10,D03,0,1,1
1899,9.0,-5.0,61.0,1645098902.03125,P10,D03,0,1,1
1900,9.0,-5.0,61.0,1645098902.0625,P10,D03,0,1,1
1901,8.0,-6.0,61.0,1645098902.09375,P10,D03,0,1,1
1902,9.0,-6.0,61.0,1645098902.125,P10,D03,0,1,1
1903,8.0,-5.0,61.0,1645098902.15625,P10,D03,0,1,1
1904,9.0,-6.0,61.0,1645098902.1875,P10,D03,0,1,1
1905,9.0,-5.0,61.0,1645098902.21875,P10,D03,0,1,1
1906,9.0,-5.0,61.0,1645098902.25,P10,D03,0,1,1
1907,9.0,-5.0,61.0,1645098902.28125,P10,D03,0,1,1
1908,9.0,-5.0,61.0,1645098902.3125,P10,D03,0,1,1
1909,9.0,-5.0,61.0,1645098902.34375,P10,D03,0,1,1
1910,8.0,-5.0,61.0,1645098902.375,P10,D03,0,1,1
1911,9.0,-5.0,61.0,1645098902.40625,P10,D03,0,1,1
1912,8.0,-5.0,61.0,1645098902.4375,P10,D03,0,1,1
1913,8.0,-6.0,61.0,1645098902.46875,P10,D03,0,1,1
1914,9.0,-5.0,61.0,1645098902.5,P10,D03,0,1,1
1915,9.0,-5.0,61.0,1645098902.53125,P10,D03,0,1,1
1916,8.0,-5.0,61.0,1645098902.5625,P10,D03,0,1,1
1917,8.0,-6.0,62.0,1645098902.59375,P10,D03,0,1,1
1918,9.0,-5.0,61.0,1645098902.625,P10,D03,0,1,1
1919,9.0,-5.0,61.0,1645098902.65625,P10,D03,0,1,1
1920,8.0,-5.0,61.0,1645098902.6875,P10,D03,0,1,1
1921,9.0,-5.0,62.0,1645098902.71875,P10,D03,0,1,1
1922,9.0,-5.0,61.0,1645098902.75,P10,D03,0,1,1
1923,9.0,-5.0,61.0,1645098902.78125,P10,D03,0,1,1
1924,9.0,-5.0,61.0,1645098902.8125,P10,D03,0,1,1
1925,8.0,-6.0,62.0,1645098902.84375,P10,D03,0,1,1
1926,8.0,-6.0,61.0,1645098902.875,P10,D03,0,1,1
1927,9.0,-5.0,61.0,1645098902.90625,P10,D03,0,1,1
1928,9.0,-5.0,61.0,1645098902.9375,P10,D03,0,1,1
1929,9.0,-6.0,61.0,1645098902.96875,P10,D03,0,1,1
1930,9.0,-5.0,61.0,1645098903.0,P10,D03,0,1,1
1931,8.0,-5.0,61.0,1645098903.03125,P10,D03,0,1,1
1932,9.0,-5.0,61.0,1645098903.0625,P10,D03,0,1,1
1933,9.0,-5.0,61.0,1645098903.09375,P10,D03,0,1,1
1934,8.0,-6.0,61.0,1645098903.125,P10,D03,0,1,1
1935,9.0,-5.0,61.0,1645098903.15625,P10,D03,0,1,1
1936,9.0,-6.0,61.0,1645098903.1875,P10,D03,0,1,1
1937,9.0,-5.0,61.0,1645098903.21875,P10,D03,0,1,1
1938,9.0,-5.0,61.0,1645098903.25,P10,D03,0,1,1
1939,9.0,-6.0,61.0,1645098903.28125,P10,D03,0,1,1
1940,9.0,-5.0,61.0,1645098903.3125,P10,D03,0,1,1
1941,9.0,-5.0,61.0,1645098903.34375,P10,D03,0,1,1
1942,8.0,-6.0,61.0,1645098903.375,P10,D03,0,1,1
1943,9.0,-5.0,61.0,1645098903.40625,P10,D03,0,1,1
1944,9.0,-6.0,61.0,1645098903.4375,P10,D03,0,1,1
1945,9.0,-5.0,62.0,1645098903.46875,P10,D03,0,1,1
1946,9.0,-5.0,61.0,1645098903.5,P10,D03,0,1,1
1947,9.0,-5.0,61.0,1645098903.53125,P10,D03,0,1,1
1948,9.0,-6.0,61.0,1645098903.5625,P10,D03,0,1,1
1949,9.0,-6.0,61.0,1645098903.59375,P10,D03,0,1,1
1950,9.0,-5.0,61.0,1645098903.625,P10,D03,0,1,1
1951,9.0,-5.0,61.0,1645098903.65625,P10,D03,0,1,1
1952,9.0,-5.0,61.0,1645098903.6875,P10,D03,0,1,1
1953,9.0,-6.0,61.0,1645098903.71875,P10,D03,0,1,1
1954,9.0,-5.0,61.0,1645098903.75,P10,D03,0,1,1
1955,9.0,-5.0,61.0,1645098903.78125,P10,D03,0,1,1
1956,9.0,-5.0,62.0,1645098903.8125,P10,D03,0,1,1
1957,9.0,-5.0,61.0,1645098903.84375,P10,D03,0,1,1
1958,9.0,-5.0,61.0,1645098903.875,P10,D03,0,1,1
1959,9.0,-5.0,61.0,1645098903.90625,P10,D03,0,1,1
1960,9.0,-5.0,61.0,1645098903.9375,P10,D03,0,1,1
1961,9.0,-5.0,61.0,1645098903.96875,P10,D03,0,1,1
1962,9.0,-5.0,61.0,1645098904.0,P10,D03,0,1,1
1963,9.0,-5.0,61.0,1645098904.03125,P10,D03,0,1,1
1964,9.0,-6.0,61.0,1645098904.0625,P10,D03,0,1,1
1965,9.0,-5.0,61.0,1645098904.09375,P10,D03,0,1,1
1966,9.0,-5.0,61.0,1645098904.125,P10,D03,0,1,1
1967,9.0,-5.0,61.0,1645098904.15625,P10,D03,0,1,1
1968,9.0,-5.0,61.0,1645098904.1875,P10,D03,0,1,1
1969,9.0,-5.0,62.0,1645098904.21875,P10,D03,0,1,1
1970,9.0,-5.0,61.0,1645098904.25,P10,D03,0,1,1
1971,9.0,-5.0,61.0,1645098904.28125,P10,D03,0,1,1
1972,8.0,-6.0,61.0,1645098904.3125,P10,D03,0,1,1
1973,8.0,-5.0,61.0,1645098904.34375,P10,D03,0,1,1
1974,9.0,-5.0,61.0,1645098904.375,P10,D03,0,1,1
1975,9.0,-5.0,61.0,1645098904.40625,P10,D03,0,1,1
1976,8.0,-6.0,61.0,1645098904.4375,P10,D03,0,1,1
1977,9.0,-5.0,61.0,1645098904.46875,P10,D03,0,1,1
1978,9.0,-5.0,61.0,1645098904.5,P10,D03,0,1,1
1979,9.0,-6.0,61.0,1645098904.53125,P10,D03,0,1,1
1980,9.0,-5.0,61.0,1645098904.5625,P10,D03,0,1,1
1981,8.0,-6.0,61.0,1645098904.59375,P10,D03,0,1,1
1982,8.0,-5.0,61.0,1645098904.625,P10,D03,0,1,1
1983,8.0,-5.0,61.0,1645098904.65625,P10,D03,0,1,1
1984,9.0,-6.0,61.0,1645098904.6875,P10,D03,0,1,1
1985,9.0,-5.0,61.0,1645098904.71875,P10,D03,0,1,1
1986,9.0,-5.0,61.0,1645098904.75,P10,D03,0,1,1
1987,9.0,-5.0,61.0,1645098904.78125,P10,D03,0,1,1
1988,8.0,-6.0,61.0,1645098904.8125,P10,D03,0,1,1
1989,9.0,-5.0,61.0,1645098904.84375,P10,D03,0,1,1
1990,9.0,-5.0,61.0,1645098904.875,P10,D03,0,1,1
1991,8.0,-6.0,61.0,1645098904.90625,P10,D03,0,1,1
1992,8.0,-6.0,61.0,1645098904.9375,P10,D03,0,1,1
1993,9.0,-5.0,61.0,1645098904.96875,P10,D03,0,1,1
1994,8.0,-6.0,61.0,1645098905.0,P10,D03,0,1,1
1995,9.0,-5.0,61.0,1645098905.03125,P10,D03,0,1,1
1996,9.0,-5.0,62.0,1645098905.0625,P10,D03,0,1,1
1997,8.0,-5.0,61.0,1645098905.09375,P10,D03,0,1,1
1998,8.0,-6.0,61.0,1645098905.125,P10,D03,0,1,1
1999,9.0,-5.0,61.0,1645098905.15625,P10,D03,0,1,1
2000,9.0,-5.0,61.0,1645098905.1875,P10,D03,0,1,1
2001,8.0,-5.0,61.0,1645098905.21875,P10,D03,0,1,1
2002,9.0,-5.0,61.0,1645098905.25,P10,D03,0,1,1
2003,8.0,-5.0,61.0,1645098905.28125,P10,D03,0,1,1
2004,9.0,-5.0,62.0,1645098905.3125,P10,D03,0,1,1
2005,8.0,-6.0,61.0,1645098905.34375,P10,D03,0,1,1
2006,9.0,-5.0,61.0,1645098905.375,P10,D03,0,1,1
2007,9.0,-5.0,62.0,1645098905.40625,P10,D03,0,1,1
2008,9.0,-5.0,61.0,1645098905.4375,P10,D03,0,1,1
2009,9.0,-5.0,61.0,1645098905.46875,P10,D03,0,1,1
2010,9.0,-5.0,61.0,1645098905.5,P10,D03,0,1,1
2011,9.0,-5.0,61.0,1645098905.53125,P10,D03,0,1,1
2012,9.0,-5.0,61.0,1645098905.5625,P10,D03,0,1,1
2013,8.0,-5.0,61.0,1645098905.59375,P10,D03,0,1,1
2014,8.0,-5.0,61.0,1645098905.625,P10,D03,0,1,1
2015,9.0,-5.0,61.0,1645098905.65625,P10,D03,0,1,1
2016,8.0,-5.0,61.0,1645098905.6875,P10,D03,0,1,1
2017,9.0,-5.0,61.0,1645098905.71875,P10,D03,0,1,1
2018,9.0,-5.0,61.0,1645098905.75,P10,D03,0,1,1
2019,8.0,-6.0,61.0,1645098905.78125,P10,D03,0,1,1
2020,9.0,-5.0,61.0,1645098905.8125,P10,D03,0,1,1
2021,9.0,-5.0,61.0,1645098905.84375,P10,D03,0,1,1
2022,9.0,-5.0,61.0,1645098905.875,P10,D03,0,1,1
2023,9.0,-5.0,61.0,1645098905.90625,P10,D03,0,1,1
2024,9.0,-5.0,61.0,1645098905.9375,P10,D03,0,1,1
2025,8.0,-5.0,62.0,1645098905.96875,P10,D03,0,1,1
2026,9.0,-5.0,61.0,1645098906.0,P10,D03,0,1,1
2027,9.0,-5.0,61.0,1645098906.03125,P10,D03,0,1,1
2028,8.0,-6.0,61.0,1645098906.0625,P10,D03,0,1,1
2029,9.0,-6.0,61.0,1645098906.09375,P10,D03,0,1,1
2030,9.0,-6.0,61.0,1645098906.125,P10,D03,0,1,1
2031,9.0,-5.0,61.0,1645098906.15625,P10,D03,0,1,1
2032,9.0,-6.0,62.0,1645098906.1875,P10,D03,0,1,1
2033,9.0,-5.0,61.0,1645098906.21875,P10,D03,0,1,1
2034,9.0,-5.0,61.0,1645098906.25,P10,D03,0,1,1
2035,8.0,-5.0,61.0,1645098906.28125,P10,D03,0,1,1
2036,9.0,-6.0,61.0,1645098906.3125,P10,D03,0,1,1
2037,9.0,-5.0,61.0,1645098906.34375,P10,D03,0,1,1
2038,8.0,-5.0,61.0,1645098906.375,P10,D03,0,1,1
2039,9.0,-6.0,61.0,1645098906.40625,P10,D03,0,1,1
2040,9.0,-5.0,61.0,1645098906.4375,P10,D03,0,1,1
2041,9.0,-5.0,61.0,1645098906.46875,P10,D03,0,1,1
2042,9.0,-5.0,61.0,1645098906.5,P10,D03,0,1,1
2043,9.0,-5.0,61.0,1645098906.53125,P10,D03,0,1,1
2044,9.0,-5.0,61.0,1645098906.5625,P10,D03,0,1,1
2045,9.0,-5.0,61.0,1645098906.59375,P10,D03,0,1,1
2046,9.0,-5.0,61.0,1645098906.625,P10,D03,0,1,1
2047,9.0,-5.0,61.0,1645098906.65625,P10,D03,0,1,1
2048,9.0,-5.0,61.0,1645098906.6875,P10,D03,0,1,1
2049,9.0,-5.0,61.0,1645098906.71875,P10,D03,0,1,1
2050,9.0,-5.0,61.0,1645098906.75,P10,D03,0,1,1
2051,9.0,-5.0,61.0,1645098906.78125,P10,D03,0,1,1
2052,9.0,-5.0,61.0,1645098906.8125,P10,D03,0,1,1
2053,9.0,-5.0,61.0,1645098906.84375,P10,D03,0,1,1
2054,9.0,-5.0,61.0,1645098906.875,P10,D03,0,1,1
2055,9.0,-5.0,62.0,1645098906.90625,P10,D03,0,1,1
2056,9.0,-5.0,61.0,1645098906.9375,P10,D03,0,1,1
2057,9.0,-5.0,61.0,1645098906.96875,P10,D03,0,1,1
2058,9.0,-6.0,61.0,1645098907.0,P10,D03,0,1,1
2059,9.0,-5.0,61.0,1645098907.03125,P10,D03,0,1,1
2060,9.0,-5.0,61.0,1645098907.0625,P10,D03,0,1,1
2061,9.0,-5.0,61.0,1645098907.09375,P10,D03,0,1,1
2062,9.0,-5.0,61.0,1645098907.125,P10,D03,0,1,1
2063,9.0,-5.0,61.0,1645098907.15625,P10,D03,0,1,1
2064,9.0,-5.0,61.0,1645098907.1875,P10,D03,0,1,1
2065,9.0,-6.0,61.0,1645098907.21875,P10,D03,0,1,1
2066,9.0,-5.0,61.0,1645098907.25,P10,D03,0,1,1
2067,9.0,-5.0,61.0,1645098907.28125,P10,D03,0,1,1
2068,9.0,-5.0,61.0,1645098907.3125,P10,D03,0,1,1
2069,9.0,-5.0,61.0,1645098907.34375,P10,D03,0,1,1
2070,9.0,-5.0,61.0,1645098907.375,P10,D03,0,1,1
2071,9.0,-6.0,61.0,1645098907.40625,P10,D03,0,1,1
2072,9.0,-5.0,61.0,1645098907.4375,P10,D03,0,1,1
2073,9.0,-5.0,61.0,1645098907.46875,P10,D03,0,1,1
2074,9.0,-5.0,61.0,1645098907.5,P10,D03,0,1,1
2075,9.0,-5.0,61.0,1645098907.53125,P10,D03,0,1,1
2076,9.0,-5.0,61.0,1645098907.5625,P10,D03,0,1,1
2077,9.0,-5.0,61.0,1645098907.59375,P10,D03,0,1,1
2078,9.0,-6.0,61.0,1645098907.625,P10,D03,0,1,1
2079,8.0,-6.0,61.0,1645098907.65625,P10,D03,0,1,1
2080,8.0,-6.0,61.0,1645098907.6875,P10,D03,0,1,1
2081,8.0,-7.0,62.0,1645098907.71875,P10,D03,0,1,1
2082,7.0,-7.0,61.0,1645098907.75,P10,D03,0,1,1
2083,9.0,-4.0,61.0,1645098907.78125,P10,D03,0,1,1
2084,8.0,-5.0,61.0,1645098907.8125,P10,D03,0,1,1
2085,9.0,-4.0,61.0,1645098907.84375,P10,D03,0,1,1
2086,13.0,-4.0,61.0,1645098907.875,P10,D03,0,1,1
2087,9.0,-4.0,61.0,1645098907.90625,P10,D03,0,1,1
2088,8.0,-5.0,62.0,1645098907.9375,P10,D03,0,1,1
2089,7.0,-9.0,61.0,1645098907.96875,P10,D03,0,1,1
2090,10.0,-8.0,61.0,1645098908.0,P10,D03,0,1,1
2091,9.0,-6.0,61.0,1645098908.03125,P10,D03,0,1,1
2092,8.0,-5.0,61.0,1645098908.0625,P10,D03,0,1,1
2093,9.0,-4.0,61.0,1645098908.09375,P10,D03,0,1,1
2094,11.0,-4.0,61.0,1645098908.125,P10,D03,0,1,1
2095,9.0,-6.0,61.0,1645098908.15625,P10,D03,0,1,1
2096,9.0,-5.0,61.0,1645098908.1875,P10,D03,0,1,1
2097,10.0,-5.0,61.0,1645098908.21875,P10,D03,0,1,1
2098,11.0,-5.0,61.0,1645098908.25,P10,D03,0,1,1
2099,11.0,-5.0,61.0,1645098908.28125,P10,D03,0,1,1
2100,9.0,-5.0,61.0,1645098908.3125,P10,D03,0,1,1
2101,9.0,-6.0,62.0,1645098908.34375,P10,D03,0,1,1
2102,9.0,-5.0,62.0,1645098908.375,P10,D03,0,1,1
2103,10.0,-5.0,61.0,1645098908.40625,P10,D03,0,1,1
2104,10.0,-5.0,62.0,1645098908.4375,P10,D03,0,1,1
2105,8.0,-6.0,61.0,1645098908.46875,P10,D03,0,1,1
2106,6.0,-6.0,61.0,1645098908.5,P10,D03,0,1,1
2107,3.0,-7.0,61.0,1645098908.53125,P10,D03,0,1,1
2108,4.0,-6.0,62.0,1645098908.5625,P10,D03,0,1,1
2109,4.0,-6.0,61.0,1645098908.59375,P10,D03,0,1,1
2110,5.0,-6.0,61.0,1645098908.625,P10,D03,0,1,1
2111,9.0,-6.0,62.0,1645098908.65625,P10,D03,0,1,1
2112,8.0,-6.0,61.0,1645098908.6875,P10,D03,0,1,1
2113,7.0,-7.0,62.0,1645098908.71875,P10,D03,0,1,1
2114,2.0,-7.0,62.0,1645098908.75,P10,D03,0,1,1
2115,1.0,-7.0,62.0,1645098908.78125,P10,D03,0,1,1
2116,2.0,-7.0,62.0,1645098908.8125,P10,D03,0,1,1
2117,3.0,-7.0,62.0,1645098908.84375,P10,D03,0,1,1
2118,3.0,-7.0,62.0,1645098908.875,P10,D03,0,1,1
2119,3.0,-7.0,62.0,1645098908.90625,P10,D03,0,1,1
2120,3.0,-7.0,62.0,1645098908.9375,P10,D03,0,1,1
2121,3.0,-6.0,61.0,1645098908.96875,P10,D03,0,1,1
2122,5.0,-6.0,62.0,1645098909.0,P10,D03,0,1,1
2123,5.0,-7.0,62.0,1645098909.03125,P10,D03,0,1,1
2124,4.0,-7.0,62.0,1645098909.0625,P10,D03,0,1,1
2125,4.0,-7.0,62.0,1645098909.09375,P10,D03,0,1,1
2126,4.0,-7.0,62.0,1645098909.125,P10,D03,0,1,1
2127,7.0,-5.0,62.0,1645098909.15625,P10,D03,0,1,1
2128,8.0,-6.0,61.0,1645098909.1875,P10,D03,0,1,1
2129,5.0,-7.0,62.0,1645098909.21875,P10,D03,0,1,1
2130,4.0,-7.0,62.0,1645098909.25,P10,D03,0,1,1
2131,3.0,-6.0,62.0,1645098909.28125,P10,D03,0,1,1
2132,4.0,-6.0,62.0,1645098909.3125,P10,D03,0,1,1
2133,5.0,-6.0,61.0,1645098909.34375,P10,D03,0,1,1
2134,5.0,-7.0,61.0,1645098909.375,P10,D03,0,1,1
2135,6.0,-6.0,61.0,1645098909.40625,P10,D03,0,1,1
2136,7.0,-6.0,61.0,1645098909.4375,P10,D03,0,1,1
2137,7.0,-6.0,61.0,1645098909.46875,P10,D03,0,1,1
2138,7.0,-7.0,61.0,1645098909.5,P10,D03,0,1,1
2139,7.0,-7.0,61.0,1645098909.53125,P10,D03,0,1,1
2140,8.0,-6.0,62.0,1645098909.5625,P10,D03,0,1,1
2141,6.0,-7.0,61.0,1645098909.59375,P10,D03,0,1,1
2142,7.0,-6.0,61.0,1645098909.625,P10,D03,0,1,1
2143,7.0,-6.0,61.0,1645098909.65625,P10,D03,0,1,1
2144,9.0,-7.0,61.0,1645098909.6875,P10,D03,0,1,1
2145,9.0,-7.0,61.0,1645098909.71875,P10,D03,0,1,1
2146,9.0,-6.0,61.0,1645098909.75,P10,D03,0,1,1
2147,8.0,-5.0,61.0,1645098909.78125,P10,D03,0,1,1
2148,10.0,-6.0,61.0,1645098909.8125,P10,D03,0,1,1
2149,9.0,-6.0,61.0,1645098909.84375,P10,D03,0,1,1
2150,9.0,-6.0,61.0,1645098909.875,P10,D03,0,1,1
2151,10.0,-6.0,61.0,1645098909.90625,P10,D03,0,1,1
2152,10.0,-6.0,61.0,1645098909.9375,P10,D03,0,1,1
2153,9.0,-5.0,61.0,1645098909.96875,P10,D03,0,1,1
2154,9.0,-6.0,61.0,1645098910.0,P10,D03,0,1,1
2155,10.0,-5.0,61.0,1645098910.03125,P10,D03,0,1,1
2156,10.0,-5.0,61.0,1645098910.0625,P10,D03,0,1,1
2157,11.0,-5.0,61.0,1645098910.09375,P10,D03,0,1,1
2158,11.0,-6.0,61.0,1645098910.125,P10,D03,0,1,1
2159,10.0,-5.0,61.0,1645098910.15625,P10,D03,0,1,1
2160,10.0,-6.0,61.0,1645098910.1875,P10,D03,0,1,1
2161,10.0,-6.0,61.0,1645098910.21875,P10,D03,0,1,1
2162,10.0,-5.0,61.0,1645098910.25,P10,D03,0,1,1
2163,10.0,-5.0,61.0,1645098910.28125,P10,D03,0,1,1
2164,10.0,-6.0,61.0,1645098910.3125,P10,D03,0,1,1
2165,10.0,-6.0,61.0,1645098910.34375,P10,D03,0,1,1
2166,9.0,-6.0,62.0,1645098910.375,P10,D03,0,1,1
2167,10.0,-6.0,61.0,1645098910.40625,P10,D03,0,1,1
2168,10.0,-5.0,61.0,1645098910.4375,P10,D03,0,1,1
2169,10.0,-6.0,61.0,1645098910.46875,P10,D03,0,1,1
2170,9.0,-6.0,61.0,1645098910.5,P10,D03,0,1,1
2171,10.0,-6.0,61.0,1645098910.53125,P10,D03,0,1,1
2172,10.0,-5.0,61.0,1645098910.5625,P10,D03,0,1,1
2173,9.0,-5.0,61.0,1645098910.59375,P10,D03,0,1,1
2174,9.0,-6.0,61.0,1645098910.625,P10,D03,0,1,1
2175,9.0,-6.0,61.0,1645098910.65625,P10,D03,0,1,1
2176,9.0,-5.0,61.0,1645098910.6875,P10,D03,0,1,1
2177,10.0,-6.0,61.0,1645098910.71875,P10,D03,0,1,1
2178,9.0,-6.0,61.0,1645098910.75,P10,D03,0,1,1
2179,9.0,-6.0,61.0,1645098910.78125,P10,D03,0,1,1
2180,9.0,-6.0,61.0,1645098910.8125,P10,D03,0,1,1
2181,9.0,-5.0,61.0,1645098910.84375,P10,D03,0,1,1
2182,9.0,-6.0,61.0,1645098910.875,P10,D03,0,1,1
2183,9.0,-6.0,61.0,1645098910.90625,P10,D03,0,1,1
2184,9.0,-5.0,61.0,1645098910.9375,P10,D03,0,1,1
2185,9.0,-5.0,61.0,1645098910.96875,P10,D03,0,1,1
2186,9.0,-6.0,61.0,1645098911.0,P10,D03,0,1,1
2187,9.0,-6.0,61.0,1645098911.03125,P10,D03,0,1,1
2188,8.0,-6.0,61.0,1645098911.0625,P10,D03,0,1,1
2189,8.0,-6.0,61.0,1645098911.09375,P10,D03,0,1,1
2190,8.0,-6.0,61.0,1645098911.125,P10,D03,0,1,1
2191,8.0,-6.0,61.0,1645098911.15625,P10,D03,0,1,1
2192,8.0,-6.0,61.0,1645098911.1875,P10,D03,0,1,1
2193,8.0,-6.0,61.0,1645098911.21875,P10,D03,0,1,1
2194,9.0,-6.0,61.0,1645098911.25,P10,D03,0,1,1
2195,8.0,-6.0,61.0,1645098911.28125,P10,D03,0,1,1
2196,8.0,-6.0,61.0,1645098911.3125,P10,D03,0,1,1
2197,9.0,-6.0,61.0,1645098911.34375,P10,D03,0,1,1
2198,9.0,-6.0,61.0,1645098911.375,P10,D03,0,1,1
2199,8.0,-6.0,61.0,1645098911.40625,P10,D03,0,1,1
2200,8.0,-6.0,61.0,1645098911.4375,P10,D03,0,1,1
2201,8.0,-6.0,61.0,1645098911.46875,P10,D03,0,1,1
2202,8.0,-6.0,61.0,1645098911.5,P10,D03,0,1,1
2203,8.0,-6.0,61.0,1645098911.53125,P10,D03,0,1,1
2204,8.0,-6.0,62.0,1645098911.5625,P10,D03,0,1,1
2205,8.0,-6.0,61.0,1645098911.59375,P10,D03,0,1,1
2206,8.0,-6.0,61.0,1645098911.625,P10,D03,0,1,1
2207,8.0,-6.0,62.0,1645098911.65625,P10,D03,0,1,1
2208,8.0,-6.0,61.0,1645098911.6875,P10,D03,0,1,1
2209,8.0,-6.0,61.0,1645098911.71875,P10,D03,0,1,1
2210,8.0,-6.0,61.0,1645098911.75,P10,D03,0,1,1
2211,8.0,-6.0,61.0,1645098911.78125,P10,D03,0,1,1
2212,8.0,-6.0,61.0,1645098911.8125,P10,D03,0,1,1
2213,9.0,-6.0,61.0,1645098911.84375,P10,D03,0,1,1
2214,9.0,-6.0,61.0,1645098911.875,P10,D03,0,1,1
2215,8.0,-6.0,61.0,1645098911.90625,P10,D03,0,1,1
2216,9.0,-6.0,61.0,1645098911.9375,P10,D03,0,1,1
2217,9.0,-6.0,61.0,1645098911.96875,P10,D03,0,1,1
2218,9.0,-6.0,61.0,1645098912.0,P10,D03,0,1,1
2219,9.0,-6.0,61.0,1645098912.03125,P10,D03,0,1,1
2220,8.0,-6.0,61.0,1645098912.0625,P10,D03,0,1,1
2221,9.0,-6.0,61.0,1645098912.09375,P10,D03,0,1,1
2222,9.0,-6.0,61.0,1645098912.125,P10,D03,0,1,1
2223,8.0,-6.0,61.0,1645098912.15625,P10,D03,0,1,1
2224,8.0,-6.0,61.0,1645098912.1875,P10,D03,0,1,1
2225,9.0,-6.0,61.0,1645098912.21875,P10,D03,0,1,1
2226,8.0,-6.0,61.0,1645098912.25,P10,D03,0,1,1
2227,8.0,-6.0,61.0,1645098912.28125,P10,D03,0,1,1
2228,9.0,-6.0,61.0,1645098912.3125,P10,D03,0,1,1
2229,9.0,-6.0,61.0,1645098912.34375,P10,D03,0,1,1
2230,8.0,-6.0,61.0,1645098912.375,P10,D03,0,1,1
2231,9.0,-6.0,61.0,1645098912.40625,P10,D03,0,1,1
2232,8.0,-6.0,61.0,1645098912.4375,P10,D03,0,1,1
2233,8.0,-6.0,61.0,1645098912.46875,P10,D03,0,1,1
2234,8.0,-6.0,61.0,1645098912.5,P10,D03,0,1,1
2235,8.0,-6.0,61.0,1645098912.53125,P10,D03,0,1,1
2236,8.0,-6.0,61.0,1645098912.5625,P10,D03,0,1,1
2237,8.0,-6.0,61.0,1645098912.59375,P10,D03,0,1,1
2238,8.0,-6.0,61.0,1645098912.625,P10,D03,0,1,1
2239,8.0,-6.0,61.0,1645098912.65625,P10,D03,0,1,1
2240,8.0,-6.0,61.0,1645098912.6875,P10,D03,0,1,1
2241,8.0,-6.0,61.0,1645098912.71875,P10,D03,0,1,1
2242,8.0,-6.0,61.0,1645098912.75,P10,D03,0,1,1
2243,8.0,-6.0,61.0,1645098912.78125,P10,D03,0,1,1
2244,8.0,-6.0,61.0,1645098912.8125,P10,D03,0,1,1
2245,8.0,-6.0,61.0,1645098912.84375,P10,D03,0,1,1
2246,8.0,-6.0,61.0,1645098912.875,P10,D03,0,1,1
2247,8.0,-6.0,61.0,1645098912.90625,P10,D03,0,1,1
2248,8.0,-6.0,61.0,1645098912.9375,P10,D03,0,1,1
2249,9.0,-6.0,61.0,1645098912.96875,P10,D03,0,1,1
2250,8.0,-6.0,61.0,1645098913.0,P10,D03,0,1,1
2251,8.0,-6.0,61.0,1645098913.03125,P10,D03,0,1,1
2252,8.0,-6.0,61.0,1645098913.0625,P10,D03,0,1,1
2253,9.0,-6.0,61.0,1645098913.09375,P10,D03,0,1,1
2254,8.0,-6.0,61.0,1645098913.125,P10,D03,0,1,1
2255,8.0,-6.0,61.0,1645098913.15625,P10,D03,0,1,1
2256,8.0,-6.0,61.0,1645098913.1875,P10,D03,0,1,1
2257,8.0,-6.0,61.0,1645098913.21875,P10,D03,0,1,1
2258,8.0,-6.0,61.0,1645098913.25,P10,D03,0,1,1
2259,8.0,-6.0,61.0,1645098913.28125,P10,D03,0,1,1
2260,8.0,-6.0,61.0,1645098913.3125,P10,D03,0,1,1
2261,8.0,-6.0,61.0,1645098913.34375,P10,D03,0,1,1
2262,8.0,-6.0,61.0,1645098913.375,P10,D03,0,1,1
2263,8.0,-6.0,61.0,1645098913.40625,P10,D03,0,1,1
2264,8.0,-6.0,61.0,1645098913.4375,P10,D03,0,1,1
2265,8.0,-6.0,61.0,1645098913.46875,P10,D03,0,1,1
2266,8.0,-6.0,61.0,1645098913.5,P10,D03,0,1,1
2267,8.0,-6.0,61.0,1645098913.53125,P10,D03,0,1,1
2268,8.0,-6.0,61.0,1645098913.5625,P10,D03,0,1,1
2269,8.0,-6.0,61.0,1645098913.59375,P10,D03,0,1,1
2270,8.0,-6.0,62.0,1645098913.625,P10,D03,0,1,1
2271,8.0,-6.0,61.0,1645098913.65625,P10,D03,0,1,1
2272,8.0,-6.0,61.0,1645098913.6875,P10,D03,0,1,1
2273,8.0,-6.0,61.0,1645098913.71875,P10,D03,0,1,1
2274,8.0,-6.0,61.0,1645098913.75,P10,D03,0,1,1
2275,8.0,-6.0,61.0,1645098913.78125,P10,D03,0,1,1
2276,8.0,-6.0,61.0,1645098913.8125,P10,D03,0,1,1
2277,8.0,-6.0,61.0,1645098913.84375,P10,D03,0,1,1
2278,8.0,-6.0,61.0,1645098913.875,P10,D03,0,1,1
2279,8.0,-6.0,61.0,1645098913.90625,P10,D03,0,1,1
2280,8.0,-6.0,61.0,1645098913.9375,P10,D03,0,1,1
2281,8.0,-6.0,61.0,1645098913.96875,P10,D03,0,1,1
2282,8.0,-6.0,61.0,1645098914.0,P10,D03,0,1,1
2283,8.0,-6.0,61.0,1645098914.03125,P10,D03,0,1,1
2284,8.0,-6.0,61.0,1645098914.0625,P10,D03,0,1,1
2285,8.0,-6.0,61.0,1645098914.09375,P10,D03,0,1,1
2286,8.0,-6.0,61.0,1645098914.125,P10,D03,0,1,1
2287,8.0,-6.0,61.0,1645098914.15625,P10,D03,0,1,1
2288,8.0,-6.0,61.0,1645098914.1875,P10,D03,0,1,1
2289,9.0,-6.0,61.0,1645098914.21875,P10,D03,0,1,1
2290,8.0,-6.0,61.0,1645098914.25,P10,D03,0,1,1
2291,8.0,-6.0,61.0,1645098914.28125,P10,D03,0,1,1
2292,8.0,-6.0,61.0,1645098914.3125,P10,D03,0,1,1
2293,8.0,-6.0,61.0,1645098914.34375,P10,D03,0,1,1
2294,8.0,-6.0,61.0,1645098914.375,P10,D03,0,1,1
2295,8.0,-6.0,61.0,1645098914.40625,P10,D03,0,1,1
2296,8.0,-6.0,61.0,1645098914.4375,P10,D03,0,1,1
2297,8.0,-6.0,61.0,1645098914.46875,P10,D03,0,1,1
2298,8.0,-6.0,61.0,1645098914.5,P10,D03,0,1,1
2299,8.0,-6.0,61.0,1645098914.53125,P10,D03,0,1,1
2300,9.0,-6.0,61.0,1645098914.5625,P10,D03,0,1,1
2301,8.0,-6.0,61.0,1645098914.59375,P10,D03,0,1,1
2302,9.0,-6.0,61.0,1645098914.625,P10,D03,0,1,1
2303,8.0,-6.0,61.0,1645098914.65625,P10,D03,0,1,1
2304,8.0,-6.0,61.0,1645098914.6875,P10,D03,0,1,1
2305,8.0,-6.0,61.0,1645098914.71875,P10,D03,0,1,1
2306,8.0,-6.0,61.0,1645098914.75,P10,D03,0,1,1
2307,8.0,-6.0,61.0,1645098914.78125,P10,D03,0,1,1
2308,8.0,-6.0,61.0,1645098914.8125,P10,D03,0,1,1
2309,8.0,-6.0,61.0,1645098914.84375,P10,D03,0,1,1
2310,8.0,-6.0,61.0,1645098914.875,P10,D03,0,1,1
2311,8.0,-6.0,61.0,1645098914.90625,P10,D03,0,1,1
2312,8.0,-6.0,61.0,1645098914.9375,P10,D03,0,1,1
2313,8.0,-6.0,61.0,1645098914.96875,P10,D03,0,1,1
2314,9.0,-6.0,61.0,1645098915.0,P10,D03,0,1,1
2315,9.0,-6.0,61.0,1645098915.03125,P10,D03,0,1,1
2316,9.0,-6.0,61.0,1645098915.0625,P10,D03,0,1,1
2317,9.0,-6.0,61.0,1645098915.09375,P10,D03,0,1,1
2318,9.0,-6.0,61.0,1645098915.125,P10,D03,0,1,1
2319,9.0,-6.0,61.0,1645098915.15625,P10,D03,0,1,1
2320,9.0,-6.0,61.0,1645098915.1875,P10,D03,0,1,1
2321,9.0,-6.0,61.0,1645098915.21875,P10,D03,0,1,1
2322,9.0,-6.0,61.0,1645098915.25,P10,D03,0,1,1
2323,9.0,-6.0,61.0,1645098915.28125,P10,D03,0,1,1
2324,9.0,-6.0,61.0,1645098915.3125,P10,D03,0,1,1
2325,9.0,-6.0,61.0,1645098915.34375,P10,D03,0,1,1
2326,9.0,-6.0,61.0,1645098915.375,P10,D03,0,1,1
2327,9.0,-6.0,61.0,1645098915.40625,P10,D03,0,1,1
2328,9.0,-6.0,61.0,1645098915.4375,P10,D03,0,1,1
2329,9.0,-6.0,61.0,1645098915.46875,P10,D03,0,1,1
2330,9.0,-6.0,61.0,1645098915.5,P10,D03,0,1,1
2331,9.0,-6.0,61.0,1645098915.53125,P10,D03,0,1,1
2332,9.0,-6.0,61.0,1645098915.5625,P10,D03,0,1,1
2333,9.0,-6.0,61.0,1645098915.59375,P10,D03,0,1,1
2334,9.0,-6.0,61.0,1645098915.625,P10,D03,0,1,1
2335,9.0,-6.0,61.0,1645098915.65625,P10,D03,0,1,1
2336,9.0,-6.0,61.0,1645098915.6875,P10,D03,0,1,1
2337,10.0,-6.0,61.0,1645098915.71875,P10,D03,0,1,1
2338,10.0,-6.0,61.0,1645098915.75,P10,D03,0,1,1
2339,10.0,-6.0,61.0,1645098915.78125,P10,D03,0,1,1
2340,10.0,-6.0,61.0,1645098915.8125,P10,D03,0,1,1
2341,10.0,-6.0,61.0,1645098915.84375,P10,D03,0,1,1
2342,10.0,-6.0,61.0,1645098915.875,P10,D03,0,1,1
2343,10.0,-6.0,61.0,1645098915.90625,P10,D03,0,1,1
2344,10.0,-6.0,61.0,1645098915.9375,P10,D03,0,1,1
2345,10.0,-6.0,61.0,1645098915.96875,P10,D03,0,1,1
2346,10.0,-6.0,61.0,1645098916.0,P10,D03,0,1,1
2347,10.0,-6.0,61.0,1645098916.03125,P10,D03,0,1,1
2348,10.0,-6.0,61.0,1645098916.0625,P10,D03,0,1,1
2349,10.0,-6.0,61.0,1645098916.09375,P10,D03,0,1,1
2350,10.0,-5.0,61.0,1645098916.125,P10,D03,0,1,1
2351,10.0,-6.0,61.0,1645098916.15625,P10,D03,0,1,1
2352,10.0,-6.0,61.0,1645098916.1875,P10,D03,0,1,1
2353,10.0,-6.0,61.0,1645098916.21875,P10,D03,0,1,1
2354,10.0,-5.0,61.0,1645098916.25,P10,D03,0,1,1
2355,10.0,-6.0,61.0,1645098916.28125,P10,D03,0,1,1
2356,9.0,-6.0,61.0,1645098916.3125,P10,D03,0,1,1
2357,10.0,-6.0,61.0,1645098916.34375,P10,D03,0,1,1
2358,10.0,-5.0,61.0,1645098916.375,P10,D03,0,1,1
2359,10.0,-6.0,61.0,1645098916.40625,P10,D03,0,1,1
2360,10.0,-6.0,61.0,1645098916.4375,P10,D03,0,1,1
2361,9.0,-6.0,61.0,1645098916.46875,P10,D03,0,1,1
2362,9.0,-6.0,61.0,1645098916.5,P10,D03,0,1,1
2363,10.0,-6.0,61.0,1645098916.53125,P10,D03,0,1,1
2364,9.0,-6.0,61.0,1645098916.5625,P10,D03,0,1,1
2365,9.0,-6.0,61.0,1645098916.59375,P10,D03,0,1,1
2366,9.0,-6.0,61.0,1645098916.625,P10,D03,0,1,1
2367,10.0,-6.0,61.0,1645098916.65625,P10,D03,0,1,1
2368,10.0,-6.0,61.0,1645098916.6875,P10,D03,0,1,1
2369,9.0,-6.0,61.0,1645098916.71875,P10,D03,0,1,1
2370,9.0,-6.0,61.0,1645098916.75,P10,D03,0,1,1
2371,10.0,-5.0,61.0,1645098916.78125,P10,D03,0,1,1
2372,9.0,-6.0,61.0,1645098916.8125,P10,D03,0,1,1
2373,9.0,-6.0,61.0,1645098916.84375,P10,D03,0,1,1
2374,9.0,-6.0,61.0,1645098916.875,P10,D03,0,1,1
2375,9.0,-6.0,61.0,1645098916.90625,P10,D03,0,1,1
2376,9.0,-6.0,61.0,1645098916.9375,P10,D03,0,1,1
2377,9.0,-6.0,61.0,1645098916.96875,P10,D03,0,1,1
2378,9.0,-6.0,61.0,1645098917.0,P10,D03,0,1,1
2379,9.0,-6.0,61.0,1645098917.03125,P10,D03,0,1,1
2380,9.0,-6.0,61.0,1645098917.0625,P10,D03,0,1,1
2381,2.0,-9.0,62.0,1645098917.09375,P10,D03,0,1,1
2382,-12.0,-12.0,65.0,1645098917.125,P10,D03,0,1,1
2383,-3.0,-9.0,71.0,1645098917.15625,P10,D03,0,1,1
2384,17.0,-8.0,70.0,1645098917.1875,P10,D03,0,1,1
2385,81.0,-22.0,79.0,1645098917.21875,P10,D03,0,1,1
2386,83.0,-6.0,78.0,1645098917.25,P10,D03,0,1,1
2387,71.0,-9.0,60.0,1645098917.28125,P10,D03,0,1,1
2388,60.0,-8.0,48.0,1645098917.3125,P10,D03,0,1,1
2389,46.0,2.0,30.0,1645098917.34375,P10,D03,0,1,1
2390,36.0,19.0,22.0,1645098917.375,P10,D03,0,1,1
2391,32.0,20.0,21.0,1645098917.40625,P10,D03,0,1,1
2392,35.0,31.0,11.0,1645098917.4375,P10,D03,0,1,1
2393,33.0,36.0,7.0,1645098917.46875,P10,D03,0,1,1
2394,15.0,45.0,-8.0,1645098917.5,P10,D03,0,1,1
2395,12.0,56.0,-12.0,1645098917.53125,P10,D03,0,1,1
2396,10.0,61.0,-5.0,1645098917.5625,P10,D03,0,1,1
2397,11.0,60.0,-2.0,1645098917.59375,P10,D03,0,1,1
2398,13.0,61.0,5.0,1645098917.625,P10,D03,0,1,1
2399,15.0,60.0,10.0,1645098917.65625,P10,D03,0,1,1
2400,18.0,58.0,16.0,1645098917.6875,P10,D03,0,1,1
2401,18.0,58.0,18.0,1645098917.71875,P10,D03,0,1,1
2402,21.0,59.0,18.0,1645098917.75,P10,D03,0,1,1
2403,20.0,59.0,19.0,1645098917.78125,P10,D03,0,1,1
2404,21.0,58.0,17.0,1645098917.8125,P10,D03,0,1,1
2405,19.0,60.0,19.0,1645098917.84375,P10,D03,0,1,1
2406,11.0,58.0,19.0,1645098917.875,P10,D03,0,1,1
2407,3.0,58.0,19.0,1645098917.90625,P10,D03,0,1,1
2408,14.0,56.0,25.0,1645098917.9375,P10,D03,0,1,1
2409,-17.0,56.0,11.0,1645098917.96875,P10,D03,0,1,1
2410,-32.0,55.0,6.0,1645098918.0,P10,D03,0,1,1
2411,-43.0,57.0,3.0,1645098918.03125,P10,D03,0,1,1
2412,-29.0,56.0,7.0,1645098918.0625,P10,D03,0,1,1
2413,-48.0,57.0,-4.0,1645098918.09375,P10,D03,0,1,1
2414,-42.0,56.0,-8.0,1645098918.125,P10,D03,0,1,1
2415,-41.0,55.0,-8.0,1645098918.15625,P10,D03,0,1,1
2416,-33.0,57.0,-2.0,1645098918.1875,P10,D03,0,1,1
2417,-33.0,57.0,-4.0,1645098918.21875,P10,D03,0,1,1
2418,-23.0,50.0,-4.0,1645098918.25,P10,D03,0,1,1
2419,-16.0,47.0,1.0,1645098918.28125,P10,D03,0,1,1
2420,-4.0,39.0,12.0,1645098918.3125,P10,D03,0,1,1
2421,2.0,32.0,24.0,1645098918.34375,P10,D03,0,1,1
2422,2.0,22.0,37.0,1645098918.375,P10,D03,0,1,1
2423,7.0,17.0,48.0,1645098918.40625,P10,D03,0,1,1
2424,12.0,9.0,65.0,1645098918.4375,P10,D03,0,1,1
2425,6.0,-3.0,62.0,1645098918.46875,P10,D03,0,1,1
2426,23.0,-11.0,91.0,1645098918.5,P10,D03,0,1,1
2427,18.0,-2.0,96.0,1645098918.53125,P10,D03,0,1,1
2428,12.0,13.0,85.0,1645098918.5625,P10,D03,0,1,1
2429,4.0,6.0,80.0,1645098918.59375,P10,D03,0,1,1
2430,3.0,0.0,82.0,1645098918.625,P10,D03,0,1,1
2431,7.0,4.0,60.0,1645098918.65625,P10,D03,0,1,1
2432,8.0,1.0,58.0,1645098918.6875,P10,D03,0,1,1
2433,9.0,0.0,73.0,1645098918.71875,P10,D03,0,1,1
2434,20.0,1.0,68.0,1645098918.75,P10,D03,0,1,1
2435,17.0,6.0,60.0,1645098918.78125,P10,D03,0,1,1
2436,16.0,5.0,58.0,1645098918.8125,P10,D03,0,1,1
2437,26.0,4.0,53.0,1645098918.84375,P10,D03,0,1,1
2438,7.0,-5.0,63.0,1645098918.875,P10,D03,0,1,1
2439,11.0,-9.0,67.0,1645098918.90625,P10,D03,0,1,1
2440,20.0,0.0,59.0,1645098918.9375,P10,D03,0,1,1
