,acc_x,acc_y,acc_z,timestamp,participant,document,val,arou,eng
0,-12.0,-5.0,66.0,1645175950.25,P13,D09,1,1,1
1,-22.0,-4.0,63.0,1645175950.28125,P13,D09,1,1,1
2,-17.0,-4.0,64.0,1645175950.3125,P13,D09,1,1,1
3,-18.0,-5.0,61.0,1645175950.34375,P13,D09,1,1,1
4,-30.0,-4.0,62.0,1645175950.375,P13,D09,1,1,1
5,-28.0,-4.0,65.0,1645175950.40625,P13,D09,1,1,1
6,-23.0,-3.0,60.0,1645175950.4375,P13,D09,1,1,1
7,-25.0,-3.0,56.0,1645175950.46875,P13,D09,1,1,1
8,-28.0,0.0,57.0,1645175950.5,P13,D09,1,1,1
9,-29.0,1.0,58.0,1645175950.53125,P13,D09,1,1,1
10,-23.0,0.0,59.0,1645175950.5625,P13,D09,1,1,1
11,-23.0,0.0,58.0,1645175950.59375,P13,D09,1,1,1
12,-23.0,-1.0,57.0,1645175950.625,P13,D09,1,1,1
13,-24.0,-1.0,57.0,1645175950.65625,P13,D09,1,1,1
14,-26.0,-1.0,59.0,1645175950.6875,P13,D09,1,1,1
15,-26.0,-2.0,59.0,1645175950.71875,P13,D09,1,1,1
16,-25.0,-1.0,57.0,1645175950.75,P13,D09,1,1,1
17,-25.0,0.0,59.0,1645175950.78125,P13,D09,1,1,1
18,-25.0,0.0,59.0,1645175950.8125,P13,D09,1,1,1
19,-24.0,0.0,58.0,1645175950.84375,P13,D09,1,1,1
20,-24.0,-1.0,58.0,1645175950.875,P13,D09,1,1,1
21,-25.0,-1.0,58.0,1645175950.90625,P13,D09,1,1,1
22,-25.0,-1.0,58.0,1645175950.9375,P13,D09,1,1,1
23,-25.0,-1.0,58.0,1645175950.96875,P13,D09,1,1,1
24,-24.0,-2.0,57.0,1645175951.0,P13,D09,1,1,1
25,-26.0,-1.0,58.0,1645175951.03125,P13,D09,1,1,1
26,-25.0,0.0,59.0,1645175951.0625,P13,D09,1,1,1
27,-25.0,0.0,58.0,1645175951.09375,P13,D09,1,1,1
28,-25.0,-1.0,57.0,1645175951.125,P13,D09,1,1,1
29,-25.0,-1.0,58.0,1645175951.15625,P13,D09,1,1,1
30,-26.0,-1.0,58.0,1645175951.1875,P13,D09,1,1,1
31,-26.0,-1.0,58.0,1645175951.21875,P13,D09,1,1,1
32,-26.0,-1.0,57.0,1645175951.25,P13,D09,1,1,1
33,-25.0,-1.0,58.0,1645175951.28125,P13,D09,1,1,1
34,-26.0,-2.0,58.0,1645175951.3125,P13,D09,1,1,1
35,-26.0,-2.0,57.0,1645175951.34375,P13,D09,1,1,1
36,-26.0,-2.0,57.0,1645175951.375,P13,D09,1,1,1
37,-26.0,-2.0,58.0,1645175951.40625,P13,D09,1,1,1
38,-26.0,-2.0,58.0,1645175951.4375,P13,D09,1,1,1
39,-26.0,-1.0,57.0,1645175951.46875,P13,D09,1,1,1
40,-25.0,-1.0,57.0,1645175951.5,P13,D09,1,1,1
41,-26.0,-1.0,58.0,1645175951.53125,P13,D09,1,1,1
42,-27.0,-1.0,58.0,1645175951.5625,P13,D09,1,1,1
43,-26.0,-1.0,58.0,1645175951.59375,P13,D09,1,1,1
44,-26.0,-1.0,58.0,1645175951.625,P13,D09,1,1,1
45,-26.0,-1.0,57.0,1645175951.65625,P13,D09,1,1,1
46,-26.0,-2.0,58.0,1645175951.6875,P13,D09,1,1,1
47,-26.0,-2.0,57.0,1645175951.71875,P13,D09,1,1,1
48,-26.0,-2.0,57.0,1645175951.75,P13,D09,1,1,1
49,-26.0,-1.0,57.0,1645175951.78125,P13,D09,1,1,1
50,-26.0,-2.0,58.0,1645175951.8125,P13,D09,1,1,1
51,-26.0,-2.0,58.0,1645175951.84375,P13,D09,1,1,1
52,-26.0,-2.0,57.0,1645175951.875,P13,D09,1,1,1
53,-26.0,-2.0,57.0,1645175951.90625,P13,D09,1,1,1
54,-26.0,-2.0,57.0,1645175951.9375,P13,D09,1,1,1
55,-26.0,-2.0,58.0,1645175951.96875,P13,D09,1,1,1
56,-26.0,-2.0,57.0,1645175952.0,P13,D09,1,1,1
57,-26.0,-2.0,57.0,1645175952.03125,P13,D09,1,1,1
58,-26.0,-1.0,58.0,1645175952.0625,P13,D09,1,1,1
59,-26.0,-2.0,57.0,1645175952.09375,P13,D09,1,1,1
60,-27.0,-2.0,57.0,1645175952.125,P13,D09,1,1,1
61,-26.0,-2.0,58.0,1645175952.15625,P13,D09,1,1,1
62,-26.0,-2.0,58.0,1645175952.1875,P13,D09,1,1,1
63,-26.0,-2.0,57.0,1645175952.21875,P13,D09,1,1,1
64,-26.0,-2.0,57.0,1645175952.25,P13,D09,1,1,1
65,-26.0,-2.0,58.0,1645175952.28125,P13,D09,1,1,1
66,-26.0,-2.0,57.0,1645175952.3125,P13,D09,1,1,1
67,-26.0,-2.0,57.0,1645175952.34375,P13,D09,1,1,1
68,-26.0,-2.0,57.0,1645175952.375,P13,D09,1,1,1
69,-27.0,-2.0,58.0,1645175952.40625,P13,D09,1,1,1
70,-27.0,-1.0,59.0,1645175952.4375,P13,D09,1,1,1
71,-27.0,-2.0,59.0,1645175952.46875,P13,D09,1,1,1
72,-27.0,0.0,63.0,1645175952.5,P13,D09,1,1,1
73,-24.0,0.0,64.0,1645175952.53125,P13,D09,1,1,1
74,-32.0,-2.0,64.0,1645175952.5625,P13,D09,1,1,1
75,-42.0,-2.0,68.0,1645175952.59375,P13,D09,1,1,1
76,-29.0,-7.0,75.0,1645175952.625,P13,D09,1,1,1
77,-37.0,-9.0,75.0,1645175952.65625,P13,D09,1,1,1
78,-28.0,-15.0,84.0,1645175952.6875,P13,D09,1,1,1
79,-45.0,-17.0,73.0,1645175952.71875,P13,D09,1,1,1
80,-78.0,-40.0,46.0,1645175952.75,P13,D09,1,1,1
81,-82.0,-43.0,37.0,1645175952.78125,P13,D09,1,1,1
82,-65.0,-42.0,17.0,1645175952.8125,P13,D09,1,1,1
83,-51.0,-34.0,8.0,1645175952.84375,P13,D09,1,1,1
84,-31.0,-30.0,13.0,1645175952.875,P13,D09,1,1,1
85,-17.0,-29.0,13.0,1645175952.90625,P13,D09,1,1,1
86,-9.0,-25.0,12.0,1645175952.9375,P13,D09,1,1,1
87,8.0,-34.0,9.0,1645175952.96875,P13,D09,1,1,1
88,5.0,-35.0,10.0,1645175953.0,P13,D09,1,1,1
89,-11.0,-39.0,17.0,1645175953.03125,P13,D09,1,1,1
90,-11.0,-41.0,19.0,1645175953.0625,P13,D09,1,1,1
91,-10.0,-49.0,20.0,1645175953.09375,P13,D09,1,1,1
92,-18.0,-52.0,18.0,1645175953.125,P13,D09,1,1,1
93,-16.0,-52.0,30.0,1645175953.15625,P13,D09,1,1,1
94,-14.0,-55.0,25.0,1645175953.1875,P13,D09,1,1,1
95,-19.0,-59.0,15.0,1645175953.21875,P13,D09,1,1,1
96,-13.0,-60.0,21.0,1645175953.25,P13,D09,1,1,1
97,-17.0,-56.0,23.0,1645175953.28125,P13,D09,1,1,1
98,-21.0,-54.0,22.0,1645175953.3125,P13,D09,1,1,1
99,-18.0,-55.0,24.0,1645175953.34375,P13,D09,1,1,1
100,-15.0,-55.0,23.0,1645175953.375,P13,D09,1,1,1
101,-13.0,-53.0,20.0,1645175953.40625,P13,D09,1,1,1
102,-18.0,-56.0,5.0,1645175953.4375,P13,D09,1,1,1
103,-11.0,-58.0,9.0,1645175953.46875,P13,D09,1,1,1
104,0.0,-62.0,19.0,1645175953.5,P13,D09,1,1,1
105,-8.0,-62.0,16.0,1645175953.53125,P13,D09,1,1,1
106,-13.0,-70.0,13.0,1645175953.5625,P13,D09,1,1,1
107,-12.0,-69.0,19.0,1645175953.59375,P13,D09,1,1,1
108,-25.0,-68.0,14.0,1645175953.625,P13,D09,1,1,1
109,-21.0,-67.0,4.0,1645175953.65625,P13,D09,1,1,1
110,-13.0,-67.0,1.0,1645175953.6875,P13,D09,1,1,1
111,-33.0,-60.0,-5.0,1645175953.71875,P13,D09,1,1,1
112,-39.0,-59.0,0.0,1645175953.75,P13,D09,1,1,1
113,-19.0,-55.0,11.0,1645175953.78125,P13,D09,1,1,1
114,-20.0,-55.0,5.0,1645175953.8125,P13,D09,1,1,1
115,-23.0,-53.0,-1.0,1645175953.84375,P13,D09,1,1,1
116,-30.0,-49.0,9.0,1645175953.875,P13,D09,1,1,1
117,-15.0,-62.0,-4.0,1645175953.90625,P13,D09,1,1,1
118,-22.0,-61.0,-5.0,1645175953.9375,P13,D09,1,1,1
119,-23.0,-60.0,1.0,1645175953.96875,P13,D09,1,1,1
120,-22.0,-61.0,5.0,1645175954.0,P13,D09,1,1,1
121,-24.0,-62.0,0.0,1645175954.03125,P13,D09,1,1,1
122,-20.0,-62.0,-1.0,1645175954.0625,P13,D09,1,1,1
123,-20.0,-62.0,-2.0,1645175954.09375,P13,D09,1,1,1
124,-23.0,-59.0,-2.0,1645175954.125,P13,D09,1,1,1
125,-21.0,-60.0,-1.0,1645175954.15625,P13,D09,1,1,1
126,-19.0,-62.0,-4.0,1645175954.1875,P13,D09,1,1,1
127,-27.0,-62.0,-7.0,1645175954.21875,P13,D09,1,1,1
128,-14.0,-60.0,2.0,1645175954.25,P13,D09,1,1,1
129,-23.0,-61.0,-3.0,1645175954.28125,P13,D09,1,1,1
130,-17.0,-63.0,-1.0,1645175954.3125,P13,D09,1,1,1
131,-14.0,-61.0,-2.0,1645175954.34375,P13,D09,1,1,1
132,-18.0,-62.0,-1.0,1645175954.375,P13,D09,1,1,1
133,-19.0,-59.0,3.0,1645175954.40625,P13,D09,1,1,1
134,-16.0,-60.0,3.0,1645175954.4375,P13,D09,1,1,1
135,-11.0,-63.0,6.0,1645175954.46875,P13,D09,1,1,1
136,-15.0,-61.0,5.0,1645175954.5,P13,D09,1,1,1
137,-21.0,-66.0,1.0,1645175954.53125,P13,D09,1,1,1
138,-18.0,-62.0,4.0,1645175954.5625,P13,D09,1,1,1
139,-13.0,-62.0,9.0,1645175954.59375,P13,D09,1,1,1
140,-13.0,-59.0,7.0,1645175954.625,P13,D09,1,1,1
141,-8.0,-58.0,14.0,1645175954.65625,P13,D09,1,1,1
142,-10.0,-60.0,12.0,1645175954.6875,P13,D09,1,1,1
143,-8.0,-58.0,9.0,1645175954.71875,P13,D09,1,1,1
144,-15.0,-69.0,10.0,1645175954.75,P13,D09,1,1,1
145,-18.0,-66.0,11.0,1645175954.78125,P13,D09,1,1,1
146,-14.0,-60.0,8.0,1645175954.8125,P13,D09,1,1,1
147,-12.0,-56.0,7.0,1645175954.84375,P13,D09,1,1,1
148,-19.0,-64.0,9.0,1645175954.875,P13,D09,1,1,1
149,-16.0,-62.0,9.0,1645175954.90625,P13,D09,1,1,1
150,-26.0,-59.0,11.0,1645175954.9375,P13,D09,1,1,1
151,-26.0,-64.0,12.0,1645175954.96875,P13,D09,1,1,1
152,-27.0,-63.0,13.0,1645175955.0,P13,D09,1,1,1
153,-30.0,-69.0,14.0,1645175955.03125,P13,D09,1,1,1
154,-31.0,-63.0,12.0,1645175955.0625,P13,D09,1,1,1
155,-24.0,-63.0,14.0,1645175955.09375,P13,D09,1,1,1
156,-26.0,-61.0,13.0,1645175955.125,P13,D09,1,1,1
157,-24.0,-59.0,12.0,1645175955.15625,P13,D09,1,1,1
158,-34.0,-60.0,8.0,1645175955.1875,P13,D09,1,1,1
159,-8.0,-62.0,11.0,1645175955.21875,P13,D09,1,1,1
160,-22.0,-56.0,6.0,1645175955.25,P13,D09,1,1,1
161,-34.0,-61.0,-5.0,1645175955.28125,P13,D09,1,1,1
162,-33.0,-63.0,-6.0,1645175955.3125,P13,D09,1,1,1
163,-18.0,-62.0,4.0,1645175955.34375,P13,D09,1,1,1
164,-34.0,-59.0,6.0,1645175955.375,P13,D09,1,1,1
165,-38.0,-60.0,3.0,1645175955.40625,P13,D09,1,1,1
166,-5.0,-60.0,-2.0,1645175955.4375,P13,D09,1,1,1
167,-3.0,-57.0,-5.0,1645175955.46875,P13,D09,1,1,1
168,-19.0,-57.0,4.0,1645175955.5,P13,D09,1,1,1
169,-23.0,-56.0,12.0,1645175955.53125,P13,D09,1,1,1
170,-30.0,-64.0,-1.0,1645175955.5625,P13,D09,1,1,1
171,-27.0,-70.0,3.0,1645175955.59375,P13,D09,1,1,1
172,-13.0,-64.0,7.0,1645175955.625,P13,D09,1,1,1
173,-32.0,-64.0,5.0,1645175955.65625,P13,D09,1,1,1
174,-27.0,-65.0,9.0,1645175955.6875,P13,D09,1,1,1
175,-15.0,-58.0,8.0,1645175955.71875,P13,D09,1,1,1
176,-3.0,-52.0,12.0,1645175955.75,P13,D09,1,1,1
177,-36.0,-53.0,-2.0,1645175955.78125,P13,D09,1,1,1
178,-46.0,-60.0,-5.0,1645175955.8125,P13,D09,1,1,1
179,-29.0,-55.0,-4.0,1645175955.84375,P13,D09,1,1,1
180,-41.0,-55.0,-6.0,1645175955.875,P13,D09,1,1,1
181,-26.0,-56.0,6.0,1645175955.90625,P13,D09,1,1,1
182,-32.0,-56.0,1.0,1645175955.9375,P13,D09,1,1,1
183,-30.0,-64.0,-7.0,1645175955.96875,P13,D09,1,1,1
184,-25.0,-60.0,-3.0,1645175956.0,P13,D09,1,1,1
185,-19.0,-60.0,2.0,1645175956.03125,P13,D09,1,1,1
186,-36.0,-61.0,-2.0,1645175956.0625,P13,D09,1,1,1
187,-29.0,-60.0,6.0,1645175956.09375,P13,D09,1,1,1
188,-30.0,-58.0,7.0,1645175956.125,P13,D09,1,1,1
189,-34.0,-60.0,3.0,1645175956.15625,P13,D09,1,1,1
190,-30.0,-58.0,3.0,1645175956.1875,P13,D09,1,1,1
191,-22.0,-57.0,8.0,1645175956.21875,P13,D09,1,1,1
192,-19.0,-56.0,5.0,1645175956.25,P13,D09,1,1,1
193,-20.0,-58.0,4.0,1645175956.28125,P13,D09,1,1,1
194,-20.0,-60.0,3.0,1645175956.3125,P13,D09,1,1,1
195,-24.0,-60.0,1.0,1645175956.34375,P13,D09,1,1,1
196,-22.0,-60.0,-10.0,1645175956.375,P13,D09,1,1,1
197,-17.0,-59.0,-13.0,1645175956.40625,P13,D09,1,1,1
198,-20.0,-56.0,-12.0,1645175956.4375,P13,D09,1,1,1
199,-24.0,-57.0,-19.0,1645175956.46875,P13,D09,1,1,1
200,-34.0,-57.0,-18.0,1645175956.5,P13,D09,1,1,1
201,-52.0,-61.0,-18.0,1645175956.53125,P13,D09,1,1,1
202,-46.0,-62.0,-16.0,1645175956.5625,P13,D09,1,1,1
203,-36.0,-58.0,-13.0,1645175956.59375,P13,D09,1,1,1
204,-34.0,-55.0,-14.0,1645175956.625,P13,D09,1,1,1
205,-37.0,-60.0,-29.0,1645175956.65625,P13,D09,1,1,1
206,-21.0,-58.0,-17.0,1645175956.6875,P13,D09,1,1,1
207,-14.0,-54.0,6.0,1645175956.71875,P13,D09,1,1,1
208,-41.0,-61.0,-19.0,1645175956.75,P13,D09,1,1,1
209,-32.0,-58.0,-13.0,1645175956.78125,P13,D09,1,1,1
210,-13.0,-59.0,2.0,1645175956.8125,P13,D09,1,1,1
211,-20.0,-56.0,6.0,1645175956.84375,P13,D09,1,1,1
212,-36.0,-58.0,-5.0,1645175956.875,P13,D09,1,1,1
213,-33.0,-56.0,-6.0,1645175956.90625,P13,D09,1,1,1
214,-23.0,-53.0,2.0,1645175956.9375,P13,D09,1,1,1
215,-27.0,-54.0,0.0,1645175956.96875,P13,D09,1,1,1
216,-37.0,-55.0,-8.0,1645175957.0,P13,D09,1,1,1
217,-29.0,-57.0,-3.0,1645175957.03125,P13,D09,1,1,1
218,-32.0,-58.0,4.0,1645175957.0625,P13,D09,1,1,1
219,-32.0,-58.0,-1.0,1645175957.09375,P13,D09,1,1,1
220,-31.0,-57.0,-1.0,1645175957.125,P13,D09,1,1,1
221,-34.0,-54.0,4.0,1645175957.15625,P13,D09,1,1,1
222,-34.0,-55.0,5.0,1645175957.1875,P13,D09,1,1,1
223,-32.0,-56.0,4.0,1645175957.21875,P13,D09,1,1,1
224,-27.0,-56.0,1.0,1645175957.25,P13,D09,1,1,1
225,-32.0,-55.0,10.0,1645175957.28125,P13,D09,1,1,1
226,-38.0,-57.0,7.0,1645175957.3125,P13,D09,1,1,1
227,-30.0,-56.0,0.0,1645175957.34375,P13,D09,1,1,1
228,-29.0,-55.0,1.0,1645175957.375,P13,D09,1,1,1
229,-33.0,-56.0,5.0,1645175957.40625,P13,D09,1,1,1
230,-34.0,-57.0,5.0,1645175957.4375,P13,D09,1,1,1
231,-34.0,-56.0,0.0,1645175957.46875,P13,D09,1,1,1
232,-24.0,-55.0,1.0,1645175957.5,P13,D09,1,1,1
233,-28.0,-55.0,1.0,1645175957.53125,P13,D09,1,1,1
234,-44.0,-55.0,-4.0,1645175957.5625,P13,D09,1,1,1
235,-36.0,-58.0,4.0,1645175957.59375,P13,D09,1,1,1
236,-45.0,-58.0,6.0,1645175957.625,P13,D09,1,1,1
237,-53.0,-64.0,5.0,1645175957.65625,P13,D09,1,1,1
238,-37.0,-59.0,0.0,1645175957.6875,P13,D09,1,1,1
239,-13.0,-59.0,16.0,1645175957.71875,P13,D09,1,1,1
240,-34.0,-67.0,22.0,1645175957.75,P13,D09,1,1,1
241,-46.0,-60.0,16.0,1645175957.78125,P13,D09,1,1,1
242,-10.0,-61.0,19.0,1645175957.8125,P13,D09,1,1,1
243,-16.0,-61.0,11.0,1645175957.84375,P13,D09,1,1,1
244,-4.0,-56.0,21.0,1645175957.875,P13,D09,1,1,1
245,6.0,-57.0,22.0,1645175957.90625,P13,D09,1,1,1
246,-3.0,-56.0,15.0,1645175957.9375,P13,D09,1,1,1
247,19.0,-54.0,19.0,1645175957.96875,P13,D09,1,1,1
248,16.0,-53.0,19.0,1645175958.0,P13,D09,1,1,1
249,-8.0,-47.0,34.0,1645175958.03125,P13,D09,1,1,1
250,4.0,-51.0,31.0,1645175958.0625,P13,D09,1,1,1
251,9.0,-54.0,24.0,1645175958.09375,P13,D09,1,1,1
252,5.0,-57.0,23.0,1645175958.125,P13,D09,1,1,1
253,-4.0,-59.0,27.0,1645175958.15625,P13,D09,1,1,1
254,2.0,-58.0,22.0,1645175958.1875,P13,D09,1,1,1
255,-1.0,-62.0,21.0,1645175958.21875,P13,D09,1,1,1
256,-10.0,-60.0,24.0,1645175958.25,P13,D09,1,1,1
257,-7.0,-60.0,24.0,1645175958.28125,P13,D09,1,1,1
258,-6.0,-59.0,23.0,1645175958.3125,P13,D09,1,1,1
259,-8.0,-60.0,23.0,1645175958.34375,P13,D09,1,1,1
260,-6.0,-59.0,25.0,1645175958.375,P13,D09,1,1,1
261,-7.0,-59.0,25.0,1645175958.40625,P13,D09,1,1,1
262,-9.0,-61.0,21.0,1645175958.4375,P13,D09,1,1,1
263,-6.0,-61.0,23.0,1645175958.46875,P13,D09,1,1,1
264,-7.0,-60.0,22.0,1645175958.5,P13,D09,1,1,1
265,-8.0,-60.0,22.0,1645175958.53125,P13,D09,1,1,1
266,-8.0,-60.0,21.0,1645175958.5625,P13,D09,1,1,1
267,-6.0,-60.0,21.0,1645175958.59375,P13,D09,1,1,1
268,-8.0,-59.0,19.0,1645175958.625,P13,D09,1,1,1
269,-8.0,-58.0,20.0,1645175958.65625,P13,D09,1,1,1
270,-8.0,-60.0,20.0,1645175958.6875,P13,D09,1,1,1
271,-10.0,-59.0,22.0,1645175958.71875,P13,D09,1,1,1
272,-7.0,-59.0,26.0,1645175958.75,P13,D09,1,1,1
273,-3.0,-59.0,25.0,1645175958.78125,P13,D09,1,1,1
274,-14.0,-61.0,19.0,1645175958.8125,P13,D09,1,1,1
275,-19.0,-61.0,24.0,1645175958.84375,P13,D09,1,1,1
276,-15.0,-61.0,21.0,1645175958.875,P13,D09,1,1,1
277,-20.0,-60.0,15.0,1645175958.90625,P13,D09,1,1,1
278,-17.0,-59.0,19.0,1645175958.9375,P13,D09,1,1,1
279,-15.0,-60.0,21.0,1645175958.96875,P13,D09,1,1,1
280,-14.0,-60.0,20.0,1645175959.0,P13,D09,1,1,1
281,-17.0,-58.0,19.0,1645175959.03125,P13,D09,1,1,1
282,-16.0,-59.0,23.0,1645175959.0625,P13,D09,1,1,1
283,-16.0,-60.0,22.0,1645175959.09375,P13,D09,1,1,1
284,-15.0,-60.0,20.0,1645175959.125,P13,D09,1,1,1
285,-11.0,-60.0,21.0,1645175959.15625,P13,D09,1,1,1
286,-15.0,-60.0,19.0,1645175959.1875,P13,D09,1,1,1
287,-17.0,-59.0,12.0,1645175959.21875,P13,D09,1,1,1
288,-12.0,-55.0,16.0,1645175959.25,P13,D09,1,1,1
289,-16.0,-61.0,14.0,1645175959.28125,P13,D09,1,1,1
290,-18.0,-61.0,10.0,1645175959.3125,P13,D09,1,1,1
291,-16.0,-59.0,7.0,1645175959.34375,P13,D09,1,1,1
292,-11.0,-59.0,11.0,1645175959.375,P13,D09,1,1,1
293,-17.0,-61.0,5.0,1645175959.40625,P13,D09,1,1,1
294,-20.0,-61.0,6.0,1645175959.4375,P13,D09,1,1,1
295,-17.0,-64.0,12.0,1645175959.46875,P13,D09,1,1,1
296,-18.0,-63.0,12.0,1645175959.5,P13,D09,1,1,1
297,-21.0,-61.0,14.0,1645175959.53125,P13,D09,1,1,1
298,-23.0,-63.0,10.0,1645175959.5625,P13,D09,1,1,1
299,-23.0,-62.0,12.0,1645175959.59375,P13,D09,1,1,1
300,-22.0,-61.0,10.0,1645175959.625,P13,D09,1,1,1
301,-22.0,-60.0,10.0,1645175959.65625,P13,D09,1,1,1
302,-18.0,-60.0,13.0,1645175959.6875,P13,D09,1,1,1
303,-23.0,-58.0,13.0,1645175959.71875,P13,D09,1,1,1
304,-21.0,-60.0,13.0,1645175959.75,P13,D09,1,1,1
305,-22.0,-61.0,13.0,1645175959.78125,P13,D09,1,1,1
306,-19.0,-61.0,15.0,1645175959.8125,P13,D09,1,1,1
307,-20.0,-59.0,15.0,1645175959.84375,P13,D09,1,1,1
308,-22.0,-60.0,15.0,1645175959.875,P13,D09,1,1,1
309,-17.0,-60.0,15.0,1645175959.90625,P13,D09,1,1,1
310,-19.0,-59.0,15.0,1645175959.9375,P13,D09,1,1,1
311,-16.0,-59.0,17.0,1645175959.96875,P13,D09,1,1,1
312,-16.0,-60.0,17.0,1645175960.0,P13,D09,1,1,1
313,-17.0,-57.0,19.0,1645175960.03125,P13,D09,1,1,1
314,-19.0,-58.0,20.0,1645175960.0625,P13,D09,1,1,1
315,-15.0,-58.0,16.0,1645175960.09375,P13,D09,1,1,1
316,-13.0,-60.0,15.0,1645175960.125,P13,D09,1,1,1
317,-17.0,-59.0,20.0,1645175960.15625,P13,D09,1,1,1
318,-15.0,-61.0,21.0,1645175960.1875,P13,D09,1,1,1
319,-19.0,-61.0,23.0,1645175960.21875,P13,D09,1,1,1
320,-23.0,-61.0,24.0,1645175960.25,P13,D09,1,1,1
321,-19.0,-59.0,17.0,1645175960.28125,P13,D09,1,1,1
322,-16.0,-54.0,25.0,1645175960.3125,P13,D09,1,1,1
323,-20.0,-57.0,22.0,1645175960.34375,P13,D09,1,1,1
324,-10.0,-58.0,17.0,1645175960.375,P13,D09,1,1,1
325,-4.0,-60.0,15.0,1645175960.40625,P13,D09,1,1,1
326,-16.0,-55.0,21.0,1645175960.4375,P13,D09,1,1,1
327,-16.0,-57.0,27.0,1645175960.46875,P13,D09,1,1,1
328,-11.0,-59.0,16.0,1645175960.5,P13,D09,1,1,1
329,-15.0,-56.0,20.0,1645175960.53125,P13,D09,1,1,1
330,-14.0,-48.0,26.0,1645175960.5625,P13,D09,1,1,1
331,-16.0,-45.0,29.0,1645175960.59375,P13,D09,1,1,1
332,-16.0,-40.0,33.0,1645175960.625,P13,D09,1,1,1
333,-15.0,-42.0,19.0,1645175960.65625,P13,D09,1,1,1
334,-19.0,-37.0,21.0,1645175960.6875,P13,D09,1,1,1
335,-28.0,-34.0,29.0,1645175960.71875,P13,D09,1,1,1
336,-27.0,-35.0,32.0,1645175960.75,P13,D09,1,1,1
337,-55.0,-31.0,21.0,1645175960.78125,P13,D09,1,1,1
338,-60.0,-32.0,21.0,1645175960.8125,P13,D09,1,1,1
339,-45.0,-34.0,37.0,1645175960.84375,P13,D09,1,1,1
340,-60.0,-31.0,31.0,1645175960.875,P13,D09,1,1,1
341,-56.0,-38.0,32.0,1645175960.90625,P13,D09,1,1,1
342,-64.0,-30.0,31.0,1645175960.9375,P13,D09,1,1,1
343,-59.0,-28.0,25.0,1645175960.96875,P13,D09,1,1,1
344,-73.0,-24.0,21.0,1645175961.0,P13,D09,1,1,1
345,-64.0,-22.0,22.0,1645175961.03125,P13,D09,1,1,1
346,-62.0,-26.0,19.0,1645175961.0625,P13,D09,1,1,1
347,-62.0,-25.0,23.0,1645175961.09375,P13,D09,1,1,1
348,-80.0,-27.0,21.0,1645175961.125,P13,D09,1,1,1
349,-66.0,-21.0,20.0,1645175961.15625,P13,D09,1,1,1
350,-50.0,-20.0,17.0,1645175961.1875,P13,D09,1,1,1
351,-54.0,-17.0,17.0,1645175961.21875,P13,D09,1,1,1
352,-65.0,-15.0,17.0,1645175961.25,P13,D09,1,1,1
353,-62.0,-15.0,18.0,1645175961.28125,P13,D09,1,1,1
354,-60.0,-16.0,19.0,1645175961.3125,P13,D09,1,1,1
355,-65.0,-20.0,14.0,1645175961.34375,P13,D09,1,1,1
356,-60.0,-20.0,15.0,1645175961.375,P13,D09,1,1,1
357,-62.0,-23.0,11.0,1645175961.40625,P13,D09,1,1,1
358,-57.0,-21.0,12.0,1645175961.4375,P13,D09,1,1,1
359,-63.0,-20.0,11.0,1645175961.46875,P13,D09,1,1,1
360,-63.0,-21.0,11.0,1645175961.5,P13,D09,1,1,1
361,-62.0,-21.0,9.0,1645175961.53125,P13,D09,1,1,1
362,-63.0,-22.0,8.0,1645175961.5625,P13,D09,1,1,1
363,-61.0,-20.0,10.0,1645175961.59375,P13,D09,1,1,1
364,-62.0,-19.0,10.0,1645175961.625,P13,D09,1,1,1
365,-60.0,-20.0,10.0,1645175961.65625,P13,D09,1,1,1
366,-59.0,-20.0,10.0,1645175961.6875,P13,D09,1,1,1
367,-63.0,-19.0,12.0,1645175961.71875,P13,D09,1,1,1
368,-58.0,-19.0,13.0,1645175961.75,P13,D09,1,1,1
369,-60.0,-19.0,12.0,1645175961.78125,P13,D09,1,1,1
370,-62.0,-19.0,11.0,1645175961.8125,P13,D09,1,1,1
371,-61.0,-19.0,10.0,1645175961.84375,P13,D09,1,1,1
372,-61.0,-20.0,11.0,1645175961.875,P13,D09,1,1,1
373,-61.0,-20.0,11.0,1645175961.90625,P13,D09,1,1,1
374,-61.0,-20.0,10.0,1645175961.9375,P13,D09,1,1,1
375,-60.0,-20.0,10.0,1645175961.96875,P13,D09,1,1,1
376,-63.0,-20.0,10.0,1645175962.0,P13,D09,1,1,1
377,-61.0,-19.0,10.0,1645175962.03125,P13,D09,1,1,1
378,-61.0,-19.0,10.0,1645175962.0625,P13,D09,1,1,1
379,-61.0,-20.0,10.0,1645175962.09375,P13,D09,1,1,1
380,-62.0,-21.0,9.0,1645175962.125,P13,D09,1,1,1
381,-60.0,-21.0,11.0,1645175962.15625,P13,D09,1,1,1
382,-60.0,-22.0,11.0,1645175962.1875,P13,D09,1,1,1
383,-61.0,-20.0,10.0,1645175962.21875,P13,D09,1,1,1
384,-62.0,-19.0,11.0,1645175962.25,P13,D09,1,1,1
385,-60.0,-18.0,14.0,1645175962.28125,P13,D09,1,1,1
386,-61.0,-18.0,14.0,1645175962.3125,P13,D09,1,1,1
387,-62.0,-19.0,11.0,1645175962.34375,P13,D09,1,1,1
388,-60.0,-18.0,12.0,1645175962.375,P13,D09,1,1,1
389,-60.0,-19.0,13.0,1645175962.40625,P13,D09,1,1,1
390,-61.0,-21.0,12.0,1645175962.4375,P13,D09,1,1,1
391,-59.0,-21.0,13.0,1645175962.46875,P13,D09,1,1,1
392,-61.0,-20.0,13.0,1645175962.5,P13,D09,1,1,1
393,-60.0,-20.0,13.0,1645175962.53125,P13,D09,1,1,1
394,-60.0,-19.0,14.0,1645175962.5625,P13,D09,1,1,1
395,-60.0,-19.0,14.0,1645175962.59375,P13,D09,1,1,1
396,-62.0,-20.0,13.0,1645175962.625,P13,D09,1,1,1
397,-59.0,-20.0,13.0,1645175962.65625,P13,D09,1,1,1
398,-60.0,-20.0,14.0,1645175962.6875,P13,D09,1,1,1
399,-59.0,-20.0,14.0,1645175962.71875,P13,D09,1,1,1
400,-61.0,-20.0,12.0,1645175962.75,P13,D09,1,1,1
401,-61.0,-20.0,12.0,1645175962.78125,P13,D09,1,1,1
402,-61.0,-20.0,12.0,1645175962.8125,P13,D09,1,1,1
403,-60.0,-19.0,13.0,1645175962.84375,P13,D09,1,1,1
404,-60.0,-19.0,13.0,1645175962.875,P13,D09,1,1,1
405,-59.0,-20.0,14.0,1645175962.90625,P13,D09,1,1,1
406,-60.0,-20.0,14.0,1645175962.9375,P13,D09,1,1,1
407,-60.0,-20.0,15.0,1645175962.96875,P13,D09,1,1,1
408,-59.0,-21.0,15.0,1645175963.0,P13,D09,1,1,1
409,-59.0,-20.0,15.0,1645175963.03125,P13,D09,1,1,1
410,-60.0,-20.0,15.0,1645175963.0625,P13,D09,1,1,1
411,-60.0,-20.0,14.0,1645175963.09375,P13,D09,1,1,1
412,-60.0,-20.0,14.0,1645175963.125,P13,D09,1,1,1
413,-60.0,-20.0,15.0,1645175963.15625,P13,D09,1,1,1
414,-60.0,-20.0,14.0,1645175963.1875,P13,D09,1,1,1
415,-60.0,-20.0,14.0,1645175963.21875,P13,D09,1,1,1
416,-60.0,-19.0,16.0,1645175963.25,P13,D09,1,1,1
417,-59.0,-19.0,16.0,1645175963.28125,P13,D09,1,1,1
418,-59.0,-20.0,16.0,1645175963.3125,P13,D09,1,1,1
419,-59.0,-20.0,16.0,1645175963.34375,P13,D09,1,1,1
420,-59.0,-21.0,16.0,1645175963.375,P13,D09,1,1,1
421,-59.0,-21.0,16.0,1645175963.40625,P13,D09,1,1,1
422,-59.0,-21.0,15.0,1645175963.4375,P13,D09,1,1,1
423,-59.0,-20.0,17.0,1645175963.46875,P13,D09,1,1,1
424,-59.0,-20.0,17.0,1645175963.5,P13,D09,1,1,1
425,-59.0,-19.0,16.0,1645175963.53125,P13,D09,1,1,1
426,-59.0,-19.0,16.0,1645175963.5625,P13,D09,1,1,1
427,-59.0,-19.0,17.0,1645175963.59375,P13,D09,1,1,1
428,-59.0,-19.0,17.0,1645175963.625,P13,D09,1,1,1
429,-60.0,-20.0,15.0,1645175963.65625,P13,D09,1,1,1
430,-59.0,-19.0,15.0,1645175963.6875,P13,D09,1,1,1
431,-59.0,-20.0,17.0,1645175963.71875,P13,D09,1,1,1
432,-59.0,-19.0,17.0,1645175963.75,P13,D09,1,1,1
433,-59.0,-20.0,16.0,1645175963.78125,P13,D09,1,1,1
434,-59.0,-19.0,17.0,1645175963.8125,P13,D09,1,1,1
435,-59.0,-19.0,17.0,1645175963.84375,P13,D09,1,1,1
436,-60.0,-19.0,16.0,1645175963.875,P13,D09,1,1,1
437,-59.0,-19.0,17.0,1645175963.90625,P13,D09,1,1,1
438,-60.0,-18.0,18.0,1645175963.9375,P13,D09,1,1,1
439,-59.0,-19.0,18.0,1645175963.96875,P13,D09,1,1,1
440,-61.0,-18.0,17.0,1645175964.0,P13,D09,1,1,1
441,-61.0,-19.0,18.0,1645175964.03125,P13,D09,1,1,1
442,-59.0,-20.0,17.0,1645175964.0625,P13,D09,1,1,1
443,-60.0,-18.0,18.0,1645175964.09375,P13,D09,1,1,1
444,-58.0,-19.0,18.0,1645175964.125,P13,D09,1,1,1
445,-59.0,-18.0,18.0,1645175964.15625,P13,D09,1,1,1
446,-59.0,-18.0,20.0,1645175964.1875,P13,D09,1,1,1
447,-59.0,-19.0,18.0,1645175964.21875,P13,D09,1,1,1
448,-58.0,-18.0,18.0,1645175964.25,P13,D09,1,1,1
449,-59.0,-19.0,18.0,1645175964.28125,P13,D09,1,1,1
450,-59.0,-18.0,19.0,1645175964.3125,P13,D09,1,1,1
451,-58.0,-19.0,19.0,1645175964.34375,P13,D09,1,1,1
452,-59.0,-19.0,19.0,1645175964.375,P13,D09,1,1,1
453,-64.0,-20.0,19.0,1645175964.40625,P13,D09,1,1,1
454,-59.0,-21.0,20.0,1645175964.4375,P13,D09,1,1,1
455,-57.0,-20.0,18.0,1645175964.46875,P13,D09,1,1,1
456,-58.0,-19.0,18.0,1645175964.5,P13,D09,1,1,1
457,-59.0,-18.0,18.0,1645175964.53125,P13,D09,1,1,1
458,-58.0,-18.0,18.0,1645175964.5625,P13,D09,1,1,1
459,-57.0,-18.0,18.0,1645175964.59375,P13,D09,1,1,1
460,-58.0,-17.0,21.0,1645175964.625,P13,D09,1,1,1
461,-58.0,-19.0,20.0,1645175964.65625,P13,D09,1,1,1
462,-58.0,-19.0,19.0,1645175964.6875,P13,D09,1,1,1
463,-59.0,-19.0,19.0,1645175964.71875,P13,D09,1,1,1
464,-59.0,-18.0,19.0,1645175964.75,P13,D09,1,1,1
465,-59.0,-18.0,19.0,1645175964.78125,P13,D09,1,1,1
466,-57.0,-18.0,19.0,1645175964.8125,P13,D09,1,1,1
467,-58.0,-18.0,19.0,1645175964.84375,P13,D09,1,1,1
468,-58.0,-19.0,18.0,1645175964.875,P13,D09,1,1,1
469,-58.0,-19.0,17.0,1645175964.90625,P13,D09,1,1,1
470,-59.0,-19.0,19.0,1645175964.9375,P13,D09,1,1,1
471,-60.0,-19.0,21.0,1645175964.96875,P13,D09,1,1,1
472,-58.0,-19.0,19.0,1645175965.0,P13,D09,1,1,1
473,-59.0,-18.0,21.0,1645175965.03125,P13,D09,1,1,1
474,-61.0,-17.0,22.0,1645175965.0625,P13,D09,1,1,1
475,-58.0,-19.0,19.0,1645175965.09375,P13,D09,1,1,1
476,-58.0,-19.0,18.0,1645175965.125,P13,D09,1,1,1
477,-59.0,-19.0,20.0,1645175965.15625,P13,D09,1,1,1
478,-59.0,-19.0,20.0,1645175965.1875,P13,D09,1,1,1
479,-58.0,-19.0,19.0,1645175965.21875,P13,D09,1,1,1
480,-59.0,-18.0,19.0,1645175965.25,P13,D09,1,1,1
481,-58.0,-19.0,20.0,1645175965.28125,P13,D09,1,1,1
482,-58.0,-19.0,20.0,1645175965.3125,P13,D09,1,1,1
483,-58.0,-19.0,21.0,1645175965.34375,P13,D09,1,1,1
484,-58.0,-19.0,20.0,1645175965.375,P13,D09,1,1,1
485,-58.0,-18.0,20.0,1645175965.40625,P13,D09,1,1,1
486,-58.0,-18.0,20.0,1645175965.4375,P13,D09,1,1,1
487,-58.0,-18.0,20.0,1645175965.46875,P13,D09,1,1,1
488,-58.0,-19.0,20.0,1645175965.5,P13,D09,1,1,1
489,-59.0,-19.0,21.0,1645175965.53125,P13,D09,1,1,1
490,-58.0,-19.0,20.0,1645175965.5625,P13,D09,1,1,1
491,-59.0,-19.0,20.0,1645175965.59375,P13,D09,1,1,1
492,-58.0,-19.0,21.0,1645175965.625,P13,D09,1,1,1
493,-58.0,-18.0,21.0,1645175965.65625,P13,D09,1,1,1
494,-58.0,-19.0,20.0,1645175965.6875,P13,D09,1,1,1
495,-57.0,-19.0,21.0,1645175965.71875,P13,D09,1,1,1
496,-58.0,-20.0,21.0,1645175965.75,P13,D09,1,1,1
497,-59.0,-19.0,20.0,1645175965.78125,P13,D09,1,1,1
498,-58.0,-19.0,20.0,1645175965.8125,P13,D09,1,1,1
499,-58.0,-19.0,21.0,1645175965.84375,P13,D09,1,1,1
500,-58.0,-19.0,20.0,1645175965.875,P13,D09,1,1,1
501,-58.0,-19.0,20.0,1645175965.90625,P13,D09,1,1,1
502,-59.0,-19.0,20.0,1645175965.9375,P13,D09,1,1,1
503,-58.0,-19.0,20.0,1645175965.96875,P13,D09,1,1,1
504,-58.0,-19.0,20.0,1645175966.0,P13,D09,1,1,1
505,-58.0,-19.0,20.0,1645175966.03125,P13,D09,1,1,1
506,-58.0,-19.0,20.0,1645175966.0625,P13,D09,1,1,1
507,-58.0,-19.0,20.0,1645175966.09375,P13,D09,1,1,1
508,-58.0,-19.0,20.0,1645175966.125,P13,D09,1,1,1
509,-58.0,-19.0,20.0,1645175966.15625,P13,D09,1,1,1
510,-58.0,-19.0,20.0,1645175966.1875,P13,D09,1,1,1
511,-58.0,-19.0,20.0,1645175966.21875,P13,D09,1,1,1
512,-59.0,-19.0,19.0,1645175966.25,P13,D09,1,1,1
513,-58.0,-19.0,19.0,1645175966.28125,P13,D09,1,1,1
514,-58.0,-19.0,19.0,1645175966.3125,P13,D09,1,1,1
515,-58.0,-19.0,19.0,1645175966.34375,P13,D09,1,1,1
516,-59.0,-19.0,20.0,1645175966.375,P13,D09,1,1,1
517,-58.0,-19.0,20.0,1645175966.40625,P13,D09,1,1,1
518,-58.0,-19.0,20.0,1645175966.4375,P13,D09,1,1,1
519,-59.0,-19.0,20.0,1645175966.46875,P13,D09,1,1,1
520,-58.0,-19.0,19.0,1645175966.5,P13,D09,1,1,1
521,-59.0,-19.0,19.0,1645175966.53125,P13,D09,1,1,1
522,-59.0,-19.0,19.0,1645175966.5625,P13,D09,1,1,1
523,-58.0,-19.0,19.0,1645175966.59375,P13,D09,1,1,1
524,-58.0,-19.0,20.0,1645175966.625,P13,D09,1,1,1
525,-59.0,-19.0,19.0,1645175966.65625,P13,D09,1,1,1
526,-58.0,-19.0,20.0,1645175966.6875,P13,D09,1,1,1
527,-58.0,-19.0,19.0,1645175966.71875,P13,D09,1,1,1
528,-58.0,-20.0,20.0,1645175966.75,P13,D09,1,1,1
529,-59.0,-20.0,19.0,1645175966.78125,P13,D09,1,1,1
530,-60.0,-19.0,18.0,1645175966.8125,P13,D09,1,1,1
531,-59.0,-18.0,18.0,1645175966.84375,P13,D09,1,1,1
532,-59.0,-17.0,19.0,1645175966.875,P13,D09,1,1,1
533,-59.0,-19.0,19.0,1645175966.90625,P13,D09,1,1,1
534,-59.0,-19.0,19.0,1645175966.9375,P13,D09,1,1,1
535,-59.0,-19.0,19.0,1645175966.96875,P13,D09,1,1,1
536,-58.0,-20.0,19.0,1645175967.0,P13,D09,1,1,1
537,-59.0,-19.0,19.0,1645175967.03125,P13,D09,1,1,1
538,-59.0,-20.0,19.0,1645175967.0625,P13,D09,1,1,1
539,-59.0,-19.0,19.0,1645175967.09375,P13,D09,1,1,1
540,-58.0,-19.0,19.0,1645175967.125,P13,D09,1,1,1
541,-59.0,-19.0,19.0,1645175967.15625,P13,D09,1,1,1
542,-58.0,-19.0,19.0,1645175967.1875,P13,D09,1,1,1
543,-59.0,-19.0,19.0,1645175967.21875,P13,D09,1,1,1
544,-59.0,-19.0,19.0,1645175967.25,P13,D09,1,1,1
545,-58.0,-19.0,19.0,1645175967.28125,P13,D09,1,1,1
546,-58.0,-19.0,20.0,1645175967.3125,P13,D09,1,1,1
547,-59.0,-20.0,20.0,1645175967.34375,P13,D09,1,1,1
548,-59.0,-19.0,19.0,1645175967.375,P13,D09,1,1,1
549,-59.0,-19.0,20.0,1645175967.40625,P13,D09,1,1,1
550,-58.0,-19.0,19.0,1645175967.4375,P13,D09,1,1,1
551,-58.0,-19.0,20.0,1645175967.46875,P13,D09,1,1,1
552,-59.0,-19.0,20.0,1645175967.5,P13,D09,1,1,1
553,-58.0,-19.0,20.0,1645175967.53125,P13,D09,1,1,1
554,-59.0,-19.0,20.0,1645175967.5625,P13,D09,1,1,1
555,-58.0,-19.0,20.0,1645175967.59375,P13,D09,1,1,1
556,-58.0,-19.0,21.0,1645175967.625,P13,D09,1,1,1
557,-58.0,-19.0,20.0,1645175967.65625,P13,D09,1,1,1
558,-58.0,-19.0,20.0,1645175967.6875,P13,D09,1,1,1
559,-59.0,-19.0,20.0,1645175967.71875,P13,D09,1,1,1
560,-58.0,-19.0,20.0,1645175967.75,P13,D09,1,1,1
561,-58.0,-19.0,20.0,1645175967.78125,P13,D09,1,1,1
562,-58.0,-19.0,20.0,1645175967.8125,P13,D09,1,1,1
563,-59.0,-19.0,20.0,1645175967.84375,P13,D09,1,1,1
564,-58.0,-19.0,20.0,1645175967.875,P13,D09,1,1,1
565,-58.0,-19.0,20.0,1645175967.90625,P13,D09,1,1,1
566,-58.0,-19.0,20.0,1645175967.9375,P13,D09,1,1,1
567,-58.0,-19.0,20.0,1645175967.96875,P13,D09,1,1,1
568,-58.0,-19.0,20.0,1645175968.0,P13,D09,1,1,1
569,-58.0,-19.0,20.0,1645175968.03125,P13,D09,1,1,1
570,-58.0,-19.0,20.0,1645175968.0625,P13,D09,1,1,1
571,-58.0,-19.0,20.0,1645175968.09375,P13,D09,1,1,1
572,-58.0,-19.0,21.0,1645175968.125,P13,D09,1,1,1
573,-58.0,-19.0,21.0,1645175968.15625,P13,D09,1,1,1
574,-58.0,-19.0,20.0,1645175968.1875,P13,D09,1,1,1
575,-58.0,-19.0,20.0,1645175968.21875,P13,D09,1,1,1
576,-58.0,-19.0,20.0,1645175968.25,P13,D09,1,1,1
577,-58.0,-19.0,20.0,1645175968.28125,P13,D09,1,1,1
578,-58.0,-19.0,20.0,1645175968.3125,P13,D09,1,1,1
579,-58.0,-20.0,21.0,1645175968.34375,P13,D09,1,1,1
580,-58.0,-19.0,20.0,1645175968.375,P13,D09,1,1,1
581,-58.0,-20.0,20.0,1645175968.40625,P13,D09,1,1,1
582,-58.0,-19.0,20.0,1645175968.4375,P13,D09,1,1,1
583,-57.0,-19.0,20.0,1645175968.46875,P13,D09,1,1,1
584,-58.0,-19.0,20.0,1645175968.5,P13,D09,1,1,1
585,-58.0,-18.0,20.0,1645175968.53125,P13,D09,1,1,1
586,-56.0,-17.0,21.0,1645175968.5625,P13,D09,1,1,1
587,-58.0,-18.0,20.0,1645175968.59375,P13,D09,1,1,1
588,-59.0,-19.0,17.0,1645175968.625,P13,D09,1,1,1
589,-58.0,-20.0,17.0,1645175968.65625,P13,D09,1,1,1
590,-59.0,-21.0,17.0,1645175968.6875,P13,D09,1,1,1
591,-58.0,-20.0,20.0,1645175968.71875,P13,D09,1,1,1
592,-59.0,-21.0,20.0,1645175968.75,P13,D09,1,1,1
593,-58.0,-20.0,18.0,1645175968.78125,P13,D09,1,1,1
594,-57.0,-20.0,20.0,1645175968.8125,P13,D09,1,1,1
595,-60.0,-19.0,20.0,1645175968.84375,P13,D09,1,1,1
596,-57.0,-20.0,19.0,1645175968.875,P13,D09,1,1,1
597,-56.0,-19.0,20.0,1645175968.90625,P13,D09,1,1,1
598,-58.0,-20.0,17.0,1645175968.9375,P13,D09,1,1,1
599,-59.0,-20.0,19.0,1645175968.96875,P13,D09,1,1,1
600,-54.0,-16.0,30.0,1645175969.0,P13,D09,1,1,1
601,-54.0,-19.0,29.0,1645175969.03125,P13,D09,1,1,1
602,-59.0,-23.0,13.0,1645175969.0625,P13,D09,1,1,1
603,-59.0,-22.0,10.0,1645175969.09375,P13,D09,1,1,1
604,-60.0,-21.0,12.0,1645175969.125,P13,D09,1,1,1
605,-60.0,-21.0,15.0,1645175969.15625,P13,D09,1,1,1
606,-59.0,-21.0,17.0,1645175969.1875,P13,D09,1,1,1
607,-57.0,-20.0,21.0,1645175969.21875,P13,D09,1,1,1
608,-58.0,-20.0,20.0,1645175969.25,P13,D09,1,1,1
609,-59.0,-19.0,20.0,1645175969.28125,P13,D09,1,1,1
610,-58.0,-19.0,19.0,1645175969.3125,P13,D09,1,1,1
611,-59.0,-19.0,18.0,1645175969.34375,P13,D09,1,1,1
612,-58.0,-19.0,18.0,1645175969.375,P13,D09,1,1,1
613,-59.0,-20.0,18.0,1645175969.40625,P13,D09,1,1,1
614,-58.0,-20.0,19.0,1645175969.4375,P13,D09,1,1,1
615,-58.0,-19.0,20.0,1645175969.46875,P13,D09,1,1,1
616,-58.0,-19.0,20.0,1645175969.5,P13,D09,1,1,1
617,-58.0,-19.0,20.0,1645175969.53125,P13,D09,1,1,1
618,-58.0,-18.0,20.0,1645175969.5625,P13,D09,1,1,1
619,-58.0,-18.0,19.0,1645175969.59375,P13,D09,1,1,1
620,-58.0,-19.0,20.0,1645175969.625,P13,D09,1,1,1
621,-58.0,-20.0,20.0,1645175969.65625,P13,D09,1,1,1
622,-58.0,-20.0,21.0,1645175969.6875,P13,D09,1,1,1
623,-58.0,-20.0,21.0,1645175969.71875,P13,D09,1,1,1
624,-58.0,-19.0,22.0,1645175969.75,P13,D09,1,1,1
625,-57.0,-18.0,23.0,1645175969.78125,P13,D09,1,1,1
626,-57.0,-18.0,23.0,1645175969.8125,P13,D09,1,1,1
627,-57.0,-19.0,23.0,1645175969.84375,P13,D09,1,1,1
628,-58.0,-19.0,23.0,1645175969.875,P13,D09,1,1,1
629,-57.0,-19.0,23.0,1645175969.90625,P13,D09,1,1,1
630,-57.0,-19.0,23.0,1645175969.9375,P13,D09,1,1,1
631,-57.0,-20.0,23.0,1645175969.96875,P13,D09,1,1,1
632,-57.0,-19.0,22.0,1645175970.0,P13,D09,1,1,1
633,-57.0,-20.0,22.0,1645175970.03125,P13,D09,1,1,1
634,-58.0,-19.0,22.0,1645175970.0625,P13,D09,1,1,1
635,-57.0,-19.0,23.0,1645175970.09375,P13,D09,1,1,1
636,-57.0,-19.0,23.0,1645175970.125,P13,D09,1,1,1
637,-57.0,-19.0,24.0,1645175970.15625,P13,D09,1,1,1
638,-57.0,-19.0,23.0,1645175970.1875,P13,D09,1,1,1
639,-57.0,-19.0,24.0,1645175970.21875,P13,D09,1,1,1
640,-57.0,-19.0,23.0,1645175970.25,P13,D09,1,1,1
641,-57.0,-19.0,23.0,1645175970.28125,P13,D09,1,1,1
642,-56.0,-19.0,24.0,1645175970.3125,P13,D09,1,1,1
643,-57.0,-19.0,24.0,1645175970.34375,P13,D09,1,1,1
644,-57.0,-20.0,24.0,1645175970.375,P13,D09,1,1,1
645,-56.0,-20.0,24.0,1645175970.40625,P13,D09,1,1,1
646,-57.0,-19.0,24.0,1645175970.4375,P13,D09,1,1,1
647,-56.0,-19.0,24.0,1645175970.46875,P13,D09,1,1,1
648,-56.0,-19.0,24.0,1645175970.5,P13,D09,1,1,1
649,-57.0,-19.0,24.0,1645175970.53125,P13,D09,1,1,1
650,-57.0,-19.0,24.0,1645175970.5625,P13,D09,1,1,1
651,-57.0,-19.0,24.0,1645175970.59375,P13,D09,1,1,1
652,-56.0,-19.0,24.0,1645175970.625,P13,D09,1,1,1
653,-56.0,-19.0,24.0,1645175970.65625,P13,D09,1,1,1
654,-56.0,-19.0,24.0,1645175970.6875,P13,D09,1,1,1
655,-57.0,-19.0,24.0,1645175970.71875,P13,D09,1,1,1
656,-56.0,-19.0,24.0,1645175970.75,P13,D09,1,1,1
657,-56.0,-19.0,24.0,1645175970.78125,P13,D09,1,1,1
658,-56.0,-19.0,24.0,1645175970.8125,P13,D09,1,1,1
659,-56.0,-19.0,25.0,1645175970.84375,P13,D09,1,1,1
660,-56.0,-19.0,25.0,1645175970.875,P13,D09,1,1,1
661,-56.0,-19.0,25.0,1645175970.90625,P13,D09,1,1,1
662,-56.0,-20.0,25.0,1645175970.9375,P13,D09,1,1,1
663,-56.0,-19.0,25.0,1645175970.96875,P13,D09,1,1,1
664,-56.0,-19.0,25.0,1645175971.0,P13,D09,1,1,1
665,-56.0,-19.0,25.0,1645175971.03125,P13,D09,1,1,1
666,-56.0,-19.0,25.0,1645175971.0625,P13,D09,1,1,1
667,-57.0,-19.0,25.0,1645175971.09375,P13,D09,1,1,1
668,-56.0,-19.0,25.0,1645175971.125,P13,D09,1,1,1
669,-56.0,-19.0,25.0,1645175971.15625,P13,D09,1,1,1
670,-56.0,-19.0,25.0,1645175971.1875,P13,D09,1,1,1
671,-56.0,-19.0,25.0,1645175971.21875,P13,D09,1,1,1
672,-56.0,-19.0,25.0,1645175971.25,P13,D09,1,1,1
673,-56.0,-19.0,25.0,1645175971.28125,P13,D09,1,1,1
674,-56.0,-19.0,25.0,1645175971.3125,P13,D09,1,1,1
675,-56.0,-19.0,25.0,1645175971.34375,P13,D09,1,1,1
676,-56.0,-19.0,25.0,1645175971.375,P13,D09,1,1,1
677,-56.0,-19.0,25.0,1645175971.40625,P13,D09,1,1,1
678,-57.0,-19.0,25.0,1645175971.4375,P13,D09,1,1,1
679,-57.0,-19.0,25.0,1645175971.46875,P13,D09,1,1,1
680,-56.0,-20.0,24.0,1645175971.5,P13,D09,1,1,1
681,-57.0,-20.0,24.0,1645175971.53125,P13,D09,1,1,1
682,-56.0,-19.0,24.0,1645175971.5625,P13,D09,1,1,1
683,-57.0,-19.0,25.0,1645175971.59375,P13,D09,1,1,1
684,-56.0,-19.0,25.0,1645175971.625,P13,D09,1,1,1
685,-57.0,-19.0,24.0,1645175971.65625,P13,D09,1,1,1
686,-56.0,-19.0,25.0,1645175971.6875,P13,D09,1,1,1
687,-57.0,-18.0,24.0,1645175971.71875,P13,D09,1,1,1
688,-56.0,-19.0,25.0,1645175971.75,P13,D09,1,1,1
689,-57.0,-18.0,25.0,1645175971.78125,P13,D09,1,1,1
690,-56.0,-18.0,25.0,1645175971.8125,P13,D09,1,1,1
691,-57.0,-18.0,24.0,1645175971.84375,P13,D09,1,1,1
692,-56.0,-18.0,25.0,1645175971.875,P13,D09,1,1,1
693,-57.0,-18.0,24.0,1645175971.90625,P13,D09,1,1,1
694,-57.0,-18.0,24.0,1645175971.9375,P13,D09,1,1,1
695,-56.0,-19.0,25.0,1645175971.96875,P13,D09,1,1,1
696,-57.0,-19.0,25.0,1645175972.0,P13,D09,1,1,1
697,-56.0,-19.0,25.0,1645175972.03125,P13,D09,1,1,1
698,-57.0,-18.0,24.0,1645175972.0625,P13,D09,1,1,1
699,-56.0,-18.0,25.0,1645175972.09375,P13,D09,1,1,1
700,-57.0,-19.0,25.0,1645175972.125,P13,D09,1,1,1
701,-56.0,-18.0,25.0,1645175972.15625,P13,D09,1,1,1
702,-56.0,-18.0,25.0,1645175972.1875,P13,D09,1,1,1
703,-56.0,-18.0,25.0,1645175972.21875,P13,D09,1,1,1
704,-56.0,-19.0,24.0,1645175972.25,P13,D09,1,1,1
705,-57.0,-19.0,24.0,1645175972.28125,P13,D09,1,1,1
706,-57.0,-19.0,24.0,1645175972.3125,P13,D09,1,1,1
707,-57.0,-18.0,25.0,1645175972.34375,P13,D09,1,1,1
708,-57.0,-18.0,25.0,1645175972.375,P13,D09,1,1,1
709,-57.0,-18.0,24.0,1645175972.40625,P13,D09,1,1,1
710,-56.0,-19.0,25.0,1645175972.4375,P13,D09,1,1,1
711,-57.0,-19.0,25.0,1645175972.46875,P13,D09,1,1,1
712,-56.0,-18.0,25.0,1645175972.5,P13,D09,1,1,1
713,-57.0,-18.0,25.0,1645175972.53125,P13,D09,1,1,1
714,-56.0,-18.0,25.0,1645175972.5625,P13,D09,1,1,1
715,-56.0,-18.0,25.0,1645175972.59375,P13,D09,1,1,1
716,-57.0,-18.0,24.0,1645175972.625,P13,D09,1,1,1
717,-56.0,-19.0,25.0,1645175972.65625,P13,D09,1,1,1
718,-56.0,-19.0,25.0,1645175972.6875,P13,D09,1,1,1
719,-56.0,-18.0,25.0,1645175972.71875,P13,D09,1,1,1
720,-56.0,-18.0,25.0,1645175972.75,P13,D09,1,1,1
721,-57.0,-18.0,25.0,1645175972.78125,P13,D09,1,1,1
722,-57.0,-19.0,25.0,1645175972.8125,P13,D09,1,1,1
723,-57.0,-19.0,24.0,1645175972.84375,P13,D09,1,1,1
724,-57.0,-19.0,24.0,1645175972.875,P13,D09,1,1,1
725,-57.0,-18.0,25.0,1645175972.90625,P13,D09,1,1,1
726,-57.0,-19.0,25.0,1645175972.9375,P13,D09,1,1,1
727,-56.0,-18.0,25.0,1645175972.96875,P13,D09,1,1,1
728,-57.0,-18.0,24.0,1645175973.0,P13,D09,1,1,1
729,-56.0,-18.0,25.0,1645175973.03125,P13,D09,1,1,1
730,-56.0,-18.0,25.0,1645175973.0625,P13,D09,1,1,1
731,-56.0,-18.0,25.0,1645175973.09375,P13,D09,1,1,1
732,-56.0,-18.0,25.0,1645175973.125,P13,D09,1,1,1
733,-56.0,-18.0,25.0,1645175973.15625,P13,D09,1,1,1
734,-56.0,-19.0,25.0,1645175973.1875,P13,D09,1,1,1
735,-56.0,-18.0,25.0,1645175973.21875,P13,D09,1,1,1
736,-56.0,-18.0,25.0,1645175973.25,P13,D09,1,1,1
737,-56.0,-18.0,25.0,1645175973.28125,P13,D09,1,1,1
738,-56.0,-18.0,25.0,1645175973.3125,P13,D09,1,1,1
739,-56.0,-18.0,25.0,1645175973.34375,P13,D09,1,1,1
740,-56.0,-18.0,25.0,1645175973.375,P13,D09,1,1,1
741,-57.0,-18.0,25.0,1645175973.40625,P13,D09,1,1,1
742,-56.0,-18.0,25.0,1645175973.4375,P13,D09,1,1,1
743,-56.0,-18.0,25.0,1645175973.46875,P13,D09,1,1,1
744,-56.0,-19.0,25.0,1645175973.5,P13,D09,1,1,1
745,-57.0,-18.0,25.0,1645175973.53125,P13,D09,1,1,1
746,-56.0,-18.0,25.0,1645175973.5625,P13,D09,1,1,1
747,-57.0,-18.0,25.0,1645175973.59375,P13,D09,1,1,1
748,-56.0,-19.0,25.0,1645175973.625,P13,D09,1,1,1
749,-56.0,-18.0,25.0,1645175973.65625,P13,D09,1,1,1
750,-56.0,-18.0,25.0,1645175973.6875,P13,D09,1,1,1
751,-56.0,-18.0,25.0,1645175973.71875,P13,D09,1,1,1
752,-56.0,-18.0,25.0,1645175973.75,P13,D09,1,1,1
753,-57.0,-18.0,25.0,1645175973.78125,P13,D09,1,1,1
754,-56.0,-18.0,25.0,1645175973.8125,P13,D09,1,1,1
755,-56.0,-18.0,25.0,1645175973.84375,P13,D09,1,1,1
756,-57.0,-18.0,24.0,1645175973.875,P13,D09,1,1,1
757,-56.0,-19.0,25.0,1645175973.90625,P13,D09,1,1,1
758,-57.0,-19.0,25.0,1645175973.9375,P13,D09,1,1,1
759,-56.0,-19.0,25.0,1645175973.96875,P13,D09,1,1,1
760,-56.0,-18.0,25.0,1645175974.0,P13,D09,1,1,1
761,-56.0,-18.0,25.0,1645175974.03125,P13,D09,1,1,1
762,-56.0,-18.0,25.0,1645175974.0625,P13,D09,1,1,1
763,-57.0,-19.0,25.0,1645175974.09375,P13,D09,1,1,1
764,-56.0,-19.0,26.0,1645175974.125,P13,D09,1,1,1
765,-57.0,-18.0,25.0,1645175974.15625,P13,D09,1,1,1
766,-55.0,-18.0,26.0,1645175974.1875,P13,D09,1,1,1
767,-57.0,-18.0,25.0,1645175974.21875,P13,D09,1,1,1
768,-56.0,-19.0,25.0,1645175974.25,P13,D09,1,1,1
769,-56.0,-19.0,25.0,1645175974.28125,P13,D09,1,1,1
770,-57.0,-18.0,25.0,1645175974.3125,P13,D09,1,1,1
771,-57.0,-18.0,26.0,1645175974.34375,P13,D09,1,1,1
772,-55.0,-18.0,26.0,1645175974.375,P13,D09,1,1,1
773,-57.0,-18.0,25.0,1645175974.40625,P13,D09,1,1,1
774,-55.0,-19.0,26.0,1645175974.4375,P13,D09,1,1,1
775,-57.0,-18.0,25.0,1645175974.46875,P13,D09,1,1,1
776,-57.0,-19.0,26.0,1645175974.5,P13,D09,1,1,1
777,-56.0,-19.0,26.0,1645175974.53125,P13,D09,1,1,1
778,-56.0,-17.0,25.0,1645175974.5625,P13,D09,1,1,1
779,-55.0,-17.0,25.0,1645175974.59375,P13,D09,1,1,1
780,-57.0,-17.0,26.0,1645175974.625,P13,D09,1,1,1
781,-56.0,-17.0,27.0,1645175974.65625,P13,D09,1,1,1
782,-55.0,-17.0,27.0,1645175974.6875,P13,D09,1,1,1
783,-56.0,-17.0,27.0,1645175974.71875,P13,D09,1,1,1
784,-56.0,-17.0,27.0,1645175974.75,P13,D09,1,1,1
785,-56.0,-18.0,26.0,1645175974.78125,P13,D09,1,1,1
786,-57.0,-18.0,26.0,1645175974.8125,P13,D09,1,1,1
787,-56.0,-17.0,26.0,1645175974.84375,P13,D09,1,1,1
788,-56.0,-17.0,27.0,1645175974.875,P13,D09,1,1,1
789,-56.0,-17.0,27.0,1645175974.90625,P13,D09,1,1,1
790,-56.0,-17.0,26.0,1645175974.9375,P13,D09,1,1,1
791,-56.0,-18.0,26.0,1645175974.96875,P13,D09,1,1,1
792,-56.0,-17.0,26.0,1645175975.0,P13,D09,1,1,1
793,-56.0,-17.0,27.0,1645175975.03125,P13,D09,1,1,1
794,-56.0,-17.0,26.0,1645175975.0625,P13,D09,1,1,1
795,-56.0,-18.0,26.0,1645175975.09375,P13,D09,1,1,1
796,-57.0,-18.0,26.0,1645175975.125,P13,D09,1,1,1
797,-56.0,-17.0,26.0,1645175975.15625,P13,D09,1,1,1
798,-56.0,-17.0,26.0,1645175975.1875,P13,D09,1,1,1
799,-56.0,-17.0,26.0,1645175975.21875,P13,D09,1,1,1
800,-56.0,-17.0,26.0,1645175975.25,P13,D09,1,1,1
801,-56.0,-17.0,26.0,1645175975.28125,P13,D09,1,1,1
802,-56.0,-17.0,26.0,1645175975.3125,P13,D09,1,1,1
803,-56.0,-18.0,26.0,1645175975.34375,P13,D09,1,1,1
804,-56.0,-17.0,26.0,1645175975.375,P13,D09,1,1,1
805,-57.0,-17.0,26.0,1645175975.40625,P13,D09,1,1,1
806,-57.0,-17.0,26.0,1645175975.4375,P13,D09,1,1,1
807,-56.0,-17.0,26.0,1645175975.46875,P13,D09,1,1,1
808,-56.0,-16.0,26.0,1645175975.5,P13,D09,1,1,1
809,-57.0,-17.0,26.0,1645175975.53125,P13,D09,1,1,1
810,-56.0,-17.0,26.0,1645175975.5625,P13,D09,1,1,1
811,-56.0,-17.0,26.0,1645175975.59375,P13,D09,1,1,1
812,-56.0,-17.0,25.0,1645175975.625,P13,D09,1,1,1
813,-58.0,-18.0,25.0,1645175975.65625,P13,D09,1,1,1
814,-57.0,-17.0,25.0,1645175975.6875,P13,D09,1,1,1
815,-57.0,-18.0,25.0,1645175975.71875,P13,D09,1,1,1
816,-56.0,-17.0,25.0,1645175975.75,P13,D09,1,1,1
817,-57.0,-18.0,25.0,1645175975.78125,P13,D09,1,1,1
818,-57.0,-17.0,25.0,1645175975.8125,P13,D09,1,1,1
819,-56.0,-17.0,25.0,1645175975.84375,P13,D09,1,1,1
820,-57.0,-17.0,25.0,1645175975.875,P13,D09,1,1,1
821,-57.0,-17.0,25.0,1645175975.90625,P13,D09,1,1,1
822,-56.0,-17.0,25.0,1645175975.9375,P13,D09,1,1,1
823,-56.0,-17.0,25.0,1645175975.96875,P13,D09,1,1,1
824,-56.0,-17.0,25.0,1645175976.0,P13,D09,1,1,1
825,-57.0,-17.0,25.0,1645175976.03125,P13,D09,1,1,1
826,-56.0,-17.0,26.0,1645175976.0625,P13,D09,1,1,1
827,-57.0,-17.0,25.0,1645175976.09375,P13,D09,1,1,1
828,-57.0,-17.0,25.0,1645175976.125,P13,D09,1,1,1
829,-56.0,-17.0,25.0,1645175976.15625,P13,D09,1,1,1
830,-57.0,-17.0,25.0,1645175976.1875,P13,D09,1,1,1
831,-56.0,-17.0,25.0,1645175976.21875,P13,D09,1,1,1
832,-57.0,-17.0,25.0,1645175976.25,P13,D09,1,1,1
833,-57.0,-17.0,25.0,1645175976.28125,P13,D09,1,1,1
834,-56.0,-17.0,26.0,1645175976.3125,P13,D09,1,1,1
835,-56.0,-17.0,26.0,1645175976.34375,P13,D09,1,1,1
836,-57.0,-17.0,25.0,1645175976.375,P13,D09,1,1,1
837,-57.0,-17.0,26.0,1645175976.40625,P13,D09,1,1,1
838,-57.0,-17.0,26.0,1645175976.4375,P13,D09,1,1,1
839,-56.0,-17.0,26.0,1645175976.46875,P13,D09,1,1,1
840,-57.0,-17.0,25.0,1645175976.5,P13,D09,1,1,1
841,-55.0,-16.0,26.0,1645175976.53125,P13,D09,1,1,1
842,-57.0,-17.0,26.0,1645175976.5625,P13,D09,1,1,1
843,-56.0,-17.0,26.0,1645175976.59375,P13,D09,1,1,1
844,-56.0,-17.0,24.0,1645175976.625,P13,D09,1,1,1
845,-57.0,-17.0,26.0,1645175976.65625,P13,D09,1,1,1
846,-56.0,-17.0,26.0,1645175976.6875,P13,D09,1,1,1
847,-56.0,-17.0,25.0,1645175976.71875,P13,D09,1,1,1
848,-56.0,-17.0,25.0,1645175976.75,P13,D09,1,1,1
849,-56.0,-17.0,26.0,1645175976.78125,P13,D09,1,1,1
850,-57.0,-18.0,26.0,1645175976.8125,P13,D09,1,1,1
851,-57.0,-17.0,25.0,1645175976.84375,P13,D09,1,1,1
852,-56.0,-17.0,25.0,1645175976.875,P13,D09,1,1,1
853,-57.0,-17.0,26.0,1645175976.90625,P13,D09,1,1,1
854,-56.0,-17.0,26.0,1645175976.9375,P13,D09,1,1,1
855,-57.0,-17.0,25.0,1645175976.96875,P13,D09,1,1,1
856,-56.0,-17.0,25.0,1645175977.0,P13,D09,1,1,1
857,-57.0,-17.0,26.0,1645175977.03125,P13,D09,1,1,1
858,-58.0,-17.0,26.0,1645175977.0625,P13,D09,1,1,1
859,-56.0,-17.0,26.0,1645175977.09375,P13,D09,1,1,1
860,-56.0,-17.0,26.0,1645175977.125,P13,D09,1,1,1
861,-56.0,-17.0,25.0,1645175977.15625,P13,D09,1,1,1
862,-57.0,-17.0,25.0,1645175977.1875,P13,D09,1,1,1
863,-57.0,-17.0,25.0,1645175977.21875,P13,D09,1,1,1
864,-56.0,-17.0,26.0,1645175977.25,P13,D09,1,1,1
865,-57.0,-17.0,25.0,1645175977.28125,P13,D09,1,1,1
866,-56.0,-17.0,25.0,1645175977.3125,P13,D09,1,1,1
867,-57.0,-17.0,25.0,1645175977.34375,P13,D09,1,1,1
868,-57.0,-17.0,25.0,1645175977.375,P13,D09,1,1,1
869,-57.0,-17.0,25.0,1645175977.40625,P13,D09,1,1,1
870,-56.0,-17.0,25.0,1645175977.4375,P13,D09,1,1,1
871,-57.0,-17.0,25.0,1645175977.46875,P13,D09,1,1,1
872,-57.0,-17.0,25.0,1645175977.5,P13,D09,1,1,1
873,-57.0,-17.0,25.0,1645175977.53125,P13,D09,1,1,1
874,-56.0,-17.0,25.0,1645175977.5625,P13,D09,1,1,1
875,-57.0,-17.0,25.0,1645175977.59375,P13,D09,1,1,1
876,-56.0,-17.0,25.0,1645175977.625,P13,D09,1,1,1
877,-56.0,-17.0,25.0,1645175977.65625,P13,D09,1,1,1
878,-56.0,-17.0,25.0,1645175977.6875,P13,D09,1,1,1
879,-57.0,-17.0,25.0,1645175977.71875,P13,D09,1,1,1
880,-57.0,-17.0,25.0,1645175977.75,P13,D09,1,1,1
881,-57.0,-17.0,26.0,1645175977.78125,P13,D09,1,1,1
882,-56.0,-17.0,26.0,1645175977.8125,P13,D09,1,1,1
883,-57.0,-17.0,26.0,1645175977.84375,P13,D09,1,1,1
884,-57.0,-17.0,26.0,1645175977.875,P13,D09,1,1,1
885,-56.0,-17.0,26.0,1645175977.90625,P13,D09,1,1,1
886,-57.0,-17.0,26.0,1645175977.9375,P13,D09,1,1,1
887,-56.0,-17.0,25.0,1645175977.96875,P13,D09,1,1,1
888,-56.0,-17.0,25.0,1645175978.0,P13,D09,1,1,1
889,-56.0,-17.0,25.0,1645175978.03125,P13,D09,1,1,1
890,-56.0,-17.0,25.0,1645175978.0625,P13,D09,1,1,1
891,-56.0,-17.0,26.0,1645175978.09375,P13,D09,1,1,1
892,-57.0,-17.0,27.0,1645175978.125,P13,D09,1,1,1
893,-56.0,-17.0,26.0,1645175978.15625,P13,D09,1,1,1
894,-56.0,-17.0,26.0,1645175978.1875,P13,D09,1,1,1
895,-56.0,-17.0,26.0,1645175978.21875,P13,D09,1,1,1
896,-56.0,-17.0,26.0,1645175978.25,P13,D09,1,1,1
897,-56.0,-17.0,26.0,1645175978.28125,P13,D09,1,1,1
898,-56.0,-17.0,26.0,1645175978.3125,P13,D09,1,1,1
899,-56.0,-17.0,26.0,1645175978.34375,P13,D09,1,1,1
900,-56.0,-17.0,26.0,1645175978.375,P13,D09,1,1,1
901,-57.0,-17.0,26.0,1645175978.40625,P13,D09,1,1,1
902,-56.0,-17.0,27.0,1645175978.4375,P13,D09,1,1,1
903,-56.0,-17.0,27.0,1645175978.46875,P13,D09,1,1,1
904,-56.0,-17.0,27.0,1645175978.5,P13,D09,1,1,1
905,-56.0,-17.0,26.0,1645175978.53125,P13,D09,1,1,1
906,-56.0,-17.0,26.0,1645175978.5625,P13,D09,1,1,1
907,-56.0,-17.0,26.0,1645175978.59375,P13,D09,1,1,1
908,-56.0,-17.0,27.0,1645175978.625,P13,D09,1,1,1
909,-56.0,-17.0,26.0,1645175978.65625,P13,D09,1,1,1
910,-56.0,-17.0,26.0,1645175978.6875,P13,D09,1,1,1
911,-56.0,-17.0,26.0,1645175978.71875,P13,D09,1,1,1
912,-56.0,-17.0,26.0,1645175978.75,P13,D09,1,1,1
913,-56.0,-17.0,27.0,1645175978.78125,P13,D09,1,1,1
914,-56.0,-17.0,26.0,1645175978.8125,P13,D09,1,1,1
915,-56.0,-17.0,26.0,1645175978.84375,P13,D09,1,1,1
916,-56.0,-17.0,27.0,1645175978.875,P13,D09,1,1,1
917,-56.0,-17.0,27.0,1645175978.90625,P13,D09,1,1,1
918,-56.0,-17.0,26.0,1645175978.9375,P13,D09,1,1,1
919,-56.0,-17.0,26.0,1645175978.96875,P13,D09,1,1,1
920,-56.0,-17.0,27.0,1645175979.0,P13,D09,1,1,1
921,-56.0,-17.0,27.0,1645175979.03125,P13,D09,1,1,1
922,-56.0,-17.0,27.0,1645175979.0625,P13,D09,1,1,1
923,-56.0,-17.0,26.0,1645175979.09375,P13,D09,1,1,1
924,-56.0,-17.0,26.0,1645175979.125,P13,D09,1,1,1
925,-56.0,-17.0,26.0,1645175979.15625,P13,D09,1,1,1
926,-56.0,-17.0,26.0,1645175979.1875,P13,D09,1,1,1
927,-57.0,-16.0,27.0,1645175979.21875,P13,D09,1,1,1
928,-56.0,-17.0,27.0,1645175979.25,P13,D09,1,1,1
929,-56.0,-17.0,27.0,1645175979.28125,P13,D09,1,1,1
930,-56.0,-17.0,26.0,1645175979.3125,P13,D09,1,1,1
931,-56.0,-17.0,26.0,1645175979.34375,P13,D09,1,1,1
932,-57.0,-17.0,25.0,1645175979.375,P13,D09,1,1,1
933,-57.0,-17.0,26.0,1645175979.40625,P13,D09,1,1,1
934,-56.0,-17.0,26.0,1645175979.4375,P13,D09,1,1,1
935,-56.0,-17.0,26.0,1645175979.46875,P13,D09,1,1,1
936,-56.0,-17.0,26.0,1645175979.5,P13,D09,1,1,1
937,-56.0,-17.0,26.0,1645175979.53125,P13,D09,1,1,1
938,-56.0,-17.0,26.0,1645175979.5625,P13,D09,1,1,1
939,-56.0,-17.0,26.0,1645175979.59375,P13,D09,1,1,1
940,-56.0,-17.0,26.0,1645175979.625,P13,D09,1,1,1
941,-56.0,-17.0,26.0,1645175979.65625,P13,D09,1,1,1
942,-56.0,-17.0,26.0,1645175979.6875,P13,D09,1,1,1
943,-56.0,-17.0,27.0,1645175979.71875,P13,D09,1,1,1
944,-57.0,-17.0,26.0,1645175979.75,P13,D09,1,1,1
945,-56.0,-17.0,27.0,1645175979.78125,P13,D09,1,1,1
946,-56.0,-17.0,26.0,1645175979.8125,P13,D09,1,1,1
947,-57.0,-17.0,26.0,1645175979.84375,P13,D09,1,1,1
948,-56.0,-17.0,26.0,1645175979.875,P13,D09,1,1,1
949,-56.0,-17.0,26.0,1645175979.90625,P13,D09,1,1,1
950,-56.0,-17.0,26.0,1645175979.9375,P13,D09,1,1,1
951,-56.0,-17.0,26.0,1645175979.96875,P13,D09,1,1,1
952,-56.0,-17.0,27.0,1645175980.0,P13,D09,1,1,1
953,-56.0,-17.0,26.0,1645175980.03125,P13,D09,1,1,1
954,-56.0,-17.0,26.0,1645175980.0625,P13,D09,1,1,1
955,-56.0,-17.0,26.0,1645175980.09375,P13,D09,1,1,1
956,-56.0,-17.0,26.0,1645175980.125,P13,D09,1,1,1
957,-56.0,-17.0,26.0,1645175980.15625,P13,D09,1,1,1
958,-56.0,-17.0,26.0,1645175980.1875,P13,D09,1,1,1
959,-56.0,-17.0,26.0,1645175980.21875,P13,D09,1,1,1
960,-56.0,-17.0,26.0,1645175980.25,P13,D09,1,1,1
961,-56.0,-17.0,26.0,1645175980.28125,P13,D09,1,1,1
962,-56.0,-17.0,26.0,1645175980.3125,P13,D09,1,1,1
963,-56.0,-17.0,26.0,1645175980.34375,P13,D09,1,1,1
964,-56.0,-17.0,26.0,1645175980.375,P13,D09,1,1,1
965,-56.0,-17.0,26.0,1645175980.40625,P13,D09,1,1,1
966,-56.0,-17.0,26.0,1645175980.4375,P13,D09,1,1,1
967,-56.0,-17.0,26.0,1645175980.46875,P13,D09,1,1,1
968,-56.0,-18.0,26.0,1645175980.5,P13,D09,1,1,1
969,-56.0,-17.0,26.0,1645175980.53125,P13,D09,1,1,1
970,-56.0,-17.0,26.0,1645175980.5625,P13,D09,1,1,1
971,-56.0,-17.0,26.0,1645175980.59375,P13,D09,1,1,1
972,-56.0,-17.0,26.0,1645175980.625,P13,D09,1,1,1
973,-56.0,-17.0,26.0,1645175980.65625,P13,D09,1,1,1
974,-57.0,-17.0,26.0,1645175980.6875,P13,D09,1,1,1
975,-56.0,-17.0,26.0,1645175980.71875,P13,D09,1,1,1
976,-56.0,-17.0,26.0,1645175980.75,P13,D09,1,1,1
977,-56.0,-18.0,26.0,1645175980.78125,P13,D09,1,1,1
978,-56.0,-18.0,26.0,1645175980.8125,P13,D09,1,1,1
979,-56.0,-17.0,26.0,1645175980.84375,P13,D09,1,1,1
980,-56.0,-17.0,26.0,1645175980.875,P13,D09,1,1,1
981,-56.0,-17.0,26.0,1645175980.90625,P13,D09,1,1,1
982,-56.0,-17.0,26.0,1645175980.9375,P13,D09,1,1,1
983,-56.0,-17.0,26.0,1645175980.96875,P13,D09,1,1,1
984,-56.0,-17.0,26.0,1645175981.0,P13,D09,1,1,1
985,-56.0,-17.0,26.0,1645175981.03125,P13,D09,1,1,1
986,-56.0,-17.0,26.0,1645175981.0625,P13,D09,1,1,1
987,-56.0,-17.0,26.0,1645175981.09375,P13,D09,1,1,1
988,-56.0,-17.0,26.0,1645175981.125,P13,D09,1,1,1
989,-56.0,-17.0,26.0,1645175981.15625,P13,D09,1,1,1
990,-56.0,-17.0,26.0,1645175981.1875,P13,D09,1,1,1
991,-56.0,-17.0,26.0,1645175981.21875,P13,D09,1,1,1
992,-57.0,-18.0,25.0,1645175981.25,P13,D09,1,1,1
993,-56.0,-17.0,26.0,1645175981.28125,P13,D09,1,1,1
994,-56.0,-17.0,26.0,1645175981.3125,P13,D09,1,1,1
995,-56.0,-17.0,26.0,1645175981.34375,P13,D09,1,1,1
996,-56.0,-17.0,26.0,1645175981.375,P13,D09,1,1,1
997,-56.0,-18.0,26.0,1645175981.40625,P13,D09,1,1,1
998,-56.0,-17.0,26.0,1645175981.4375,P13,D09,1,1,1
999,-56.0,-17.0,26.0,1645175981.46875,P13,D09,1,1,1
1000,-57.0,-17.0,25.0,1645175981.5,P13,D09,1,1,1
1001,-56.0,-17.0,26.0,1645175981.53125,P13,D09,1,1,1
1002,-55.0,-17.0,26.0,1645175981.5625,P13,D09,1,1,1
1003,-56.0,-18.0,26.0,1645175981.59375,P13,D09,1,1,1
1004,-57.0,-18.0,25.0,1645175981.625,P13,D09,1,1,1
1005,-56.0,-18.0,25.0,1645175981.65625,P13,D09,1,1,1
1006,-57.0,-17.0,26.0,1645175981.6875,P13,D09,1,1,1
1007,-56.0,-18.0,26.0,1645175981.71875,P13,D09,1,1,1
1008,-56.0,-17.0,26.0,1645175981.75,P13,D09,1,1,1
1009,-56.0,-17.0,26.0,1645175981.78125,P13,D09,1,1,1
1010,-57.0,-18.0,26.0,1645175981.8125,P13,D09,1,1,1
1011,-56.0,-18.0,25.0,1645175981.84375,P13,D09,1,1,1
1012,-57.0,-18.0,25.0,1645175981.875,P13,D09,1,1,1
1013,-56.0,-17.0,26.0,1645175981.90625,P13,D09,1,1,1
1014,-56.0,-17.0,25.0,1645175981.9375,P13,D09,1,1,1
1015,-56.0,-18.0,25.0,1645175981.96875,P13,D09,1,1,1
1016,-56.0,-18.0,26.0,1645175982.0,P13,D09,1,1,1
1017,-56.0,-17.0,26.0,1645175982.03125,P13,D09,1,1,1
1018,-56.0,-17.0,26.0,1645175982.0625,P13,D09,1,1,1
1019,-56.0,-18.0,25.0,1645175982.09375,P13,D09,1,1,1
1020,-57.0,-17.0,26.0,1645175982.125,P13,D09,1,1,1
1021,-56.0,-17.0,26.0,1645175982.15625,P13,D09,1,1,1
1022,-56.0,-17.0,26.0,1645175982.1875,P13,D09,1,1,1
1023,-56.0,-17.0,26.0,1645175982.21875,P13,D09,1,1,1
1024,-56.0,-17.0,26.0,1645175982.25,P13,D09,1,1,1
1025,-56.0,-18.0,26.0,1645175982.28125,P13,D09,1,1,1
1026,-56.0,-17.0,26.0,1645175982.3125,P13,D09,1,1,1
1027,-56.0,-17.0,26.0,1645175982.34375,P13,D09,1,1,1
1028,-56.0,-17.0,26.0,1645175982.375,P13,D09,1,1,1
1029,-56.0,-17.0,26.0,1645175982.40625,P13,D09,1,1,1
1030,-57.0,-18.0,26.0,1645175982.4375,P13,D09,1,1,1
1031,-57.0,-18.0,26.0,1645175982.46875,P13,D09,1,1,1
1032,-57.0,-18.0,26.0,1645175982.5,P13,D09,1,1,1
1033,-56.0,-17.0,26.0,1645175982.53125,P13,D09,1,1,1
1034,-56.0,-17.0,26.0,1645175982.5625,P13,D09,1,1,1
1035,-55.0,-17.0,26.0,1645175982.59375,P13,D09,1,1,1
1036,-57.0,-17.0,26.0,1645175982.625,P13,D09,1,1,1
1037,-56.0,-17.0,26.0,1645175982.65625,P13,D09,1,1,1
1038,-56.0,-17.0,26.0,1645175982.6875,P13,D09,1,1,1
1039,-56.0,-17.0,26.0,1645175982.71875,P13,D09,1,1,1
1040,-56.0,-17.0,26.0,1645175982.75,P13,D09,1,1,1
1041,-57.0,-17.0,26.0,1645175982.78125,P13,D09,1,1,1
1042,-56.0,-17.0,26.0,1645175982.8125,P13,D09,1,1,1
1043,-56.0,-17.0,26.0,1645175982.84375,P13,D09,1,1,1
1044,-56.0,-17.0,26.0,1645175982.875,P13,D09,1,1,1
1045,-56.0,-17.0,26.0,1645175982.90625,P13,D09,1,1,1
1046,-56.0,-17.0,26.0,1645175982.9375,P13,D09,1,1,1
1047,-56.0,-17.0,26.0,1645175982.96875,P13,D09,1,1,1
1048,-57.0,-17.0,27.0,1645175983.0,P13,D09,1,1,1
1049,-58.0,-17.0,27.0,1645175983.03125,P13,D09,1,1,1
1050,-56.0,-18.0,27.0,1645175983.0625,P13,D09,1,1,1
1051,-55.0,-17.0,25.0,1645175983.09375,P13,D09,1,1,1
1052,-56.0,-18.0,24.0,1645175983.125,P13,D09,1,1,1
1053,-56.0,-18.0,25.0,1645175983.15625,P13,D09,1,1,1
1054,-55.0,-18.0,26.0,1645175983.1875,P13,D09,1,1,1
1055,-55.0,-18.0,27.0,1645175983.21875,P13,D09,1,1,1
1056,-56.0,-17.0,26.0,1645175983.25,P13,D09,1,1,1
1057,-56.0,-18.0,26.0,1645175983.28125,P13,D09,1,1,1
1058,-56.0,-18.0,26.0,1645175983.3125,P13,D09,1,1,1
1059,-57.0,-18.0,26.0,1645175983.34375,P13,D09,1,1,1
1060,-57.0,-18.0,26.0,1645175983.375,P13,D09,1,1,1
1061,-56.0,-18.0,27.0,1645175983.40625,P13,D09,1,1,1
1062,-55.0,-19.0,27.0,1645175983.4375,P13,D09,1,1,1
1063,-56.0,-17.0,25.0,1645175983.46875,P13,D09,1,1,1
1064,-56.0,-17.0,25.0,1645175983.5,P13,D09,1,1,1
1065,-56.0,-17.0,27.0,1645175983.53125,P13,D09,1,1,1
1066,-55.0,-17.0,27.0,1645175983.5625,P13,D09,1,1,1
1067,-55.0,-17.0,26.0,1645175983.59375,P13,D09,1,1,1
1068,-56.0,-17.0,25.0,1645175983.625,P13,D09,1,1,1
1069,-56.0,-17.0,27.0,1645175983.65625,P13,D09,1,1,1
1070,-56.0,-17.0,27.0,1645175983.6875,P13,D09,1,1,1
1071,-55.0,-17.0,26.0,1645175983.71875,P13,D09,1,1,1
1072,-57.0,-17.0,26.0,1645175983.75,P13,D09,1,1,1
1073,-56.0,-17.0,26.0,1645175983.78125,P13,D09,1,1,1
1074,-56.0,-17.0,26.0,1645175983.8125,P13,D09,1,1,1
1075,-55.0,-17.0,26.0,1645175983.84375,P13,D09,1,1,1
1076,-56.0,-17.0,26.0,1645175983.875,P13,D09,1,1,1
1077,-57.0,-17.0,26.0,1645175983.90625,P13,D09,1,1,1
1078,-57.0,-17.0,26.0,1645175983.9375,P13,D09,1,1,1
1079,-56.0,-17.0,26.0,1645175983.96875,P13,D09,1,1,1
1080,-57.0,-17.0,28.0,1645175984.0,P13,D09,1,1,1
1081,-54.0,-17.0,28.0,1645175984.03125,P13,D09,1,1,1
1082,-56.0,-17.0,25.0,1645175984.0625,P13,D09,1,1,1
1083,-58.0,-17.0,24.0,1645175984.09375,P13,D09,1,1,1
1084,-57.0,-18.0,25.0,1645175984.125,P13,D09,1,1,1
1085,-55.0,-17.0,26.0,1645175984.15625,P13,D09,1,1,1
1086,-56.0,-17.0,27.0,1645175984.1875,P13,D09,1,1,1
1087,-56.0,-18.0,26.0,1645175984.21875,P13,D09,1,1,1
1088,-56.0,-18.0,25.0,1645175984.25,P13,D09,1,1,1
1089,-56.0,-17.0,26.0,1645175984.28125,P13,D09,1,1,1
1090,-56.0,-17.0,26.0,1645175984.3125,P13,D09,1,1,1
1091,-56.0,-17.0,26.0,1645175984.34375,P13,D09,1,1,1
1092,-56.0,-17.0,25.0,1645175984.375,P13,D09,1,1,1
1093,-56.0,-18.0,25.0,1645175984.40625,P13,D09,1,1,1
1094,-57.0,-17.0,26.0,1645175984.4375,P13,D09,1,1,1
1095,-56.0,-17.0,26.0,1645175984.46875,P13,D09,1,1,1
1096,-56.0,-18.0,26.0,1645175984.5,P13,D09,1,1,1
1097,-56.0,-17.0,25.0,1645175984.53125,P13,D09,1,1,1
1098,-57.0,-18.0,26.0,1645175984.5625,P13,D09,1,1,1
1099,-57.0,-17.0,25.0,1645175984.59375,P13,D09,1,1,1
1100,-56.0,-17.0,26.0,1645175984.625,P13,D09,1,1,1
1101,-56.0,-17.0,26.0,1645175984.65625,P13,D09,1,1,1
1102,-56.0,-18.0,26.0,1645175984.6875,P13,D09,1,1,1
1103,-56.0,-17.0,26.0,1645175984.71875,P13,D09,1,1,1
1104,-56.0,-18.0,26.0,1645175984.75,P13,D09,1,1,1
1105,-56.0,-17.0,26.0,1645175984.78125,P13,D09,1,1,1
1106,-56.0,-17.0,26.0,1645175984.8125,P13,D09,1,1,1
1107,-56.0,-17.0,26.0,1645175984.84375,P13,D09,1,1,1
1108,-56.0,-17.0,25.0,1645175984.875,P13,D09,1,1,1
1109,-57.0,-17.0,26.0,1645175984.90625,P13,D09,1,1,1
1110,-56.0,-17.0,26.0,1645175984.9375,P13,D09,1,1,1
1111,-56.0,-17.0,26.0,1645175984.96875,P13,D09,1,1,1
1112,-56.0,-18.0,26.0,1645175985.0,P13,D09,1,1,1
1113,-56.0,-17.0,26.0,1645175985.03125,P13,D09,1,1,1
1114,-57.0,-17.0,26.0,1645175985.0625,P13,D09,1,1,1
1115,-56.0,-18.0,26.0,1645175985.09375,P13,D09,1,1,1
1116,-56.0,-18.0,26.0,1645175985.125,P13,D09,1,1,1
1117,-56.0,-18.0,26.0,1645175985.15625,P13,D09,1,1,1
1118,-56.0,-17.0,26.0,1645175985.1875,P13,D09,1,1,1
1119,-56.0,-17.0,26.0,1645175985.21875,P13,D09,1,1,1
1120,-56.0,-18.0,26.0,1645175985.25,P13,D09,1,1,1
1121,-56.0,-17.0,26.0,1645175985.28125,P13,D09,1,1,1
1122,-56.0,-17.0,26.0,1645175985.3125,P13,D09,1,1,1
1123,-56.0,-17.0,26.0,1645175985.34375,P13,D09,1,1,1
1124,-56.0,-17.0,26.0,1645175985.375,P13,D09,1,1,1
1125,-56.0,-17.0,26.0,1645175985.40625,P13,D09,1,1,1
1126,-56.0,-18.0,26.0,1645175985.4375,P13,D09,1,1,1
1127,-56.0,-18.0,26.0,1645175985.46875,P13,D09,1,1,1
1128,-56.0,-17.0,26.0,1645175985.5,P13,D09,1,1,1
1129,-56.0,-17.0,26.0,1645175985.53125,P13,D09,1,1,1
1130,-56.0,-17.0,26.0,1645175985.5625,P13,D09,1,1,1
1131,-56.0,-17.0,26.0,1645175985.59375,P13,D09,1,1,1
1132,-56.0,-17.0,25.0,1645175985.625,P13,D09,1,1,1
1133,-56.0,-17.0,25.0,1645175985.65625,P13,D09,1,1,1
1134,-57.0,-18.0,25.0,1645175985.6875,P13,D09,1,1,1
1135,-56.0,-17.0,26.0,1645175985.71875,P13,D09,1,1,1
1136,-57.0,-18.0,25.0,1645175985.75,P13,D09,1,1,1
1137,-56.0,-18.0,25.0,1645175985.78125,P13,D09,1,1,1
1138,-57.0,-17.0,25.0,1645175985.8125,P13,D09,1,1,1
1139,-56.0,-17.0,26.0,1645175985.84375,P13,D09,1,1,1
1140,-56.0,-18.0,25.0,1645175985.875,P13,D09,1,1,1
1141,-57.0,-18.0,25.0,1645175985.90625,P13,D09,1,1,1
1142,-57.0,-18.0,25.0,1645175985.9375,P13,D09,1,1,1
1143,-56.0,-17.0,25.0,1645175985.96875,P13,D09,1,1,1
1144,-56.0,-17.0,26.0,1645175986.0,P13,D09,1,1,1
1145,-56.0,-17.0,25.0,1645175986.03125,P13,D09,1,1,1
1146,-57.0,-17.0,25.0,1645175986.0625,P13,D09,1,1,1
1147,-56.0,-17.0,25.0,1645175986.09375,P13,D09,1,1,1
1148,-56.0,-18.0,25.0,1645175986.125,P13,D09,1,1,1
1149,-56.0,-17.0,25.0,1645175986.15625,P13,D09,1,1,1
1150,-57.0,-17.0,25.0,1645175986.1875,P13,D09,1,1,1
1151,-57.0,-18.0,25.0,1645175986.21875,P13,D09,1,1,1
1152,-57.0,-18.0,25.0,1645175986.25,P13,D09,1,1,1
1153,-57.0,-17.0,24.0,1645175986.28125,P13,D09,1,1,1
1154,-56.0,-17.0,25.0,1645175986.3125,P13,D09,1,1,1
1155,-56.0,-17.0,26.0,1645175986.34375,P13,D09,1,1,1
1156,-57.0,-17.0,26.0,1645175986.375,P13,D09,1,1,1
1157,-56.0,-17.0,25.0,1645175986.40625,P13,D09,1,1,1
1158,-57.0,-17.0,25.0,1645175986.4375,P13,D09,1,1,1
1159,-56.0,-18.0,25.0,1645175986.46875,P13,D09,1,1,1
1160,-56.0,-17.0,25.0,1645175986.5,P13,D09,1,1,1
1161,-56.0,-17.0,25.0,1645175986.53125,P13,D09,1,1,1
1162,-56.0,-17.0,25.0,1645175986.5625,P13,D09,1,1,1
1163,-57.0,-17.0,25.0,1645175986.59375,P13,D09,1,1,1
1164,-56.0,-17.0,25.0,1645175986.625,P13,D09,1,1,1
1165,-57.0,-17.0,25.0,1645175986.65625,P13,D09,1,1,1
1166,-56.0,-17.0,25.0,1645175986.6875,P13,D09,1,1,1
1167,-57.0,-18.0,25.0,1645175986.71875,P13,D09,1,1,1
1168,-57.0,-17.0,25.0,1645175986.75,P13,D09,1,1,1
1169,-56.0,-18.0,25.0,1645175986.78125,P13,D09,1,1,1
1170,-56.0,-17.0,25.0,1645175986.8125,P13,D09,1,1,1
1171,-57.0,-17.0,25.0,1645175986.84375,P13,D09,1,1,1
1172,-56.0,-18.0,25.0,1645175986.875,P13,D09,1,1,1
1173,-57.0,-18.0,25.0,1645175986.90625,P13,D09,1,1,1
1174,-57.0,-17.0,25.0,1645175986.9375,P13,D09,1,1,1
1175,-57.0,-17.0,25.0,1645175986.96875,P13,D09,1,1,1
1176,-56.0,-17.0,25.0,1645175987.0,P13,D09,1,1,1
1177,-57.0,-17.0,25.0,1645175987.03125,P13,D09,1,1,1
1178,-56.0,-18.0,25.0,1645175987.0625,P13,D09,1,1,1
1179,-57.0,-18.0,25.0,1645175987.09375,P13,D09,1,1,1
1180,-56.0,-17.0,25.0,1645175987.125,P13,D09,1,1,1
1181,-56.0,-17.0,26.0,1645175987.15625,P13,D09,1,1,1
1182,-57.0,-17.0,26.0,1645175987.1875,P13,D09,1,1,1
1183,-57.0,-18.0,26.0,1645175987.21875,P13,D09,1,1,1
1184,-57.0,-17.0,25.0,1645175987.25,P13,D09,1,1,1
1185,-56.0,-18.0,25.0,1645175987.28125,P13,D09,1,1,1
1186,-57.0,-17.0,25.0,1645175987.3125,P13,D09,1,1,1
1187,-57.0,-18.0,25.0,1645175987.34375,P13,D09,1,1,1
1188,-56.0,-17.0,25.0,1645175987.375,P13,D09,1,1,1
1189,-57.0,-17.0,25.0,1645175987.40625,P13,D09,1,1,1
1190,-56.0,-18.0,24.0,1645175987.4375,P13,D09,1,1,1
1191,-57.0,-17.0,25.0,1645175987.46875,P13,D09,1,1,1
1192,-56.0,-17.0,25.0,1645175987.5,P13,D09,1,1,1
1193,-58.0,-17.0,26.0,1645175987.53125,P13,D09,1,1,1
1194,-57.0,-17.0,25.0,1645175987.5625,P13,D09,1,1,1
1195,-57.0,-17.0,24.0,1645175987.59375,P13,D09,1,1,1
1196,-57.0,-17.0,25.0,1645175987.625,P13,D09,1,1,1
1197,-57.0,-17.0,25.0,1645175987.65625,P13,D09,1,1,1
1198,-57.0,-17.0,24.0,1645175987.6875,P13,D09,1,1,1
1199,-57.0,-18.0,25.0,1645175987.71875,P13,D09,1,1,1
1200,-57.0,-18.0,25.0,1645175987.75,P13,D09,1,1,1
1201,-57.0,-18.0,25.0,1645175987.78125,P13,D09,1,1,1
1202,-57.0,-18.0,25.0,1645175987.8125,P13,D09,1,1,1
1203,-57.0,-18.0,25.0,1645175987.84375,P13,D09,1,1,1
1204,-57.0,-17.0,25.0,1645175987.875,P13,D09,1,1,1
1205,-57.0,-18.0,25.0,1645175987.90625,P13,D09,1,1,1
1206,-57.0,-18.0,25.0,1645175987.9375,P13,D09,1,1,1
1207,-57.0,-17.0,25.0,1645175987.96875,P13,D09,1,1,1
1208,-57.0,-17.0,25.0,1645175988.0,P13,D09,1,1,1
1209,-57.0,-18.0,25.0,1645175988.03125,P13,D09,1,1,1
1210,-57.0,-18.0,24.0,1645175988.0625,P13,D09,1,1,1
1211,-57.0,-18.0,24.0,1645175988.09375,P13,D09,1,1,1
1212,-56.0,-17.0,25.0,1645175988.125,P13,D09,1,1,1
1213,-56.0,-17.0,25.0,1645175988.15625,P13,D09,1,1,1
1214,-57.0,-18.0,24.0,1645175988.1875,P13,D09,1,1,1
1215,-57.0,-18.0,25.0,1645175988.21875,P13,D09,1,1,1
1216,-57.0,-18.0,25.0,1645175988.25,P13,D09,1,1,1
1217,-57.0,-18.0,25.0,1645175988.28125,P13,D09,1,1,1
1218,-56.0,-18.0,25.0,1645175988.3125,P13,D09,1,1,1
1219,-57.0,-18.0,24.0,1645175988.34375,P13,D09,1,1,1
1220,-57.0,-17.0,25.0,1645175988.375,P13,D09,1,1,1
1221,-57.0,-18.0,25.0,1645175988.40625,P13,D09,1,1,1
1222,-56.0,-18.0,25.0,1645175988.4375,P13,D09,1,1,1
1223,-57.0,-18.0,24.0,1645175988.46875,P13,D09,1,1,1
1224,-57.0,-18.0,24.0,1645175988.5,P13,D09,1,1,1
1225,-57.0,-18.0,25.0,1645175988.53125,P13,D09,1,1,1
1226,-56.0,-18.0,25.0,1645175988.5625,P13,D09,1,1,1
1227,-57.0,-18.0,25.0,1645175988.59375,P13,D09,1,1,1
1228,-57.0,-18.0,25.0,1645175988.625,P13,D09,1,1,1
1229,-57.0,-18.0,25.0,1645175988.65625,P13,D09,1,1,1
1230,-56.0,-18.0,25.0,1645175988.6875,P13,D09,1,1,1
1231,-56.0,-18.0,25.0,1645175988.71875,P13,D09,1,1,1
1232,-56.0,-18.0,25.0,1645175988.75,P13,D09,1,1,1
1233,-56.0,-18.0,25.0,1645175988.78125,P13,D09,1,1,1
1234,-57.0,-18.0,25.0,1645175988.8125,P13,D09,1,1,1
1235,-56.0,-18.0,25.0,1645175988.84375,P13,D09,1,1,1
1236,-56.0,-18.0,25.0,1645175988.875,P13,D09,1,1,1
1237,-56.0,-18.0,25.0,1645175988.90625,P13,D09,1,1,1
1238,-57.0,-18.0,24.0,1645175988.9375,P13,D09,1,1,1
1239,-56.0,-18.0,25.0,1645175988.96875,P13,D09,1,1,1
1240,-56.0,-18.0,25.0,1645175989.0,P13,D09,1,1,1
1241,-57.0,-18.0,26.0,1645175989.03125,P13,D09,1,1,1
1242,-56.0,-19.0,26.0,1645175989.0625,P13,D09,1,1,1
1243,-56.0,-18.0,26.0,1645175989.09375,P13,D09,1,1,1
1244,-56.0,-18.0,25.0,1645175989.125,P13,D09,1,1,1
1245,-56.0,-18.0,26.0,1645175989.15625,P13,D09,1,1,1
1246,-56.0,-18.0,26.0,1645175989.1875,P13,D09,1,1,1
1247,-56.0,-19.0,25.0,1645175989.21875,P13,D09,1,1,1
1248,-56.0,-19.0,25.0,1645175989.25,P13,D09,1,1,1
1249,-56.0,-18.0,25.0,1645175989.28125,P13,D09,1,1,1
1250,-56.0,-18.0,25.0,1645175989.3125,P13,D09,1,1,1
1251,-56.0,-18.0,25.0,1645175989.34375,P13,D09,1,1,1
1252,-57.0,-19.0,24.0,1645175989.375,P13,D09,1,1,1
1253,-55.0,-18.0,26.0,1645175989.40625,P13,D09,1,1,1
1254,-56.0,-19.0,25.0,1645175989.4375,P13,D09,1,1,1
1255,-56.0,-19.0,25.0,1645175989.46875,P13,D09,1,1,1
1256,-56.0,-19.0,26.0,1645175989.5,P13,D09,1,1,1
1257,-57.0,-19.0,25.0,1645175989.53125,P13,D09,1,1,1
1258,-56.0,-18.0,25.0,1645175989.5625,P13,D09,1,1,1
1259,-56.0,-19.0,25.0,1645175989.59375,P13,D09,1,1,1
1260,-56.0,-18.0,25.0,1645175989.625,P13,D09,1,1,1
1261,-56.0,-18.0,25.0,1645175989.65625,P13,D09,1,1,1
1262,-56.0,-18.0,26.0,1645175989.6875,P13,D09,1,1,1
1263,-56.0,-19.0,25.0,1645175989.71875,P13,D09,1,1,1
1264,-55.0,-19.0,26.0,1645175989.75,P13,D09,1,1,1
1265,-56.0,-19.0,25.0,1645175989.78125,P13,D09,1,1,1
1266,-56.0,-19.0,25.0,1645175989.8125,P13,D09,1,1,1
1267,-56.0,-19.0,25.0,1645175989.84375,P13,D09,1,1,1
1268,-56.0,-19.0,25.0,1645175989.875,P13,D09,1,1,1
1269,-56.0,-19.0,25.0,1645175989.90625,P13,D09,1,1,1
1270,-56.0,-19.0,25.0,1645175989.9375,P13,D09,1,1,1
1271,-56.0,-19.0,26.0,1645175989.96875,P13,D09,1,1,1
1272,-56.0,-18.0,26.0,1645175990.0,P13,D09,1,1,1
1273,-56.0,-18.0,26.0,1645175990.03125,P13,D09,1,1,1
1274,-57.0,-19.0,26.0,1645175990.0625,P13,D09,1,1,1
1275,-56.0,-18.0,25.0,1645175990.09375,P13,D09,1,1,1
1276,-56.0,-18.0,25.0,1645175990.125,P13,D09,1,1,1
1277,-56.0,-19.0,26.0,1645175990.15625,P13,D09,1,1,1
1278,-56.0,-19.0,26.0,1645175990.1875,P13,D09,1,1,1
1279,-56.0,-18.0,26.0,1645175990.21875,P13,D09,1,1,1
1280,-56.0,-19.0,25.0,1645175990.25,P13,D09,1,1,1
1281,-56.0,-19.0,26.0,1645175990.28125,P13,D09,1,1,1
1282,-56.0,-19.0,25.0,1645175990.3125,P13,D09,1,1,1
1283,-56.0,-19.0,25.0,1645175990.34375,P13,D09,1,1,1
1284,-56.0,-18.0,25.0,1645175990.375,P13,D09,1,1,1
1285,-56.0,-18.0,26.0,1645175990.40625,P13,D09,1,1,1
1286,-56.0,-18.0,26.0,1645175990.4375,P13,D09,1,1,1
1287,-56.0,-18.0,26.0,1645175990.46875,P13,D09,1,1,1
1288,-56.0,-19.0,25.0,1645175990.5,P13,D09,1,1,1
1289,-55.0,-18.0,26.0,1645175990.53125,P13,D09,1,1,1
1290,-56.0,-18.0,26.0,1645175990.5625,P13,D09,1,1,1
1291,-56.0,-18.0,26.0,1645175990.59375,P13,D09,1,1,1
1292,-56.0,-18.0,25.0,1645175990.625,P13,D09,1,1,1
1293,-56.0,-19.0,26.0,1645175990.65625,P13,D09,1,1,1
1294,-56.0,-18.0,26.0,1645175990.6875,P13,D09,1,1,1
1295,-57.0,-19.0,25.0,1645175990.71875,P13,D09,1,1,1
1296,-56.0,-19.0,26.0,1645175990.75,P13,D09,1,1,1
1297,-57.0,-19.0,25.0,1645175990.78125,P13,D09,1,1,1
1298,-56.0,-18.0,26.0,1645175990.8125,P13,D09,1,1,1
1299,-56.0,-18.0,26.0,1645175990.84375,P13,D09,1,1,1
1300,-57.0,-18.0,25.0,1645175990.875,P13,D09,1,1,1
1301,-56.0,-18.0,26.0,1645175990.90625,P13,D09,1,1,1
1302,-56.0,-18.0,25.0,1645175990.9375,P13,D09,1,1,1
1303,-56.0,-18.0,25.0,1645175990.96875,P13,D09,1,1,1
1304,-56.0,-18.0,25.0,1645175991.0,P13,D09,1,1,1
1305,-56.0,-18.0,26.0,1645175991.03125,P13,D09,1,1,1
1306,-56.0,-18.0,26.0,1645175991.0625,P13,D09,1,1,1
1307,-56.0,-18.0,25.0,1645175991.09375,P13,D09,1,1,1
1308,-56.0,-18.0,26.0,1645175991.125,P13,D09,1,1,1
1309,-57.0,-18.0,25.0,1645175991.15625,P13,D09,1,1,1
1310,-56.0,-18.0,26.0,1645175991.1875,P13,D09,1,1,1
1311,-57.0,-18.0,25.0,1645175991.21875,P13,D09,1,1,1
1312,-56.0,-18.0,25.0,1645175991.25,P13,D09,1,1,1
1313,-56.0,-18.0,25.0,1645175991.28125,P13,D09,1,1,1
1314,-56.0,-18.0,26.0,1645175991.3125,P13,D09,1,1,1
1315,-56.0,-18.0,27.0,1645175991.34375,P13,D09,1,1,1
1316,-56.0,-18.0,26.0,1645175991.375,P13,D09,1,1,1
1317,-56.0,-18.0,26.0,1645175991.40625,P13,D09,1,1,1
1318,-56.0,-18.0,26.0,1645175991.4375,P13,D09,1,1,1
1319,-56.0,-18.0,26.0,1645175991.46875,P13,D09,1,1,1
1320,-56.0,-18.0,26.0,1645175991.5,P13,D09,1,1,1
1321,-56.0,-18.0,26.0,1645175991.53125,P13,D09,1,1,1
1322,-56.0,-19.0,25.0,1645175991.5625,P13,D09,1,1,1
1323,-56.0,-19.0,26.0,1645175991.59375,P13,D09,1,1,1
1324,-56.0,-18.0,26.0,1645175991.625,P13,D09,1,1,1
1325,-55.0,-18.0,27.0,1645175991.65625,P13,D09,1,1,1
1326,-56.0,-18.0,27.0,1645175991.6875,P13,D09,1,1,1
1327,-56.0,-18.0,27.0,1645175991.71875,P13,D09,1,1,1
1328,-56.0,-17.0,27.0,1645175991.75,P13,D09,1,1,1
1329,-56.0,-18.0,26.0,1645175991.78125,P13,D09,1,1,1
1330,-56.0,-17.0,26.0,1645175991.8125,P13,D09,1,1,1
1331,-56.0,-17.0,26.0,1645175991.84375,P13,D09,1,1,1
1332,-55.0,-17.0,26.0,1645175991.875,P13,D09,1,1,1
1333,-56.0,-18.0,26.0,1645175991.90625,P13,D09,1,1,1
1334,-56.0,-18.0,26.0,1645175991.9375,P13,D09,1,1,1
1335,-57.0,-18.0,25.0,1645175991.96875,P13,D09,1,1,1
1336,-57.0,-18.0,26.0,1645175992.0,P13,D09,1,1,1
1337,-57.0,-18.0,27.0,1645175992.03125,P13,D09,1,1,1
1338,-56.0,-18.0,27.0,1645175992.0625,P13,D09,1,1,1
1339,-55.0,-17.0,26.0,1645175992.09375,P13,D09,1,1,1
1340,-55.0,-17.0,27.0,1645175992.125,P13,D09,1,1,1
1341,-56.0,-17.0,27.0,1645175992.15625,P13,D09,1,1,1
1342,-56.0,-17.0,26.0,1645175992.1875,P13,D09,1,1,1
1343,-56.0,-17.0,26.0,1645175992.21875,P13,D09,1,1,1
1344,-56.0,-17.0,26.0,1645175992.25,P13,D09,1,1,1
1345,-56.0,-17.0,26.0,1645175992.28125,P13,D09,1,1,1
1346,-56.0,-17.0,26.0,1645175992.3125,P13,D09,1,1,1
1347,-56.0,-17.0,27.0,1645175992.34375,P13,D09,1,1,1
1348,-56.0,-18.0,26.0,1645175992.375,P13,D09,1,1,1
1349,-56.0,-18.0,26.0,1645175992.40625,P13,D09,1,1,1
1350,-56.0,-17.0,26.0,1645175992.4375,P13,D09,1,1,1
1351,-56.0,-17.0,27.0,1645175992.46875,P13,D09,1,1,1
1352,-57.0,-17.0,26.0,1645175992.5,P13,D09,1,1,1
1353,-55.0,-18.0,27.0,1645175992.53125,P13,D09,1,1,1
1354,-57.0,-17.0,27.0,1645175992.5625,P13,D09,1,1,1
1355,-56.0,-17.0,26.0,1645175992.59375,P13,D09,1,1,1
1356,-56.0,-17.0,26.0,1645175992.625,P13,D09,1,1,1
1357,-55.0,-17.0,27.0,1645175992.65625,P13,D09,1,1,1
1358,-56.0,-17.0,27.0,1645175992.6875,P13,D09,1,1,1
1359,-55.0,-18.0,27.0,1645175992.71875,P13,D09,1,1,1
1360,-55.0,-17.0,26.0,1645175992.75,P13,D09,1,1,1
1361,-56.0,-17.0,26.0,1645175992.78125,P13,D09,1,1,1
1362,-57.0,-17.0,26.0,1645175992.8125,P13,D09,1,1,1
1363,-56.0,-18.0,27.0,1645175992.84375,P13,D09,1,1,1
1364,-55.0,-17.0,27.0,1645175992.875,P13,D09,1,1,1
1365,-56.0,-17.0,26.0,1645175992.90625,P13,D09,1,1,1
1366,-56.0,-18.0,25.0,1645175992.9375,P13,D09,1,1,1
1367,-57.0,-18.0,26.0,1645175992.96875,P13,D09,1,1,1
1368,-56.0,-18.0,27.0,1645175993.0,P13,D09,1,1,1
1369,-56.0,-17.0,26.0,1645175993.03125,P13,D09,1,1,1
1370,-56.0,-18.0,26.0,1645175993.0625,P13,D09,1,1,1
1371,-56.0,-18.0,26.0,1645175993.09375,P13,D09,1,1,1
1372,-56.0,-18.0,26.0,1645175993.125,P13,D09,1,1,1
1373,-56.0,-18.0,27.0,1645175993.15625,P13,D09,1,1,1
1374,-56.0,-17.0,26.0,1645175993.1875,P13,D09,1,1,1
1375,-54.0,-16.0,27.0,1645175993.21875,P13,D09,1,1,1
1376,-56.0,-18.0,27.0,1645175993.25,P13,D09,1,1,1
1377,-55.0,-19.0,27.0,1645175993.28125,P13,D09,1,1,1
1378,-56.0,-18.0,25.0,1645175993.3125,P13,D09,1,1,1
1379,-56.0,-18.0,25.0,1645175993.34375,P13,D09,1,1,1
1380,-57.0,-19.0,26.0,1645175993.375,P13,D09,1,1,1
1381,-56.0,-18.0,26.0,1645175993.40625,P13,D09,1,1,1
1382,-56.0,-18.0,26.0,1645175993.4375,P13,D09,1,1,1
1383,-56.0,-18.0,26.0,1645175993.46875,P13,D09,1,1,1
1384,-56.0,-18.0,26.0,1645175993.5,P13,D09,1,1,1
1385,-56.0,-18.0,25.0,1645175993.53125,P13,D09,1,1,1
1386,-56.0,-18.0,26.0,1645175993.5625,P13,D09,1,1,1
1387,-56.0,-18.0,26.0,1645175993.59375,P13,D09,1,1,1
1388,-56.0,-18.0,26.0,1645175993.625,P13,D09,1,1,1
1389,-56.0,-18.0,26.0,1645175993.65625,P13,D09,1,1,1
1390,-56.0,-18.0,26.0,1645175993.6875,P13,D09,1,1,1
1391,-56.0,-18.0,26.0,1645175993.71875,P13,D09,1,1,1
1392,-56.0,-18.0,26.0,1645175993.75,P13,D09,1,1,1
1393,-56.0,-18.0,26.0,1645175993.78125,P13,D09,1,1,1
1394,-56.0,-18.0,25.0,1645175993.8125,P13,D09,1,1,1
1395,-56.0,-18.0,26.0,1645175993.84375,P13,D09,1,1,1
1396,-56.0,-18.0,26.0,1645175993.875,P13,D09,1,1,1
1397,-56.0,-18.0,26.0,1645175993.90625,P13,D09,1,1,1
1398,-56.0,-18.0,26.0,1645175993.9375,P13,D09,1,1,1
1399,-56.0,-18.0,26.0,1645175993.96875,P13,D09,1,1,1
1400,-56.0,-18.0,26.0,1645175994.0,P13,D09,1,1,1
1401,-56.0,-18.0,26.0,1645175994.03125,P13,D09,1,1,1
1402,-56.0,-18.0,26.0,1645175994.0625,P13,D09,1,1,1
1403,-56.0,-18.0,26.0,1645175994.09375,P13,D09,1,1,1
1404,-56.0,-18.0,26.0,1645175994.125,P13,D09,1,1,1
1405,-56.0,-18.0,26.0,1645175994.15625,P13,D09,1,1,1
1406,-56.0,-18.0,26.0,1645175994.1875,P13,D09,1,1,1
1407,-56.0,-18.0,26.0,1645175994.21875,P13,D09,1,1,1
1408,-56.0,-18.0,26.0,1645175994.25,P13,D09,1,1,1
1409,-56.0,-18.0,26.0,1645175994.28125,P13,D09,1,1,1
1410,-56.0,-18.0,26.0,1645175994.3125,P13,D09,1,1,1
1411,-56.0,-18.0,26.0,1645175994.34375,P13,D09,1,1,1
1412,-56.0,-18.0,26.0,1645175994.375,P13,D09,1,1,1
1413,-56.0,-18.0,26.0,1645175994.40625,P13,D09,1,1,1
1414,-56.0,-18.0,26.0,1645175994.4375,P13,D09,1,1,1
1415,-56.0,-18.0,26.0,1645175994.46875,P13,D09,1,1,1
1416,-56.0,-18.0,26.0,1645175994.5,P13,D09,1,1,1
1417,-56.0,-18.0,26.0,1645175994.53125,P13,D09,1,1,1
1418,-56.0,-18.0,26.0,1645175994.5625,P13,D09,1,1,1
1419,-57.0,-18.0,26.0,1645175994.59375,P13,D09,1,1,1
1420,-56.0,-18.0,26.0,1645175994.625,P13,D09,1,1,1
1421,-56.0,-18.0,26.0,1645175994.65625,P13,D09,1,1,1
1422,-56.0,-18.0,26.0,1645175994.6875,P13,D09,1,1,1
1423,-56.0,-18.0,26.0,1645175994.71875,P13,D09,1,1,1
1424,-56.0,-18.0,26.0,1645175994.75,P13,D09,1,1,1
1425,-56.0,-18.0,26.0,1645175994.78125,P13,D09,1,1,1
1426,-56.0,-18.0,26.0,1645175994.8125,P13,D09,1,1,1
1427,-56.0,-18.0,25.0,1645175994.84375,P13,D09,1,1,1
1428,-56.0,-18.0,26.0,1645175994.875,P13,D09,1,1,1
1429,-56.0,-18.0,26.0,1645175994.90625,P13,D09,1,1,1
1430,-56.0,-18.0,26.0,1645175994.9375,P13,D09,1,1,1
1431,-56.0,-18.0,26.0,1645175994.96875,P13,D09,1,1,1
1432,-56.0,-18.0,26.0,1645175995.0,P13,D09,1,1,1
1433,-56.0,-18.0,26.0,1645175995.03125,P13,D09,1,1,1
1434,-56.0,-18.0,26.0,1645175995.0625,P13,D09,1,1,1
1435,-56.0,-18.0,26.0,1645175995.09375,P13,D09,1,1,1
1436,-56.0,-18.0,26.0,1645175995.125,P13,D09,1,1,1
1437,-56.0,-18.0,26.0,1645175995.15625,P13,D09,1,1,1
1438,-56.0,-18.0,26.0,1645175995.1875,P13,D09,1,1,1
1439,-56.0,-18.0,26.0,1645175995.21875,P13,D09,1,1,1
1440,-56.0,-18.0,26.0,1645175995.25,P13,D09,1,1,1
1441,-56.0,-18.0,26.0,1645175995.28125,P13,D09,1,1,1
1442,-56.0,-17.0,26.0,1645175995.3125,P13,D09,1,1,1
1443,-56.0,-18.0,26.0,1645175995.34375,P13,D09,1,1,1
1444,-56.0,-18.0,26.0,1645175995.375,P13,D09,1,1,1
1445,-56.0,-18.0,25.0,1645175995.40625,P13,D09,1,1,1
1446,-56.0,-18.0,26.0,1645175995.4375,P13,D09,1,1,1
1447,-56.0,-18.0,26.0,1645175995.46875,P13,D09,1,1,1
1448,-56.0,-18.0,26.0,1645175995.5,P13,D09,1,1,1
1449,-56.0,-18.0,26.0,1645175995.53125,P13,D09,1,1,1
1450,-56.0,-18.0,26.0,1645175995.5625,P13,D09,1,1,1
1451,-56.0,-18.0,26.0,1645175995.59375,P13,D09,1,1,1
1452,-56.0,-19.0,26.0,1645175995.625,P13,D09,1,1,1
1453,-56.0,-18.0,25.0,1645175995.65625,P13,D09,1,1,1
1454,-56.0,-18.0,26.0,1645175995.6875,P13,D09,1,1,1
1455,-56.0,-18.0,26.0,1645175995.71875,P13,D09,1,1,1
1456,-56.0,-18.0,26.0,1645175995.75,P13,D09,1,1,1
1457,-56.0,-18.0,26.0,1645175995.78125,P13,D09,1,1,1
1458,-56.0,-18.0,26.0,1645175995.8125,P13,D09,1,1,1
1459,-56.0,-18.0,27.0,1645175995.84375,P13,D09,1,1,1
1460,-56.0,-18.0,24.0,1645175995.875,P13,D09,1,1,1
1461,-56.0,-18.0,24.0,1645175995.90625,P13,D09,1,1,1
1462,-57.0,-18.0,25.0,1645175995.9375,P13,D09,1,1,1
1463,-57.0,-18.0,27.0,1645175995.96875,P13,D09,1,1,1
1464,-56.0,-18.0,27.0,1645175996.0,P13,D09,1,1,1
1465,-56.0,-18.0,26.0,1645175996.03125,P13,D09,1,1,1
1466,-56.0,-19.0,26.0,1645175996.0625,P13,D09,1,1,1
1467,-56.0,-18.0,25.0,1645175996.09375,P13,D09,1,1,1
1468,-56.0,-18.0,26.0,1645175996.125,P13,D09,1,1,1
1469,-56.0,-18.0,26.0,1645175996.15625,P13,D09,1,1,1
1470,-56.0,-18.0,26.0,1645175996.1875,P13,D09,1,1,1
1471,-56.0,-17.0,26.0,1645175996.21875,P13,D09,1,1,1
1472,-56.0,-18.0,26.0,1645175996.25,P13,D09,1,1,1
1473,-56.0,-18.0,26.0,1645175996.28125,P13,D09,1,1,1
1474,-56.0,-18.0,26.0,1645175996.3125,P13,D09,1,1,1
1475,-56.0,-17.0,25.0,1645175996.34375,P13,D09,1,1,1
1476,-57.0,-17.0,25.0,1645175996.375,P13,D09,1,1,1
1477,-56.0,-18.0,26.0,1645175996.40625,P13,D09,1,1,1
1478,-56.0,-17.0,27.0,1645175996.4375,P13,D09,1,1,1
1479,-56.0,-17.0,27.0,1645175996.46875,P13,D09,1,1,1
1480,-56.0,-16.0,27.0,1645175996.5,P13,D09,1,1,1
1481,-57.0,-16.0,25.0,1645175996.53125,P13,D09,1,1,1
1482,-58.0,-17.0,24.0,1645175996.5625,P13,D09,1,1,1
1483,-58.0,-17.0,22.0,1645175996.59375,P13,D09,1,1,1
1484,-60.0,-17.0,21.0,1645175996.625,P13,D09,1,1,1
1485,-57.0,-17.0,22.0,1645175996.65625,P13,D09,1,1,1
1486,-61.0,-17.0,21.0,1645175996.6875,P13,D09,1,1,1
1487,-59.0,-19.0,20.0,1645175996.71875,P13,D09,1,1,1
1488,-60.0,-19.0,18.0,1645175996.75,P13,D09,1,1,1
1489,-59.0,-17.0,21.0,1645175996.78125,P13,D09,1,1,1
1490,-59.0,-16.0,22.0,1645175996.8125,P13,D09,1,1,1
1491,-58.0,-14.0,21.0,1645175996.84375,P13,D09,1,1,1
1492,-59.0,-14.0,19.0,1645175996.875,P13,D09,1,1,1
1493,-61.0,-15.0,18.0,1645175996.90625,P13,D09,1,1,1
1494,-60.0,-15.0,18.0,1645175996.9375,P13,D09,1,1,1
1495,-61.0,-13.0,17.0,1645175996.96875,P13,D09,1,1,1
1496,-59.0,-12.0,18.0,1645175997.0,P13,D09,1,1,1
1497,-59.0,-12.0,18.0,1645175997.03125,P13,D09,1,1,1
1498,-59.0,-13.0,18.0,1645175997.0625,P13,D09,1,1,1
1499,-60.0,-15.0,19.0,1645175997.09375,P13,D09,1,1,1
1500,-59.0,-14.0,19.0,1645175997.125,P13,D09,1,1,1
1501,-60.0,-13.0,19.0,1645175997.15625,P13,D09,1,1,1
1502,-59.0,-12.0,20.0,1645175997.1875,P13,D09,1,1,1
1503,-61.0,-11.0,21.0,1645175997.21875,P13,D09,1,1,1
1504,-60.0,-11.0,24.0,1645175997.25,P13,D09,1,1,1
1505,-59.0,-11.0,24.0,1645175997.28125,P13,D09,1,1,1
1506,-61.0,-13.0,28.0,1645175997.3125,P13,D09,1,1,1
1507,-58.0,-15.0,28.0,1645175997.34375,P13,D09,1,1,1
1508,-59.0,-14.0,20.0,1645175997.375,P13,D09,1,1,1
1509,-62.0,-12.0,18.0,1645175997.40625,P13,D09,1,1,1
1510,-59.0,-11.0,22.0,1645175997.4375,P13,D09,1,1,1
1511,-56.0,-11.0,29.0,1645175997.46875,P13,D09,1,1,1
1512,-59.0,-11.0,28.0,1645175997.5,P13,D09,1,1,1
1513,-57.0,-12.0,20.0,1645175997.53125,P13,D09,1,1,1
1514,-59.0,-12.0,18.0,1645175997.5625,P13,D09,1,1,1
1515,-58.0,-14.0,27.0,1645175997.59375,P13,D09,1,1,1
1516,-57.0,-14.0,29.0,1645175997.625,P13,D09,1,1,1
1517,-57.0,-13.0,29.0,1645175997.65625,P13,D09,1,1,1
1518,-56.0,-12.0,28.0,1645175997.6875,P13,D09,1,1,1
1519,-57.0,-11.0,29.0,1645175997.71875,P13,D09,1,1,1
1520,-55.0,-11.0,31.0,1645175997.75,P13,D09,1,1,1
1521,-54.0,-12.0,32.0,1645175997.78125,P13,D09,1,1,1
1522,-55.0,-12.0,31.0,1645175997.8125,P13,D09,1,1,1
1523,-56.0,-12.0,30.0,1645175997.84375,P13,D09,1,1,1
1524,-55.0,-12.0,31.0,1645175997.875,P13,D09,1,1,1
1525,-54.0,-12.0,31.0,1645175997.90625,P13,D09,1,1,1
1526,-55.0,-12.0,32.0,1645175997.9375,P13,D09,1,1,1
1527,-54.0,-12.0,32.0,1645175997.96875,P13,D09,1,1,1
1528,-54.0,-12.0,32.0,1645175998.0,P13,D09,1,1,1
1529,-53.0,-12.0,33.0,1645175998.03125,P13,D09,1,1,1
1530,-54.0,-12.0,33.0,1645175998.0625,P13,D09,1,1,1
1531,-54.0,-13.0,32.0,1645175998.09375,P13,D09,1,1,1
1532,-55.0,-13.0,32.0,1645175998.125,P13,D09,1,1,1
1533,-54.0,-13.0,33.0,1645175998.15625,P13,D09,1,1,1
1534,-53.0,-12.0,33.0,1645175998.1875,P13,D09,1,1,1
1535,-55.0,-12.0,31.0,1645175998.21875,P13,D09,1,1,1
1536,-55.0,-12.0,30.0,1645175998.25,P13,D09,1,1,1
1537,-55.0,-12.0,30.0,1645175998.28125,P13,D09,1,1,1
1538,-55.0,-12.0,30.0,1645175998.3125,P13,D09,1,1,1
1539,-55.0,-13.0,32.0,1645175998.34375,P13,D09,1,1,1
1540,-55.0,-13.0,32.0,1645175998.375,P13,D09,1,1,1
1541,-54.0,-12.0,33.0,1645175998.40625,P13,D09,1,1,1
1542,-54.0,-11.0,34.0,1645175998.4375,P13,D09,1,1,1
1543,-53.0,-11.0,37.0,1645175998.46875,P13,D09,1,1,1
1544,-55.0,-12.0,39.0,1645175998.5,P13,D09,1,1,1
1545,-70.0,-16.0,28.0,1645175998.53125,P13,D09,1,1,1
1546,-67.0,-16.0,21.0,1645175998.5625,P13,D09,1,1,1
1547,-68.0,-26.0,15.0,1645175998.59375,P13,D09,1,1,1
1548,-72.0,-24.0,11.0,1645175998.625,P13,D09,1,1,1
1549,-69.0,-25.0,9.0,1645175998.65625,P13,D09,1,1,1
1550,-51.0,-26.0,8.0,1645175998.6875,P13,D09,1,1,1
1551,-49.0,-26.0,14.0,1645175998.71875,P13,D09,1,1,1
1552,-45.0,-20.0,26.0,1645175998.75,P13,D09,1,1,1
1553,-41.0,-17.0,30.0,1645175998.78125,P13,D09,1,1,1
1554,-32.0,-15.0,36.0,1645175998.8125,P13,D09,1,1,1
1555,-28.0,-10.0,38.0,1645175998.84375,P13,D09,1,1,1
1556,-35.0,-7.0,40.0,1645175998.875,P13,D09,1,1,1
1557,-42.0,-4.0,47.0,1645175998.90625,P13,D09,1,1,1
1558,-42.0,-2.0,46.0,1645175998.9375,P13,D09,1,1,1
1559,-45.0,-8.0,45.0,1645175998.96875,P13,D09,1,1,1
1560,-47.0,-11.0,46.0,1645175999.0,P13,D09,1,1,1
1561,-49.0,-7.0,44.0,1645175999.03125,P13,D09,1,1,1
1562,-47.0,-9.0,42.0,1645175999.0625,P13,D09,1,1,1
1563,-42.0,-9.0,45.0,1645175999.09375,P13,D09,1,1,1
1564,-40.0,-10.0,47.0,1645175999.125,P13,D09,1,1,1
1565,-54.0,-4.0,58.0,1645175999.15625,P13,D09,1,1,1
1566,-44.0,-4.0,55.0,1645175999.1875,P13,D09,1,1,1
1567,-45.0,-6.0,48.0,1645175999.21875,P13,D09,1,1,1
1568,-51.0,-4.0,46.0,1645175999.25,P13,D09,1,1,1
1569,-50.0,-6.0,46.0,1645175999.28125,P13,D09,1,1,1
1570,-44.0,-8.0,51.0,1645175999.3125,P13,D09,1,1,1
1571,-43.0,-8.0,55.0,1645175999.34375,P13,D09,1,1,1
1572,-38.0,-11.0,56.0,1645175999.375,P13,D09,1,1,1
1573,-34.0,-12.0,52.0,1645175999.40625,P13,D09,1,1,1
1574,-25.0,-10.0,44.0,1645175999.4375,P13,D09,1,1,1
1575,-21.0,-9.0,44.0,1645175999.46875,P13,D09,1,1,1
1576,-23.0,-9.0,45.0,1645175999.5,P13,D09,1,1,1
1577,-20.0,-6.0,50.0,1645175999.53125,P13,D09,1,1,1
1578,-18.0,-4.0,59.0,1645175999.5625,P13,D09,1,1,1
1579,-16.0,-4.0,63.0,1645175999.59375,P13,D09,1,1,1
1580,-17.0,-6.0,60.0,1645175999.625,P13,D09,1,1,1
1581,-24.0,-5.0,61.0,1645175999.65625,P13,D09,1,1,1
1582,-24.0,-3.0,66.0,1645175999.6875,P13,D09,1,1,1
1583,-23.0,-6.0,63.0,1645175999.71875,P13,D09,1,1,1
1584,-22.0,-5.0,60.0,1645175999.75,P13,D09,1,1,1
1585,-29.0,-4.0,54.0,1645175999.78125,P13,D09,1,1,1
1586,-27.0,-4.0,56.0,1645175999.8125,P13,D09,1,1,1
1587,-37.0,-5.0,52.0,1645175999.84375,P13,D09,1,1,1
1588,-34.0,-6.0,52.0,1645175999.875,P13,D09,1,1,1
1589,-36.0,-9.0,54.0,1645175999.90625,P13,D09,1,1,1
1590,-34.0,-8.0,55.0,1645175999.9375,P13,D09,1,1,1
1591,-33.0,-7.0,55.0,1645175999.96875,P13,D09,1,1,1
1592,-35.0,-3.0,53.0,1645176000.0,P13,D09,1,1,1
1593,-34.0,-3.0,53.0,1645176000.03125,P13,D09,1,1,1
1594,-36.0,-3.0,52.0,1645176000.0625,P13,D09,1,1,1
1595,-36.0,-4.0,52.0,1645176000.09375,P13,D09,1,1,1
1596,-34.0,-5.0,54.0,1645176000.125,P13,D09,1,1,1
1597,-36.0,-5.0,52.0,1645176000.15625,P13,D09,1,1,1
1598,-37.0,-4.0,51.0,1645176000.1875,P13,D09,1,1,1
1599,-36.0,-4.0,52.0,1645176000.21875,P13,D09,1,1,1
1600,-34.0,-4.0,53.0,1645176000.25,P13,D09,1,1,1
1601,-36.0,-4.0,53.0,1645176000.28125,P13,D09,1,1,1
1602,-35.0,-4.0,53.0,1645176000.3125,P13,D09,1,1,1
1603,-37.0,-4.0,51.0,1645176000.34375,P13,D09,1,1,1
1604,-35.0,-4.0,52.0,1645176000.375,P13,D09,1,1,1
1605,-36.0,-4.0,53.0,1645176000.40625,P13,D09,1,1,1
1606,-35.0,-4.0,52.0,1645176000.4375,P13,D09,1,1,1
1607,-34.0,-4.0,53.0,1645176000.46875,P13,D09,1,1,1
1608,-34.0,-3.0,53.0,1645176000.5,P13,D09,1,1,1
1609,-36.0,-4.0,53.0,1645176000.53125,P13,D09,1,1,1
1610,-35.0,-4.0,53.0,1645176000.5625,P13,D09,1,1,1
1611,-36.0,-3.0,52.0,1645176000.59375,P13,D09,1,1,1
1612,-36.0,-4.0,53.0,1645176000.625,P13,D09,1,1,1
1613,-35.0,-3.0,53.0,1645176000.65625,P13,D09,1,1,1
1614,-35.0,-3.0,53.0,1645176000.6875,P13,D09,1,1,1
1615,-35.0,-4.0,53.0,1645176000.71875,P13,D09,1,1,1
1616,-36.0,-3.0,52.0,1645176000.75,P13,D09,1,1,1
1617,-35.0,-3.0,53.0,1645176000.78125,P13,D09,1,1,1
1618,-37.0,-3.0,51.0,1645176000.8125,P13,D09,1,1,1
1619,-35.0,-2.0,53.0,1645176000.84375,P13,D09,1,1,1
1620,-36.0,-3.0,52.0,1645176000.875,P13,D09,1,1,1
1621,-36.0,-4.0,52.0,1645176000.90625,P13,D09,1,1,1
1622,-37.0,-4.0,51.0,1645176000.9375,P13,D09,1,1,1
1623,-37.0,-3.0,52.0,1645176000.96875,P13,D09,1,1,1
1624,-35.0,-4.0,53.0,1645176001.0,P13,D09,1,1,1
1625,-36.0,-3.0,52.0,1645176001.03125,P13,D09,1,1,1
1626,-37.0,-3.0,51.0,1645176001.0625,P13,D09,1,1,1
1627,-36.0,-3.0,51.0,1645176001.09375,P13,D09,1,1,1
1628,-38.0,-3.0,51.0,1645176001.125,P13,D09,1,1,1
1629,-37.0,-3.0,52.0,1645176001.15625,P13,D09,1,1,1
1630,-37.0,-3.0,51.0,1645176001.1875,P13,D09,1,1,1
1631,-38.0,-3.0,51.0,1645176001.21875,P13,D09,1,1,1
1632,-38.0,-3.0,51.0,1645176001.25,P13,D09,1,1,1
1633,-38.0,-3.0,51.0,1645176001.28125,P13,D09,1,1,1
1634,-38.0,-3.0,51.0,1645176001.3125,P13,D09,1,1,1
1635,-38.0,-3.0,51.0,1645176001.34375,P13,D09,1,1,1
1636,-38.0,-4.0,52.0,1645176001.375,P13,D09,1,1,1
1637,-37.0,-3.0,52.0,1645176001.40625,P13,D09,1,1,1
1638,-37.0,-3.0,51.0,1645176001.4375,P13,D09,1,1,1
1639,-38.0,-4.0,50.0,1645176001.46875,P13,D09,1,1,1
1640,-37.0,-3.0,51.0,1645176001.5,P13,D09,1,1,1
1641,-37.0,-4.0,52.0,1645176001.53125,P13,D09,1,1,1
1642,-38.0,-3.0,51.0,1645176001.5625,P13,D09,1,1,1
1643,-37.0,-4.0,51.0,1645176001.59375,P13,D09,1,1,1
1644,-38.0,-4.0,50.0,1645176001.625,P13,D09,1,1,1
1645,-38.0,-3.0,51.0,1645176001.65625,P13,D09,1,1,1
1646,-38.0,-4.0,51.0,1645176001.6875,P13,D09,1,1,1
1647,-38.0,-4.0,51.0,1645176001.71875,P13,D09,1,1,1
1648,-38.0,-4.0,50.0,1645176001.75,P13,D09,1,1,1
1649,-38.0,-4.0,51.0,1645176001.78125,P13,D09,1,1,1
1650,-37.0,-3.0,51.0,1645176001.8125,P13,D09,1,1,1
1651,-38.0,-4.0,51.0,1645176001.84375,P13,D09,1,1,1
1652,-38.0,-4.0,51.0,1645176001.875,P13,D09,1,1,1
1653,-38.0,-4.0,51.0,1645176001.90625,P13,D09,1,1,1
1654,-39.0,-4.0,50.0,1645176001.9375,P13,D09,1,1,1
1655,-38.0,-3.0,50.0,1645176001.96875,P13,D09,1,1,1
1656,-38.0,-4.0,51.0,1645176002.0,P13,D09,1,1,1
1657,-38.0,-4.0,50.0,1645176002.03125,P13,D09,1,1,1
1658,-38.0,-4.0,51.0,1645176002.0625,P13,D09,1,1,1
1659,-38.0,-4.0,50.0,1645176002.09375,P13,D09,1,1,1
1660,-38.0,-4.0,51.0,1645176002.125,P13,D09,1,1,1
1661,-38.0,-4.0,51.0,1645176002.15625,P13,D09,1,1,1
1662,-38.0,-4.0,51.0,1645176002.1875,P13,D09,1,1,1
1663,-38.0,-4.0,51.0,1645176002.21875,P13,D09,1,1,1
1664,-38.0,-4.0,51.0,1645176002.25,P13,D09,1,1,1
1665,-38.0,-4.0,50.0,1645176002.28125,P13,D09,1,1,1
1666,-38.0,-4.0,51.0,1645176002.3125,P13,D09,1,1,1
1667,-38.0,-4.0,51.0,1645176002.34375,P13,D09,1,1,1
1668,-38.0,-4.0,51.0,1645176002.375,P13,D09,1,1,1
1669,-38.0,-4.0,51.0,1645176002.40625,P13,D09,1,1,1
1670,-38.0,-4.0,51.0,1645176002.4375,P13,D09,1,1,1
1671,-38.0,-4.0,51.0,1645176002.46875,P13,D09,1,1,1
1672,-38.0,-4.0,51.0,1645176002.5,P13,D09,1,1,1
1673,-38.0,-4.0,51.0,1645176002.53125,P13,D09,1,1,1
1674,-37.0,-4.0,51.0,1645176002.5625,P13,D09,1,1,1
1675,-38.0,-3.0,51.0,1645176002.59375,P13,D09,1,1,1
1676,-38.0,-4.0,51.0,1645176002.625,P13,D09,1,1,1
1677,-38.0,-4.0,51.0,1645176002.65625,P13,D09,1,1,1
1678,-37.0,-4.0,51.0,1645176002.6875,P13,D09,1,1,1
1679,-38.0,-3.0,51.0,1645176002.71875,P13,D09,1,1,1
1680,-37.0,-3.0,52.0,1645176002.75,P13,D09,1,1,1
1681,-38.0,-4.0,51.0,1645176002.78125,P13,D09,1,1,1
1682,-38.0,-4.0,51.0,1645176002.8125,P13,D09,1,1,1
1683,-37.0,-4.0,51.0,1645176002.84375,P13,D09,1,1,1
1684,-37.0,-4.0,51.0,1645176002.875,P13,D09,1,1,1
1685,-38.0,-4.0,51.0,1645176002.90625,P13,D09,1,1,1
1686,-37.0,-4.0,51.0,1645176002.9375,P13,D09,1,1,1
1687,-37.0,-4.0,51.0,1645176002.96875,P13,D09,1,1,1
1688,-37.0,-4.0,51.0,1645176003.0,P13,D09,1,1,1
1689,-38.0,-4.0,51.0,1645176003.03125,P13,D09,1,1,1
1690,-37.0,-4.0,51.0,1645176003.0625,P13,D09,1,1,1
1691,-37.0,-4.0,51.0,1645176003.09375,P13,D09,1,1,1
1692,-37.0,-4.0,51.0,1645176003.125,P13,D09,1,1,1
1693,-38.0,-4.0,51.0,1645176003.15625,P13,D09,1,1,1
1694,-37.0,-4.0,51.0,1645176003.1875,P13,D09,1,1,1
1695,-37.0,-4.0,51.0,1645176003.21875,P13,D09,1,1,1
1696,-37.0,-4.0,51.0,1645176003.25,P13,D09,1,1,1
1697,-37.0,-4.0,51.0,1645176003.28125,P13,D09,1,1,1
1698,-37.0,-4.0,51.0,1645176003.3125,P13,D09,1,1,1
1699,-37.0,-4.0,51.0,1645176003.34375,P13,D09,1,1,1
1700,-37.0,-4.0,51.0,1645176003.375,P13,D09,1,1,1
1701,-37.0,-4.0,51.0,1645176003.40625,P13,D09,1,1,1
1702,-38.0,-4.0,51.0,1645176003.4375,P13,D09,1,1,1
1703,-37.0,-4.0,51.0,1645176003.46875,P13,D09,1,1,1
1704,-38.0,-4.0,51.0,1645176003.5,P13,D09,1,1,1
1705,-37.0,-4.0,51.0,1645176003.53125,P13,D09,1,1,1
1706,-38.0,-4.0,51.0,1645176003.5625,P13,D09,1,1,1
1707,-37.0,-4.0,51.0,1645176003.59375,P13,D09,1,1,1
1708,-38.0,-4.0,51.0,1645176003.625,P13,D09,1,1,1
1709,-37.0,-4.0,51.0,1645176003.65625,P13,D09,1,1,1
1710,-37.0,-4.0,51.0,1645176003.6875,P13,D09,1,1,1
1711,-37.0,-4.0,52.0,1645176003.71875,P13,D09,1,1,1
1712,-38.0,-4.0,51.0,1645176003.75,P13,D09,1,1,1
1713,-37.0,-3.0,52.0,1645176003.78125,P13,D09,1,1,1
1714,-38.0,-3.0,50.0,1645176003.8125,P13,D09,1,1,1
1715,-37.0,-3.0,51.0,1645176003.84375,P13,D09,1,1,1
1716,-37.0,-5.0,52.0,1645176003.875,P13,D09,1,1,1
1717,-38.0,-5.0,51.0,1645176003.90625,P13,D09,1,1,1
1718,-38.0,-4.0,51.0,1645176003.9375,P13,D09,1,1,1
1719,-37.0,-4.0,51.0,1645176003.96875,P13,D09,1,1,1
1720,-37.0,-4.0,52.0,1645176004.0,P13,D09,1,1,1
1721,-38.0,-5.0,51.0,1645176004.03125,P13,D09,1,1,1
1722,-37.0,-4.0,51.0,1645176004.0625,P13,D09,1,1,1
1723,-38.0,-4.0,51.0,1645176004.09375,P13,D09,1,1,1
1724,-38.0,-5.0,51.0,1645176004.125,P13,D09,1,1,1
1725,-38.0,-4.0,51.0,1645176004.15625,P13,D09,1,1,1
1726,-38.0,-4.0,51.0,1645176004.1875,P13,D09,1,1,1
1727,-38.0,-4.0,51.0,1645176004.21875,P13,D09,1,1,1
1728,-37.0,-4.0,51.0,1645176004.25,P13,D09,1,1,1
1729,-38.0,-4.0,51.0,1645176004.28125,P13,D09,1,1,1
1730,-37.0,-4.0,51.0,1645176004.3125,P13,D09,1,1,1
1731,-39.0,-5.0,50.0,1645176004.34375,P13,D09,1,1,1
1732,-38.0,-5.0,51.0,1645176004.375,P13,D09,1,1,1
1733,-38.0,-4.0,51.0,1645176004.40625,P13,D09,1,1,1
1734,-38.0,-4.0,51.0,1645176004.4375,P13,D09,1,1,1
1735,-38.0,-4.0,51.0,1645176004.46875,P13,D09,1,1,1
1736,-38.0,-4.0,51.0,1645176004.5,P13,D09,1,1,1
1737,-38.0,-4.0,51.0,1645176004.53125,P13,D09,1,1,1
1738,-38.0,-4.0,50.0,1645176004.5625,P13,D09,1,1,1
1739,-38.0,-4.0,51.0,1645176004.59375,P13,D09,1,1,1
1740,-37.0,-4.0,51.0,1645176004.625,P13,D09,1,1,1
1741,-38.0,-4.0,51.0,1645176004.65625,P13,D09,1,1,1
1742,-38.0,-4.0,51.0,1645176004.6875,P13,D09,1,1,1
1743,-38.0,-4.0,50.0,1645176004.71875,P13,D09,1,1,1
1744,-38.0,-4.0,51.0,1645176004.75,P13,D09,1,1,1
1745,-38.0,-4.0,51.0,1645176004.78125,P13,D09,1,1,1
1746,-38.0,-4.0,50.0,1645176004.8125,P13,D09,1,1,1
1747,-39.0,-4.0,50.0,1645176004.84375,P13,D09,1,1,1
1748,-38.0,-4.0,51.0,1645176004.875,P13,D09,1,1,1
1749,-38.0,-4.0,51.0,1645176004.90625,P13,D09,1,1,1
1750,-38.0,-4.0,50.0,1645176004.9375,P13,D09,1,1,1
1751,-38.0,-4.0,50.0,1645176004.96875,P13,D09,1,1,1
1752,-38.0,-4.0,50.0,1645176005.0,P13,D09,1,1,1
1753,-38.0,-4.0,51.0,1645176005.03125,P13,D09,1,1,1
1754,-39.0,-4.0,50.0,1645176005.0625,P13,D09,1,1,1
1755,-38.0,-4.0,51.0,1645176005.09375,P13,D09,1,1,1
1756,-39.0,-4.0,50.0,1645176005.125,P13,D09,1,1,1
1757,-38.0,-4.0,50.0,1645176005.15625,P13,D09,1,1,1
1758,-39.0,-4.0,50.0,1645176005.1875,P13,D09,1,1,1
1759,-39.0,-4.0,50.0,1645176005.21875,P13,D09,1,1,1
1760,-38.0,-4.0,50.0,1645176005.25,P13,D09,1,1,1
1761,-39.0,-4.0,50.0,1645176005.28125,P13,D09,1,1,1
1762,-38.0,-4.0,51.0,1645176005.3125,P13,D09,1,1,1
1763,-39.0,-4.0,50.0,1645176005.34375,P13,D09,1,1,1
1764,-38.0,-4.0,50.0,1645176005.375,P13,D09,1,1,1
1765,-38.0,-4.0,50.0,1645176005.40625,P13,D09,1,1,1
1766,-38.0,-4.0,51.0,1645176005.4375,P13,D09,1,1,1
1767,-38.0,-4.0,50.0,1645176005.46875,P13,D09,1,1,1
1768,-39.0,-4.0,50.0,1645176005.5,P13,D09,1,1,1
1769,-38.0,-4.0,50.0,1645176005.53125,P13,D09,1,1,1
1770,-39.0,-4.0,50.0,1645176005.5625,P13,D09,1,1,1
1771,-39.0,-4.0,50.0,1645176005.59375,P13,D09,1,1,1
1772,-38.0,-4.0,50.0,1645176005.625,P13,D09,1,1,1
1773,-38.0,-4.0,50.0,1645176005.65625,P13,D09,1,1,1
1774,-39.0,-4.0,50.0,1645176005.6875,P13,D09,1,1,1
1775,-38.0,-4.0,50.0,1645176005.71875,P13,D09,1,1,1
1776,-39.0,-4.0,50.0,1645176005.75,P13,D09,1,1,1
1777,-38.0,-4.0,50.0,1645176005.78125,P13,D09,1,1,1
1778,-38.0,-4.0,50.0,1645176005.8125,P13,D09,1,1,1
1779,-38.0,-4.0,50.0,1645176005.84375,P13,D09,1,1,1
1780,-39.0,-5.0,50.0,1645176005.875,P13,D09,1,1,1
1781,-39.0,-4.0,50.0,1645176005.90625,P13,D09,1,1,1
1782,-38.0,-5.0,50.0,1645176005.9375,P13,D09,1,1,1
1783,-38.0,-4.0,50.0,1645176005.96875,P13,D09,1,1,1
1784,-39.0,-4.0,50.0,1645176006.0,P13,D09,1,1,1
1785,-39.0,-4.0,50.0,1645176006.03125,P13,D09,1,1,1
1786,-39.0,-4.0,50.0,1645176006.0625,P13,D09,1,1,1
1787,-39.0,-5.0,50.0,1645176006.09375,P13,D09,1,1,1
1788,-38.0,-4.0,50.0,1645176006.125,P13,D09,1,1,1
1789,-38.0,-4.0,50.0,1645176006.15625,P13,D09,1,1,1
1790,-39.0,-4.0,50.0,1645176006.1875,P13,D09,1,1,1
1791,-38.0,-4.0,50.0,1645176006.21875,P13,D09,1,1,1
1792,-39.0,-4.0,50.0,1645176006.25,P13,D09,1,1,1
1793,-39.0,-4.0,50.0,1645176006.28125,P13,D09,1,1,1
1794,-38.0,-4.0,50.0,1645176006.3125,P13,D09,1,1,1
1795,-38.0,-4.0,50.0,1645176006.34375,P13,D09,1,1,1
1796,-39.0,-4.0,50.0,1645176006.375,P13,D09,1,1,1
1797,-39.0,-4.0,50.0,1645176006.40625,P13,D09,1,1,1
1798,-39.0,-4.0,50.0,1645176006.4375,P13,D09,1,1,1
1799,-39.0,-5.0,50.0,1645176006.46875,P13,D09,1,1,1
1800,-38.0,-4.0,51.0,1645176006.5,P13,D09,1,1,1
1801,-38.0,-4.0,50.0,1645176006.53125,P13,D09,1,1,1
1802,-39.0,-4.0,50.0,1645176006.5625,P13,D09,1,1,1
1803,-39.0,-4.0,50.0,1645176006.59375,P13,D09,1,1,1
1804,-39.0,-4.0,50.0,1645176006.625,P13,D09,1,1,1
1805,-39.0,-4.0,50.0,1645176006.65625,P13,D09,1,1,1
1806,-39.0,-4.0,51.0,1645176006.6875,P13,D09,1,1,1
1807,-39.0,-4.0,50.0,1645176006.71875,P13,D09,1,1,1
1808,-39.0,-4.0,50.0,1645176006.75,P13,D09,1,1,1
1809,-38.0,-4.0,51.0,1645176006.78125,P13,D09,1,1,1
1810,-38.0,-4.0,51.0,1645176006.8125,P13,D09,1,1,1
1811,-39.0,-4.0,50.0,1645176006.84375,P13,D09,1,1,1
1812,-38.0,-4.0,51.0,1645176006.875,P13,D09,1,1,1
1813,-38.0,-4.0,51.0,1645176006.90625,P13,D09,1,1,1
1814,-39.0,-4.0,50.0,1645176006.9375,P13,D09,1,1,1
1815,-39.0,-4.0,50.0,1645176006.96875,P13,D09,1,1,1
1816,-38.0,-4.0,50.0,1645176007.0,P13,D09,1,1,1
1817,-38.0,-4.0,51.0,1645176007.03125,P13,D09,1,1,1
1818,-39.0,-4.0,50.0,1645176007.0625,P13,D09,1,1,1
1819,-38.0,-4.0,50.0,1645176007.09375,P13,D09,1,1,1
1820,-38.0,-4.0,51.0,1645176007.125,P13,D09,1,1,1
1821,-38.0,-4.0,50.0,1645176007.15625,P13,D09,1,1,1
1822,-39.0,-4.0,50.0,1645176007.1875,P13,D09,1,1,1
1823,-38.0,-4.0,51.0,1645176007.21875,P13,D09,1,1,1
1824,-38.0,-4.0,51.0,1645176007.25,P13,D09,1,1,1
1825,-39.0,-5.0,50.0,1645176007.28125,P13,D09,1,1,1
1826,-39.0,-4.0,50.0,1645176007.3125,P13,D09,1,1,1
1827,-38.0,-4.0,51.0,1645176007.34375,P13,D09,1,1,1
1828,-38.0,-4.0,50.0,1645176007.375,P13,D09,1,1,1
1829,-39.0,-4.0,50.0,1645176007.40625,P13,D09,1,1,1
1830,-38.0,-4.0,51.0,1645176007.4375,P13,D09,1,1,1
1831,-38.0,-4.0,50.0,1645176007.46875,P13,D09,1,1,1
1832,-39.0,-4.0,50.0,1645176007.5,P13,D09,1,1,1
1833,-38.0,-4.0,51.0,1645176007.53125,P13,D09,1,1,1
1834,-38.0,-4.0,50.0,1645176007.5625,P13,D09,1,1,1
1835,-38.0,-4.0,51.0,1645176007.59375,P13,D09,1,1,1
1836,-38.0,-4.0,51.0,1645176007.625,P13,D09,1,1,1
1837,-38.0,-4.0,50.0,1645176007.65625,P13,D09,1,1,1
1838,-39.0,-4.0,50.0,1645176007.6875,P13,D09,1,1,1
1839,-38.0,-4.0,51.0,1645176007.71875,P13,D09,1,1,1
1840,-38.0,-4.0,50.0,1645176007.75,P13,D09,1,1,1
1841,-38.0,-4.0,50.0,1645176007.78125,P13,D09,1,1,1
1842,-38.0,-4.0,50.0,1645176007.8125,P13,D09,1,1,1
1843,-38.0,-4.0,50.0,1645176007.84375,P13,D09,1,1,1
1844,-38.0,-4.0,51.0,1645176007.875,P13,D09,1,1,1
1845,-38.0,-4.0,51.0,1645176007.90625,P13,D09,1,1,1
1846,-39.0,-4.0,50.0,1645176007.9375,P13,D09,1,1,1
1847,-38.0,-4.0,51.0,1645176007.96875,P13,D09,1,1,1
1848,-38.0,-4.0,51.0,1645176008.0,P13,D09,1,1,1
1849,-38.0,-4.0,50.0,1645176008.03125,P13,D09,1,1,1
1850,-38.0,-4.0,50.0,1645176008.0625,P13,D09,1,1,1
1851,-39.0,-4.0,50.0,1645176008.09375,P13,D09,1,1,1
1852,-38.0,-4.0,51.0,1645176008.125,P13,D09,1,1,1
1853,-38.0,-4.0,50.0,1645176008.15625,P13,D09,1,1,1
1854,-39.0,-4.0,50.0,1645176008.1875,P13,D09,1,1,1
1855,-39.0,-4.0,50.0,1645176008.21875,P13,D09,1,1,1
1856,-39.0,-4.0,50.0,1645176008.25,P13,D09,1,1,1
1857,-38.0,-4.0,51.0,1645176008.28125,P13,D09,1,1,1
1858,-38.0,-4.0,51.0,1645176008.3125,P13,D09,1,1,1
1859,-38.0,-5.0,51.0,1645176008.34375,P13,D09,1,1,1
1860,-38.0,-5.0,50.0,1645176008.375,P13,D09,1,1,1
1861,-38.0,-5.0,51.0,1645176008.40625,P13,D09,1,1,1
1862,-38.0,-5.0,51.0,1645176008.4375,P13,D09,1,1,1
1863,-38.0,-5.0,51.0,1645176008.46875,P13,D09,1,1,1
1864,-39.0,-5.0,50.0,1645176008.5,P13,D09,1,1,1
1865,-38.0,-4.0,51.0,1645176008.53125,P13,D09,1,1,1
1866,-38.0,-5.0,50.0,1645176008.5625,P13,D09,1,1,1
1867,-38.0,-5.0,50.0,1645176008.59375,P13,D09,1,1,1
1868,-38.0,-5.0,50.0,1645176008.625,P13,D09,1,1,1
1869,-38.0,-4.0,50.0,1645176008.65625,P13,D09,1,1,1
1870,-38.0,-4.0,51.0,1645176008.6875,P13,D09,1,1,1
1871,-38.0,-4.0,51.0,1645176008.71875,P13,D09,1,1,1
1872,-38.0,-5.0,50.0,1645176008.75,P13,D09,1,1,1
1873,-38.0,-4.0,50.0,1645176008.78125,P13,D09,1,1,1
1874,-38.0,-4.0,51.0,1645176008.8125,P13,D09,1,1,1
1875,-38.0,-4.0,50.0,1645176008.84375,P13,D09,1,1,1
1876,-38.0,-5.0,50.0,1645176008.875,P13,D09,1,1,1
1877,-39.0,-4.0,50.0,1645176008.90625,P13,D09,1,1,1
1878,-38.0,-4.0,51.0,1645176008.9375,P13,D09,1,1,1
1879,-38.0,-4.0,51.0,1645176008.96875,P13,D09,1,1,1
1880,-39.0,-5.0,50.0,1645176009.0,P13,D09,1,1,1
1881,-38.0,-4.0,50.0,1645176009.03125,P13,D09,1,1,1
1882,-38.0,-5.0,50.0,1645176009.0625,P13,D09,1,1,1
1883,-38.0,-5.0,50.0,1645176009.09375,P13,D09,1,1,1
1884,-38.0,-4.0,50.0,1645176009.125,P13,D09,1,1,1
1885,-39.0,-5.0,50.0,1645176009.15625,P13,D09,1,1,1
1886,-38.0,-5.0,51.0,1645176009.1875,P13,D09,1,1,1
1887,-38.0,-5.0,51.0,1645176009.21875,P13,D09,1,1,1
1888,-38.0,-5.0,50.0,1645176009.25,P13,D09,1,1,1
1889,-38.0,-5.0,50.0,1645176009.28125,P13,D09,1,1,1
1890,-38.0,-4.0,51.0,1645176009.3125,P13,D09,1,1,1
1891,-38.0,-4.0,51.0,1645176009.34375,P13,D09,1,1,1
1892,-38.0,-5.0,50.0,1645176009.375,P13,D09,1,1,1
1893,-38.0,-5.0,51.0,1645176009.40625,P13,D09,1,1,1
1894,-38.0,-5.0,50.0,1645176009.4375,P13,D09,1,1,1
1895,-38.0,-4.0,50.0,1645176009.46875,P13,D09,1,1,1
1896,-38.0,-4.0,51.0,1645176009.5,P13,D09,1,1,1
1897,-38.0,-5.0,51.0,1645176009.53125,P13,D09,1,1,1
1898,-38.0,-4.0,50.0,1645176009.5625,P13,D09,1,1,1
1899,-38.0,-5.0,50.0,1645176009.59375,P13,D09,1,1,1
1900,-39.0,-5.0,50.0,1645176009.625,P13,D09,1,1,1
1901,-37.0,-5.0,51.0,1645176009.65625,P13,D09,1,1,1
1902,-38.0,-5.0,51.0,1645176009.6875,P13,D09,1,1,1
1903,-38.0,-4.0,51.0,1645176009.71875,P13,D09,1,1,1
1904,-38.0,-5.0,51.0,1645176009.75,P13,D09,1,1,1
1905,-38.0,-4.0,51.0,1645176009.78125,P13,D09,1,1,1
1906,-38.0,-5.0,51.0,1645176009.8125,P13,D09,1,1,1
1907,-38.0,-4.0,50.0,1645176009.84375,P13,D09,1,1,1
1908,-38.0,-5.0,51.0,1645176009.875,P13,D09,1,1,1
1909,-38.0,-5.0,51.0,1645176009.90625,P13,D09,1,1,1
1910,-38.0,-5.0,50.0,1645176009.9375,P13,D09,1,1,1
1911,-38.0,-4.0,51.0,1645176009.96875,P13,D09,1,1,1
1912,-38.0,-4.0,51.0,1645176010.0,P13,D09,1,1,1
1913,-38.0,-5.0,51.0,1645176010.03125,P13,D09,1,1,1
1914,-38.0,-5.0,51.0,1645176010.0625,P13,D09,1,1,1
1915,-38.0,-4.0,50.0,1645176010.09375,P13,D09,1,1,1
1916,-38.0,-5.0,51.0,1645176010.125,P13,D09,1,1,1
1917,-38.0,-5.0,51.0,1645176010.15625,P13,D09,1,1,1
1918,-38.0,-5.0,50.0,1645176010.1875,P13,D09,1,1,1
1919,-38.0,-4.0,51.0,1645176010.21875,P13,D09,1,1,1
1920,-38.0,-4.0,51.0,1645176010.25,P13,D09,1,1,1
1921,-38.0,-5.0,51.0,1645176010.28125,P13,D09,1,1,1
1922,-38.0,-5.0,51.0,1645176010.3125,P13,D09,1,1,1
1923,-38.0,-4.0,50.0,1645176010.34375,P13,D09,1,1,1
1924,-38.0,-4.0,50.0,1645176010.375,P13,D09,1,1,1
1925,-39.0,-5.0,50.0,1645176010.40625,P13,D09,1,1,1
1926,-38.0,-5.0,51.0,1645176010.4375,P13,D09,1,1,1
1927,-38.0,-4.0,51.0,1645176010.46875,P13,D09,1,1,1
1928,-38.0,-4.0,51.0,1645176010.5,P13,D09,1,1,1
1929,-38.0,-4.0,51.0,1645176010.53125,P13,D09,1,1,1
1930,-38.0,-4.0,51.0,1645176010.5625,P13,D09,1,1,1
1931,-38.0,-4.0,51.0,1645176010.59375,P13,D09,1,1,1
1932,-38.0,-4.0,51.0,1645176010.625,P13,D09,1,1,1
1933,-38.0,-4.0,51.0,1645176010.65625,P13,D09,1,1,1
1934,-38.0,-4.0,51.0,1645176010.6875,P13,D09,1,1,1
1935,-38.0,-4.0,51.0,1645176010.71875,P13,D09,1,1,1
1936,-38.0,-4.0,51.0,1645176010.75,P13,D09,1,1,1
1937,-38.0,-4.0,51.0,1645176010.78125,P13,D09,1,1,1
1938,-38.0,-4.0,50.0,1645176010.8125,P13,D09,1,1,1
1939,-38.0,-5.0,51.0,1645176010.84375,P13,D09,1,1,1
1940,-38.0,-4.0,51.0,1645176010.875,P13,D09,1,1,1
1941,-38.0,-4.0,50.0,1645176010.90625,P13,D09,1,1,1
1942,-38.0,-4.0,51.0,1645176010.9375,P13,D09,1,1,1
1943,-38.0,-4.0,50.0,1645176010.96875,P13,D09,1,1,1
1944,-38.0,-4.0,51.0,1645176011.0,P13,D09,1,1,1
1945,-38.0,-4.0,51.0,1645176011.03125,P13,D09,1,1,1
1946,-38.0,-4.0,51.0,1645176011.0625,P13,D09,1,1,1
1947,-37.0,-4.0,51.0,1645176011.09375,P13,D09,1,1,1
1948,-38.0,-4.0,51.0,1645176011.125,P13,D09,1,1,1
1949,-38.0,-4.0,51.0,1645176011.15625,P13,D09,1,1,1
1950,-38.0,-4.0,51.0,1645176011.1875,P13,D09,1,1,1
1951,-38.0,-4.0,51.0,1645176011.21875,P13,D09,1,1,1
1952,-38.0,-4.0,51.0,1645176011.25,P13,D09,1,1,1
1953,-38.0,-4.0,51.0,1645176011.28125,P13,D09,1,1,1
1954,-38.0,-4.0,51.0,1645176011.3125,P13,D09,1,1,1
1955,-38.0,-4.0,51.0,1645176011.34375,P13,D09,1,1,1
1956,-37.0,-4.0,51.0,1645176011.375,P13,D09,1,1,1
1957,-38.0,-4.0,51.0,1645176011.40625,P13,D09,1,1,1
1958,-38.0,-5.0,50.0,1645176011.4375,P13,D09,1,1,1
1959,-38.0,-5.0,51.0,1645176011.46875,P13,D09,1,1,1
1960,-38.0,-4.0,51.0,1645176011.5,P13,D09,1,1,1
1961,-38.0,-4.0,51.0,1645176011.53125,P13,D09,1,1,1
1962,-38.0,-5.0,50.0,1645176011.5625,P13,D09,1,1,1
1963,-38.0,-5.0,50.0,1645176011.59375,P13,D09,1,1,1
1964,-38.0,-4.0,51.0,1645176011.625,P13,D09,1,1,1
1965,-39.0,-4.0,51.0,1645176011.65625,P13,D09,1,1,1
1966,-38.0,-4.0,50.0,1645176011.6875,P13,D09,1,1,1
1967,-38.0,-5.0,51.0,1645176011.71875,P13,D09,1,1,1
1968,-38.0,-4.0,51.0,1645176011.75,P13,D09,1,1,1
1969,-38.0,-4.0,50.0,1645176011.78125,P13,D09,1,1,1
1970,-38.0,-5.0,51.0,1645176011.8125,P13,D09,1,1,1
1971,-38.0,-4.0,51.0,1645176011.84375,P13,D09,1,1,1
1972,-38.0,-4.0,51.0,1645176011.875,P13,D09,1,1,1
1973,-38.0,-5.0,51.0,1645176011.90625,P13,D09,1,1,1
1974,-38.0,-4.0,50.0,1645176011.9375,P13,D09,1,1,1
1975,-38.0,-4.0,51.0,1645176011.96875,P13,D09,1,1,1
1976,-38.0,-5.0,50.0,1645176012.0,P13,D09,1,1,1
1977,-39.0,-5.0,50.0,1645176012.03125,P13,D09,1,1,1
1978,-38.0,-4.0,51.0,1645176012.0625,P13,D09,1,1,1
1979,-38.0,-5.0,51.0,1645176012.09375,P13,D09,1,1,1
1980,-39.0,-5.0,50.0,1645176012.125,P13,D09,1,1,1
1981,-38.0,-5.0,50.0,1645176012.15625,P13,D09,1,1,1
1982,-38.0,-4.0,50.0,1645176012.1875,P13,D09,1,1,1
1983,-38.0,-4.0,50.0,1645176012.21875,P13,D09,1,1,1
1984,-38.0,-5.0,50.0,1645176012.25,P13,D09,1,1,1
1985,-38.0,-5.0,50.0,1645176012.28125,P13,D09,1,1,1
1986,-38.0,-5.0,51.0,1645176012.3125,P13,D09,1,1,1
1987,-39.0,-5.0,50.0,1645176012.34375,P13,D09,1,1,1
1988,-39.0,-4.0,50.0,1645176012.375,P13,D09,1,1,1
1989,-38.0,-5.0,51.0,1645176012.40625,P13,D09,1,1,1
1990,-38.0,-4.0,50.0,1645176012.4375,P13,D09,1,1,1
1991,-38.0,-4.0,50.0,1645176012.46875,P13,D09,1,1,1
1992,-38.0,-4.0,51.0,1645176012.5,P13,D09,1,1,1
1993,-38.0,-4.0,50.0,1645176012.53125,P13,D09,1,1,1
1994,-38.0,-5.0,50.0,1645176012.5625,P13,D09,1,1,1
1995,-38.0,-4.0,51.0,1645176012.59375,P13,D09,1,1,1
1996,-38.0,-4.0,50.0,1645176012.625,P13,D09,1,1,1
1997,-38.0,-4.0,50.0,1645176012.65625,P13,D09,1,1,1
1998,-38.0,-5.0,51.0,1645176012.6875,P13,D09,1,1,1
1999,-39.0,-5.0,50.0,1645176012.71875,P13,D09,1,1,1
2000,-38.0,-4.0,50.0,1645176012.75,P13,D09,1,1,1
2001,-39.0,-4.0,50.0,1645176012.78125,P13,D09,1,1,1
2002,-38.0,-4.0,50.0,1645176012.8125,P13,D09,1,1,1
2003,-38.0,-4.0,50.0,1645176012.84375,P13,D09,1,1,1
2004,-38.0,-5.0,50.0,1645176012.875,P13,D09,1,1,1
2005,-38.0,-5.0,50.0,1645176012.90625,P13,D09,1,1,1
2006,-38.0,-5.0,50.0,1645176012.9375,P13,D09,1,1,1
2007,-38.0,-5.0,50.0,1645176012.96875,P13,D09,1,1,1
2008,-38.0,-4.0,50.0,1645176013.0,P13,D09,1,1,1
2009,-39.0,-5.0,50.0,1645176013.03125,P13,D09,1,1,1
2010,-38.0,-5.0,50.0,1645176013.0625,P13,D09,1,1,1
2011,-38.0,-5.0,51.0,1645176013.09375,P13,D09,1,1,1
2012,-38.0,-5.0,50.0,1645176013.125,P13,D09,1,1,1
2013,-38.0,-5.0,51.0,1645176013.15625,P13,D09,1,1,1
2014,-38.0,-5.0,50.0,1645176013.1875,P13,D09,1,1,1
2015,-38.0,-5.0,51.0,1645176013.21875,P13,D09,1,1,1
2016,-38.0,-5.0,50.0,1645176013.25,P13,D09,1,1,1
2017,-38.0,-4.0,51.0,1645176013.28125,P13,D09,1,1,1
2018,-38.0,-5.0,51.0,1645176013.3125,P13,D09,1,1,1
2019,-38.0,-5.0,50.0,1645176013.34375,P13,D09,1,1,1
2020,-38.0,-4.0,51.0,1645176013.375,P13,D09,1,1,1
2021,-38.0,-4.0,51.0,1645176013.40625,P13,D09,1,1,1
2022,-38.0,-5.0,51.0,1645176013.4375,P13,D09,1,1,1
2023,-38.0,-5.0,50.0,1645176013.46875,P13,D09,1,1,1
2024,-38.0,-4.0,51.0,1645176013.5,P13,D09,1,1,1
2025,-38.0,-4.0,51.0,1645176013.53125,P13,D09,1,1,1
2026,-38.0,-5.0,50.0,1645176013.5625,P13,D09,1,1,1
2027,-38.0,-4.0,50.0,1645176013.59375,P13,D09,1,1,1
2028,-38.0,-4.0,50.0,1645176013.625,P13,D09,1,1,1
2029,-38.0,-4.0,51.0,1645176013.65625,P13,D09,1,1,1
2030,-38.0,-4.0,51.0,1645176013.6875,P13,D09,1,1,1
2031,-38.0,-5.0,51.0,1645176013.71875,P13,D09,1,1,1
2032,-38.0,-4.0,51.0,1645176013.75,P13,D09,1,1,1
2033,-38.0,-4.0,50.0,1645176013.78125,P13,D09,1,1,1
2034,-38.0,-4.0,51.0,1645176013.8125,P13,D09,1,1,1
2035,-38.0,-4.0,51.0,1645176013.84375,P13,D09,1,1,1
2036,-38.0,-4.0,51.0,1645176013.875,P13,D09,1,1,1
2037,-38.0,-4.0,50.0,1645176013.90625,P13,D09,1,1,1
2038,-38.0,-5.0,51.0,1645176013.9375,P13,D09,1,1,1
2039,-38.0,-4.0,51.0,1645176013.96875,P13,D09,1,1,1
2040,-38.0,-4.0,51.0,1645176014.0,P13,D09,1,1,1
2041,-39.0,-4.0,50.0,1645176014.03125,P13,D09,1,1,1
2042,-38.0,-4.0,50.0,1645176014.0625,P13,D09,1,1,1
2043,-38.0,-4.0,50.0,1645176014.09375,P13,D09,1,1,1
2044,-38.0,-4.0,50.0,1645176014.125,P13,D09,1,1,1
2045,-38.0,-4.0,50.0,1645176014.15625,P13,D09,1,1,1
2046,-39.0,-4.0,50.0,1645176014.1875,P13,D09,1,1,1
2047,-38.0,-4.0,50.0,1645176014.21875,P13,D09,1,1,1
2048,-38.0,-4.0,50.0,1645176014.25,P13,D09,1,1,1
2049,-38.0,-4.0,50.0,1645176014.28125,P13,D09,1,1,1
2050,-38.0,-4.0,50.0,1645176014.3125,P13,D09,1,1,1
2051,-39.0,-4.0,50.0,1645176014.34375,P13,D09,1,1,1
2052,-39.0,-4.0,51.0,1645176014.375,P13,D09,1,1,1
2053,-39.0,-4.0,50.0,1645176014.40625,P13,D09,1,1,1
2054,-38.0,-4.0,50.0,1645176014.4375,P13,D09,1,1,1
2055,-38.0,-4.0,50.0,1645176014.46875,P13,D09,1,1,1
2056,-39.0,-4.0,50.0,1645176014.5,P13,D09,1,1,1
2057,-39.0,-4.0,50.0,1645176014.53125,P13,D09,1,1,1
2058,-39.0,-4.0,50.0,1645176014.5625,P13,D09,1,1,1
2059,-39.0,-4.0,50.0,1645176014.59375,P13,D09,1,1,1
2060,-38.0,-4.0,50.0,1645176014.625,P13,D09,1,1,1
2061,-38.0,-4.0,50.0,1645176014.65625,P13,D09,1,1,1
2062,-38.0,-4.0,50.0,1645176014.6875,P13,D09,1,1,1
2063,-39.0,-4.0,50.0,1645176014.71875,P13,D09,1,1,1
2064,-38.0,-4.0,50.0,1645176014.75,P13,D09,1,1,1
2065,-39.0,-5.0,50.0,1645176014.78125,P13,D09,1,1,1
2066,-38.0,-4.0,50.0,1645176014.8125,P13,D09,1,1,1
2067,-38.0,-4.0,50.0,1645176014.84375,P13,D09,1,1,1
2068,-39.0,-4.0,50.0,1645176014.875,P13,D09,1,1,1
2069,-38.0,-4.0,50.0,1645176014.90625,P13,D09,1,1,1
2070,-39.0,-4.0,50.0,1645176014.9375,P13,D09,1,1,1
2071,-39.0,-4.0,50.0,1645176014.96875,P13,D09,1,1,1
2072,-38.0,-4.0,50.0,1645176015.0,P13,D09,1,1,1
2073,-38.0,-4.0,50.0,1645176015.03125,P13,D09,1,1,1
2074,-38.0,-4.0,50.0,1645176015.0625,P13,D09,1,1,1
2075,-39.0,-5.0,50.0,1645176015.09375,P13,D09,1,1,1
2076,-38.0,-4.0,50.0,1645176015.125,P13,D09,1,1,1
2077,-38.0,-4.0,50.0,1645176015.15625,P13,D09,1,1,1
2078,-38.0,-4.0,50.0,1645176015.1875,P13,D09,1,1,1
2079,-38.0,-5.0,50.0,1645176015.21875,P13,D09,1,1,1
2080,-38.0,-5.0,50.0,1645176015.25,P13,D09,1,1,1
2081,-38.0,-4.0,50.0,1645176015.28125,P13,D09,1,1,1
2082,-39.0,-5.0,50.0,1645176015.3125,P13,D09,1,1,1
2083,-38.0,-4.0,51.0,1645176015.34375,P13,D09,1,1,1
2084,-39.0,-4.0,50.0,1645176015.375,P13,D09,1,1,1
2085,-39.0,-4.0,50.0,1645176015.40625,P13,D09,1,1,1
2086,-39.0,-4.0,50.0,1645176015.4375,P13,D09,1,1,1
2087,-38.0,-5.0,50.0,1645176015.46875,P13,D09,1,1,1
2088,-39.0,-4.0,50.0,1645176015.5,P13,D09,1,1,1
2089,-38.0,-5.0,50.0,1645176015.53125,P13,D09,1,1,1
2090,-38.0,-5.0,50.0,1645176015.5625,P13,D09,1,1,1
2091,-39.0,-5.0,50.0,1645176015.59375,P13,D09,1,1,1
2092,-38.0,-5.0,51.0,1645176015.625,P13,D09,1,1,1
2093,-38.0,-5.0,50.0,1645176015.65625,P13,D09,1,1,1
2094,-39.0,-5.0,50.0,1645176015.6875,P13,D09,1,1,1
2095,-39.0,-5.0,50.0,1645176015.71875,P13,D09,1,1,1
2096,-39.0,-4.0,50.0,1645176015.75,P13,D09,1,1,1
2097,-39.0,-4.0,50.0,1645176015.78125,P13,D09,1,1,1
2098,-39.0,-4.0,50.0,1645176015.8125,P13,D09,1,1,1
2099,-39.0,-4.0,50.0,1645176015.84375,P13,D09,1,1,1
2100,-39.0,-5.0,50.0,1645176015.875,P13,D09,1,1,1
2101,-38.0,-5.0,50.0,1645176015.90625,P13,D09,1,1,1
2102,-38.0,-5.0,50.0,1645176015.9375,P13,D09,1,1,1
2103,-38.0,-5.0,51.0,1645176015.96875,P13,D09,1,1,1
2104,-38.0,-5.0,50.0,1645176016.0,P13,D09,1,1,1
2105,-39.0,-4.0,50.0,1645176016.03125,P13,D09,1,1,1
2106,-38.0,-5.0,50.0,1645176016.0625,P13,D09,1,1,1
2107,-39.0,-5.0,50.0,1645176016.09375,P13,D09,1,1,1
2108,-38.0,-5.0,50.0,1645176016.125,P13,D09,1,1,1
2109,-39.0,-4.0,50.0,1645176016.15625,P13,D09,1,1,1
2110,-39.0,-5.0,50.0,1645176016.1875,P13,D09,1,1,1
2111,-38.0,-5.0,50.0,1645176016.21875,P13,D09,1,1,1
2112,-39.0,-5.0,50.0,1645176016.25,P13,D09,1,1,1
2113,-38.0,-4.0,50.0,1645176016.28125,P13,D09,1,1,1
2114,-39.0,-4.0,50.0,1645176016.3125,P13,D09,1,1,1
2115,-38.0,-5.0,51.0,1645176016.34375,P13,D09,1,1,1
2116,-38.0,-4.0,50.0,1645176016.375,P13,D09,1,1,1
2117,-39.0,-4.0,50.0,1645176016.40625,P13,D09,1,1,1
2118,-38.0,-5.0,51.0,1645176016.4375,P13,D09,1,1,1
2119,-38.0,-4.0,50.0,1645176016.46875,P13,D09,1,1,1
2120,-39.0,-4.0,50.0,1645176016.5,P13,D09,1,1,1
2121,-39.0,-4.0,50.0,1645176016.53125,P13,D09,1,1,1
2122,-38.0,-5.0,50.0,1645176016.5625,P13,D09,1,1,1
2123,-39.0,-4.0,50.0,1645176016.59375,P13,D09,1,1,1
2124,-39.0,-4.0,50.0,1645176016.625,P13,D09,1,1,1
2125,-38.0,-5.0,50.0,1645176016.65625,P13,D09,1,1,1
2126,-38.0,-4.0,51.0,1645176016.6875,P13,D09,1,1,1
2127,-39.0,-4.0,50.0,1645176016.71875,P13,D09,1,1,1
2128,-39.0,-4.0,50.0,1645176016.75,P13,D09,1,1,1
2129,-38.0,-5.0,50.0,1645176016.78125,P13,D09,1,1,1
2130,-38.0,-4.0,50.0,1645176016.8125,P13,D09,1,1,1
2131,-38.0,-5.0,51.0,1645176016.84375,P13,D09,1,1,1
2132,-38.0,-5.0,51.0,1645176016.875,P13,D09,1,1,1
2133,-39.0,-5.0,50.0,1645176016.90625,P13,D09,1,1,1
2134,-39.0,-4.0,50.0,1645176016.9375,P13,D09,1,1,1
2135,-39.0,-4.0,50.0,1645176016.96875,P13,D09,1,1,1
2136,-39.0,-5.0,50.0,1645176017.0,P13,D09,1,1,1
2137,-38.0,-5.0,50.0,1645176017.03125,P13,D09,1,1,1
2138,-40.0,-5.0,49.0,1645176017.0625,P13,D09,1,1,1
2139,-39.0,-5.0,51.0,1645176017.09375,P13,D09,1,1,1
2140,-38.0,-4.0,51.0,1645176017.125,P13,D09,1,1,1
2141,-39.0,-4.0,50.0,1645176017.15625,P13,D09,1,1,1
2142,-38.0,-4.0,50.0,1645176017.1875,P13,D09,1,1,1
2143,-37.0,-3.0,50.0,1645176017.21875,P13,D09,1,1,1
2144,-39.0,-4.0,50.0,1645176017.25,P13,D09,1,1,1
2145,-39.0,-4.0,51.0,1645176017.28125,P13,D09,1,1,1
2146,-38.0,-4.0,51.0,1645176017.3125,P13,D09,1,1,1
2147,-39.0,-4.0,50.0,1645176017.34375,P13,D09,1,1,1
2148,-39.0,-4.0,51.0,1645176017.375,P13,D09,1,1,1
2149,-39.0,-3.0,49.0,1645176017.40625,P13,D09,1,1,1
2150,-39.0,-4.0,50.0,1645176017.4375,P13,D09,1,1,1
2151,-39.0,-4.0,51.0,1645176017.46875,P13,D09,1,1,1
2152,-38.0,-4.0,50.0,1645176017.5,P13,D09,1,1,1
2153,-40.0,-4.0,50.0,1645176017.53125,P13,D09,1,1,1
2154,-39.0,-4.0,50.0,1645176017.5625,P13,D09,1,1,1
2155,-40.0,-5.0,49.0,1645176017.59375,P13,D09,1,1,1
2156,-38.0,-5.0,50.0,1645176017.625,P13,D09,1,1,1
2157,-40.0,-5.0,49.0,1645176017.65625,P13,D09,1,1,1
2158,-41.0,-4.0,48.0,1645176017.6875,P13,D09,1,1,1
2159,-41.0,-5.0,48.0,1645176017.71875,P13,D09,1,1,1
2160,-38.0,-6.0,50.0,1645176017.75,P13,D09,1,1,1
2161,-41.0,-6.0,49.0,1645176017.78125,P13,D09,1,1,1
2162,-40.0,-5.0,49.0,1645176017.8125,P13,D09,1,1,1
2163,-41.0,-5.0,48.0,1645176017.84375,P13,D09,1,1,1
2164,-42.0,-6.0,49.0,1645176017.875,P13,D09,1,1,1
2165,-40.0,-6.0,48.0,1645176017.90625,P13,D09,1,1,1
2166,-41.0,-6.0,48.0,1645176017.9375,P13,D09,1,1,1
2167,-41.0,-5.0,47.0,1645176017.96875,P13,D09,1,1,1
2168,-43.0,-6.0,47.0,1645176018.0,P13,D09,1,1,1
2169,-39.0,-7.0,49.0,1645176018.03125,P13,D09,1,1,1
2170,-41.0,-7.0,49.0,1645176018.0625,P13,D09,1,1,1
2171,-41.0,-6.0,48.0,1645176018.09375,P13,D09,1,1,1
2172,-41.0,-6.0,48.0,1645176018.125,P13,D09,1,1,1
2173,-42.0,-7.0,48.0,1645176018.15625,P13,D09,1,1,1
2174,-41.0,-7.0,48.0,1645176018.1875,P13,D09,1,1,1
2175,-41.0,-7.0,48.0,1645176018.21875,P13,D09,1,1,1
2176,-41.0,-6.0,48.0,1645176018.25,P13,D09,1,1,1
2177,-42.0,-7.0,48.0,1645176018.28125,P13,D09,1,1,1
2178,-41.0,-6.0,48.0,1645176018.3125,P13,D09,1,1,1
2179,-42.0,-7.0,48.0,1645176018.34375,P13,D09,1,1,1
2180,-41.0,-6.0,48.0,1645176018.375,P13,D09,1,1,1
2181,-41.0,-6.0,48.0,1645176018.40625,P13,D09,1,1,1
2182,-41.0,-7.0,48.0,1645176018.4375,P13,D09,1,1,1
2183,-41.0,-7.0,48.0,1645176018.46875,P13,D09,1,1,1
2184,-41.0,-7.0,48.0,1645176018.5,P13,D09,1,1,1
2185,-41.0,-6.0,48.0,1645176018.53125,P13,D09,1,1,1
2186,-41.0,-6.0,48.0,1645176018.5625,P13,D09,1,1,1
2187,-41.0,-6.0,48.0,1645176018.59375,P13,D09,1,1,1
2188,-41.0,-6.0,48.0,1645176018.625,P13,D09,1,1,1
2189,-42.0,-7.0,48.0,1645176018.65625,P13,D09,1,1,1
2190,-41.0,-6.0,48.0,1645176018.6875,P13,D09,1,1,1
2191,-41.0,-6.0,48.0,1645176018.71875,P13,D09,1,1,1
2192,-41.0,-6.0,48.0,1645176018.75,P13,D09,1,1,1
2193,-41.0,-6.0,48.0,1645176018.78125,P13,D09,1,1,1
2194,-41.0,-6.0,48.0,1645176018.8125,P13,D09,1,1,1
2195,-41.0,-6.0,48.0,1645176018.84375,P13,D09,1,1,1
2196,-41.0,-6.0,49.0,1645176018.875,P13,D09,1,1,1
2197,-41.0,-6.0,48.0,1645176018.90625,P13,D09,1,1,1
2198,-41.0,-6.0,48.0,1645176018.9375,P13,D09,1,1,1
2199,-41.0,-6.0,49.0,1645176018.96875,P13,D09,1,1,1
2200,-40.0,-6.0,49.0,1645176019.0,P13,D09,1,1,1
2201,-41.0,-6.0,48.0,1645176019.03125,P13,D09,1,1,1
2202,-41.0,-6.0,48.0,1645176019.0625,P13,D09,1,1,1
2203,-41.0,-6.0,48.0,1645176019.09375,P13,D09,1,1,1
2204,-41.0,-6.0,49.0,1645176019.125,P13,D09,1,1,1
2205,-41.0,-6.0,48.0,1645176019.15625,P13,D09,1,1,1
2206,-41.0,-5.0,48.0,1645176019.1875,P13,D09,1,1,1
2207,-41.0,-5.0,49.0,1645176019.21875,P13,D09,1,1,1
2208,-41.0,-5.0,49.0,1645176019.25,P13,D09,1,1,1
2209,-41.0,-5.0,48.0,1645176019.28125,P13,D09,1,1,1
2210,-41.0,-5.0,48.0,1645176019.3125,P13,D09,1,1,1
2211,-40.0,-5.0,49.0,1645176019.34375,P13,D09,1,1,1
2212,-40.0,-5.0,49.0,1645176019.375,P13,D09,1,1,1
2213,-41.0,-5.0,49.0,1645176019.40625,P13,D09,1,1,1
2214,-41.0,-5.0,48.0,1645176019.4375,P13,D09,1,1,1
2215,-40.0,-5.0,49.0,1645176019.46875,P13,D09,1,1,1
2216,-41.0,-5.0,49.0,1645176019.5,P13,D09,1,1,1
2217,-41.0,-5.0,49.0,1645176019.53125,P13,D09,1,1,1
2218,-40.0,-5.0,49.0,1645176019.5625,P13,D09,1,1,1
2219,-41.0,-5.0,48.0,1645176019.59375,P13,D09,1,1,1
2220,-41.0,-5.0,48.0,1645176019.625,P13,D09,1,1,1
2221,-41.0,-5.0,48.0,1645176019.65625,P13,D09,1,1,1
2222,-41.0,-5.0,49.0,1645176019.6875,P13,D09,1,1,1
2223,-41.0,-5.0,49.0,1645176019.71875,P13,D09,1,1,1
2224,-41.0,-5.0,48.0,1645176019.75,P13,D09,1,1,1
2225,-40.0,-5.0,49.0,1645176019.78125,P13,D09,1,1,1
2226,-41.0,-5.0,49.0,1645176019.8125,P13,D09,1,1,1
2227,-40.0,-6.0,49.0,1645176019.84375,P13,D09,1,1,1
2228,-41.0,-5.0,48.0,1645176019.875,P13,D09,1,1,1
2229,-40.0,-5.0,49.0,1645176019.90625,P13,D09,1,1,1
2230,-41.0,-5.0,48.0,1645176019.9375,P13,D09,1,1,1
2231,-40.0,-5.0,49.0,1645176019.96875,P13,D09,1,1,1
2232,-40.0,-6.0,49.0,1645176020.0,P13,D09,1,1,1
2233,-40.0,-5.0,49.0,1645176020.03125,P13,D09,1,1,1
2234,-41.0,-6.0,48.0,1645176020.0625,P13,D09,1,1,1
2235,-40.0,-6.0,48.0,1645176020.09375,P13,D09,1,1,1
2236,-40.0,-5.0,49.0,1645176020.125,P13,D09,1,1,1
2237,-40.0,-6.0,49.0,1645176020.15625,P13,D09,1,1,1
2238,-41.0,-6.0,48.0,1645176020.1875,P13,D09,1,1,1
2239,-42.0,-6.0,48.0,1645176020.21875,P13,D09,1,1,1
2240,-41.0,-6.0,49.0,1645176020.25,P13,D09,1,1,1
2241,-40.0,-6.0,49.0,1645176020.28125,P13,D09,1,1,1
2242,-41.0,-6.0,49.0,1645176020.3125,P13,D09,1,1,1
2243,-40.0,-5.0,49.0,1645176020.34375,P13,D09,1,1,1
2244,-40.0,-5.0,49.0,1645176020.375,P13,D09,1,1,1
2245,-41.0,-6.0,48.0,1645176020.40625,P13,D09,1,1,1
2246,-40.0,-5.0,48.0,1645176020.4375,P13,D09,1,1,1
2247,-39.0,-5.0,49.0,1645176020.46875,P13,D09,1,1,1
2248,-39.0,-5.0,50.0,1645176020.5,P13,D09,1,1,1
2249,-39.0,-6.0,50.0,1645176020.53125,P13,D09,1,1,1
2250,-40.0,-6.0,49.0,1645176020.5625,P13,D09,1,1,1
2251,-40.0,-6.0,48.0,1645176020.59375,P13,D09,1,1,1
2252,-40.0,-6.0,49.0,1645176020.625,P13,D09,1,1,1
2253,-39.0,-6.0,50.0,1645176020.65625,P13,D09,1,1,1
2254,-40.0,-6.0,49.0,1645176020.6875,P13,D09,1,1,1
2255,-40.0,-6.0,49.0,1645176020.71875,P13,D09,1,1,1
2256,-40.0,-6.0,49.0,1645176020.75,P13,D09,1,1,1
2257,-40.0,-6.0,49.0,1645176020.78125,P13,D09,1,1,1
2258,-40.0,-6.0,49.0,1645176020.8125,P13,D09,1,1,1
2259,-40.0,-6.0,49.0,1645176020.84375,P13,D09,1,1,1
2260,-40.0,-6.0,49.0,1645176020.875,P13,D09,1,1,1
2261,-40.0,-6.0,49.0,1645176020.90625,P13,D09,1,1,1
2262,-41.0,-6.0,48.0,1645176020.9375,P13,D09,1,1,1
2263,-40.0,-7.0,49.0,1645176020.96875,P13,D09,1,1,1
2264,-40.0,-7.0,49.0,1645176021.0,P13,D09,1,1,1
2265,-41.0,-6.0,48.0,1645176021.03125,P13,D09,1,1,1
2266,-40.0,-6.0,48.0,1645176021.0625,P13,D09,1,1,1
2267,-41.0,-7.0,48.0,1645176021.09375,P13,D09,1,1,1
2268,-40.0,-6.0,49.0,1645176021.125,P13,D09,1,1,1
2269,-40.0,-7.0,48.0,1645176021.15625,P13,D09,1,1,1
2270,-40.0,-7.0,49.0,1645176021.1875,P13,D09,1,1,1
2271,-40.0,-6.0,49.0,1645176021.21875,P13,D09,1,1,1
2272,-40.0,-7.0,49.0,1645176021.25,P13,D09,1,1,1
2273,-40.0,-6.0,49.0,1645176021.28125,P13,D09,1,1,1
2274,-41.0,-6.0,48.0,1645176021.3125,P13,D09,1,1,1
2275,-40.0,-6.0,49.0,1645176021.34375,P13,D09,1,1,1
2276,-40.0,-7.0,48.0,1645176021.375,P13,D09,1,1,1
2277,-41.0,-6.0,48.0,1645176021.40625,P13,D09,1,1,1
2278,-40.0,-7.0,48.0,1645176021.4375,P13,D09,1,1,1
2279,-40.0,-6.0,48.0,1645176021.46875,P13,D09,1,1,1
2280,-40.0,-7.0,49.0,1645176021.5,P13,D09,1,1,1
2281,-40.0,-6.0,49.0,1645176021.53125,P13,D09,1,1,1
2282,-40.0,-7.0,49.0,1645176021.5625,P13,D09,1,1,1
2283,-41.0,-7.0,48.0,1645176021.59375,P13,D09,1,1,1
2284,-40.0,-6.0,49.0,1645176021.625,P13,D09,1,1,1
2285,-40.0,-7.0,49.0,1645176021.65625,P13,D09,1,1,1
2286,-40.0,-7.0,49.0,1645176021.6875,P13,D09,1,1,1
2287,-41.0,-6.0,48.0,1645176021.71875,P13,D09,1,1,1
2288,-40.0,-7.0,49.0,1645176021.75,P13,D09,1,1,1
2289,-40.0,-6.0,49.0,1645176021.78125,P13,D09,1,1,1
2290,-40.0,-6.0,49.0,1645176021.8125,P13,D09,1,1,1
2291,-41.0,-7.0,48.0,1645176021.84375,P13,D09,1,1,1
2292,-40.0,-7.0,49.0,1645176021.875,P13,D09,1,1,1
2293,-40.0,-6.0,49.0,1645176021.90625,P13,D09,1,1,1
2294,-40.0,-7.0,48.0,1645176021.9375,P13,D09,1,1,1
2295,-40.0,-7.0,48.0,1645176021.96875,P13,D09,1,1,1
2296,-40.0,-7.0,49.0,1645176022.0,P13,D09,1,1,1
2297,-41.0,-7.0,48.0,1645176022.03125,P13,D09,1,1,1
2298,-41.0,-7.0,49.0,1645176022.0625,P13,D09,1,1,1
2299,-40.0,-7.0,49.0,1645176022.09375,P13,D09,1,1,1
2300,-41.0,-7.0,49.0,1645176022.125,P13,D09,1,1,1
2301,-40.0,-7.0,49.0,1645176022.15625,P13,D09,1,1,1
2302,-41.0,-7.0,48.0,1645176022.1875,P13,D09,1,1,1
2303,-40.0,-7.0,49.0,1645176022.21875,P13,D09,1,1,1
2304,-40.0,-7.0,48.0,1645176022.25,P13,D09,1,1,1
2305,-40.0,-6.0,49.0,1645176022.28125,P13,D09,1,1,1
2306,-40.0,-6.0,49.0,1645176022.3125,P13,D09,1,1,1
2307,-41.0,-6.0,48.0,1645176022.34375,P13,D09,1,1,1
2308,-40.0,-7.0,49.0,1645176022.375,P13,D09,1,1,1
2309,-40.0,-7.0,49.0,1645176022.40625,P13,D09,1,1,1
2310,-41.0,-7.0,48.0,1645176022.4375,P13,D09,1,1,1
2311,-40.0,-7.0,49.0,1645176022.46875,P13,D09,1,1,1
2312,-40.0,-6.0,49.0,1645176022.5,P13,D09,1,1,1
2313,-40.0,-6.0,49.0,1645176022.53125,P13,D09,1,1,1
2314,-40.0,-6.0,49.0,1645176022.5625,P13,D09,1,1,1
2315,-42.0,-6.0,47.0,1645176022.59375,P13,D09,1,1,1
2316,-39.0,-6.0,50.0,1645176022.625,P13,D09,1,1,1
2317,-42.0,-7.0,48.0,1645176022.65625,P13,D09,1,1,1
2318,-41.0,-7.0,48.0,1645176022.6875,P13,D09,1,1,1
2319,-41.0,-7.0,48.0,1645176022.71875,P13,D09,1,1,1
2320,-40.0,-6.0,49.0,1645176022.75,P13,D09,1,1,1
2321,-41.0,-7.0,49.0,1645176022.78125,P13,D09,1,1,1
2322,-41.0,-7.0,48.0,1645176022.8125,P13,D09,1,1,1
2323,-41.0,-6.0,48.0,1645176022.84375,P13,D09,1,1,1
2324,-41.0,-6.0,48.0,1645176022.875,P13,D09,1,1,1
2325,-41.0,-6.0,48.0,1645176022.90625,P13,D09,1,1,1
2326,-41.0,-7.0,48.0,1645176022.9375,P13,D09,1,1,1
2327,-40.0,-6.0,49.0,1645176022.96875,P13,D09,1,1,1
2328,-41.0,-6.0,48.0,1645176023.0,P13,D09,1,1,1
2329,-41.0,-7.0,48.0,1645176023.03125,P13,D09,1,1,1
2330,-41.0,-7.0,48.0,1645176023.0625,P13,D09,1,1,1
2331,-41.0,-7.0,48.0,1645176023.09375,P13,D09,1,1,1
2332,-41.0,-7.0,48.0,1645176023.125,P13,D09,1,1,1
2333,-41.0,-7.0,47.0,1645176023.15625,P13,D09,1,1,1
2334,-42.0,-7.0,47.0,1645176023.1875,P13,D09,1,1,1
2335,-41.0,-7.0,48.0,1645176023.21875,P13,D09,1,1,1
2336,-41.0,-7.0,48.0,1645176023.25,P13,D09,1,1,1
2337,-42.0,-6.0,48.0,1645176023.28125,P13,D09,1,1,1
2338,-41.0,-6.0,48.0,1645176023.3125,P13,D09,1,1,1
2339,-41.0,-7.0,48.0,1645176023.34375,P13,D09,1,1,1
2340,-41.0,-6.0,48.0,1645176023.375,P13,D09,1,1,1
2341,-42.0,-7.0,47.0,1645176023.40625,P13,D09,1,1,1
2342,-41.0,-6.0,48.0,1645176023.4375,P13,D09,1,1,1
