,acc_x,acc_y,acc_z,timestamp,participant,document,val,arou,eng
0,-23.0,-9.0,58.0,1645176295.75,P13,D12,1,0,1
1,-23.0,-9.0,58.0,1645176295.78125,P13,D12,1,0,1
2,-23.0,-9.0,58.0,1645176295.8125,P13,D12,1,0,1
3,-23.0,-9.0,58.0,1645176295.84375,P13,D12,1,0,1
4,-23.0,-9.0,58.0,1645176295.875,P13,D12,1,0,1
5,-23.0,-9.0,58.0,1645176295.90625,P13,D12,1,0,1
6,-23.0,-9.0,58.0,1645176295.9375,P13,D12,1,0,1
7,-23.0,-9.0,58.0,1645176295.96875,P13,D12,1,0,1
8,-23.0,-9.0,58.0,1645176296.0,P13,D12,1,0,1
9,-23.0,-9.0,58.0,1645176296.03125,P13,D12,1,0,1
10,-23.0,-9.0,58.0,1645176296.0625,P13,D12,1,0,1
11,-23.0,-9.0,58.0,1645176296.09375,P13,D12,1,0,1
12,-23.0,-9.0,58.0,1645176296.125,P13,D12,1,0,1
13,-23.0,-9.0,58.0,1645176296.15625,P13,D12,1,0,1
14,-23.0,-9.0,58.0,1645176296.1875,P13,D12,1,0,1
15,-23.0,-9.0,58.0,1645176296.21875,P13,D12,1,0,1
16,-23.0,-9.0,58.0,1645176296.25,P13,D12,1,0,1
17,-23.0,-9.0,58.0,1645176296.28125,P13,D12,1,0,1
18,-23.0,-9.0,58.0,1645176296.3125,P13,D12,1,0,1
19,-23.0,-9.0,58.0,1645176296.34375,P13,D12,1,0,1
20,-23.0,-9.0,58.0,1645176296.375,P13,D12,1,0,1
21,-23.0,-9.0,58.0,1645176296.40625,P13,D12,1,0,1
22,-23.0,-9.0,58.0,1645176296.4375,P13,D12,1,0,1
23,-23.0,-9.0,58.0,1645176296.46875,P13,D12,1,0,1
24,-23.0,-9.0,58.0,1645176296.5,P13,D12,1,0,1
25,-23.0,-9.0,58.0,1645176296.53125,P13,D12,1,0,1
26,-23.0,-9.0,58.0,1645176296.5625,P13,D12,1,0,1
27,-23.0,-9.0,58.0,1645176296.59375,P13,D12,1,0,1
28,-23.0,-9.0,58.0,1645176296.625,P13,D12,1,0,1
29,-23.0,-9.0,58.0,1645176296.65625,P13,D12,1,0,1
30,-23.0,-9.0,58.0,1645176296.6875,P13,D12,1,0,1
31,-23.0,-9.0,58.0,1645176296.71875,P13,D12,1,0,1
32,-23.0,-9.0,58.0,1645176296.75,P13,D12,1,0,1
33,-23.0,-9.0,58.0,1645176296.78125,P13,D12,1,0,1
34,-23.0,-9.0,58.0,1645176296.8125,P13,D12,1,0,1
35,-23.0,-9.0,58.0,1645176296.84375,P13,D12,1,0,1
36,-23.0,-9.0,58.0,1645176296.875,P13,D12,1,0,1
37,-23.0,-9.0,58.0,1645176296.90625,P13,D12,1,0,1
38,-23.0,-9.0,58.0,1645176296.9375,P13,D12,1,0,1
39,-23.0,-9.0,58.0,1645176296.96875,P13,D12,1,0,1
40,-23.0,-9.0,58.0,1645176297.0,P13,D12,1,0,1
41,-23.0,-9.0,58.0,1645176297.03125,P13,D12,1,0,1
42,-23.0,-9.0,58.0,1645176297.0625,P13,D12,1,0,1
43,-23.0,-9.0,58.0,1645176297.09375,P13,D12,1,0,1
44,-23.0,-9.0,58.0,1645176297.125,P13,D12,1,0,1
45,-23.0,-9.0,58.0,1645176297.15625,P13,D12,1,0,1
46,-23.0,-9.0,58.0,1645176297.1875,P13,D12,1,0,1
47,-23.0,-9.0,58.0,1645176297.21875,P13,D12,1,0,1
48,-23.0,-9.0,58.0,1645176297.25,P13,D12,1,0,1
49,-23.0,-9.0,58.0,1645176297.28125,P13,D12,1,0,1
50,-23.0,-9.0,58.0,1645176297.3125,P13,D12,1,0,1
51,-23.0,-9.0,58.0,1645176297.34375,P13,D12,1,0,1
52,-23.0,-9.0,58.0,1645176297.375,P13,D12,1,0,1
53,-23.0,-9.0,58.0,1645176297.40625,P13,D12,1,0,1
54,-23.0,-9.0,58.0,1645176297.4375,P13,D12,1,0,1
55,-23.0,-9.0,58.0,1645176297.46875,P13,D12,1,0,1
56,-24.0,-9.0,58.0,1645176297.5,P13,D12,1,0,1
57,-23.0,-9.0,58.0,1645176297.53125,P13,D12,1,0,1
58,-23.0,-9.0,58.0,1645176297.5625,P13,D12,1,0,1
59,-23.0,-9.0,58.0,1645176297.59375,P13,D12,1,0,1
60,-23.0,-9.0,58.0,1645176297.625,P13,D12,1,0,1
61,-23.0,-9.0,58.0,1645176297.65625,P13,D12,1,0,1
62,-23.0,-9.0,58.0,1645176297.6875,P13,D12,1,0,1
63,-23.0,-9.0,58.0,1645176297.71875,P13,D12,1,0,1
64,-23.0,-9.0,58.0,1645176297.75,P13,D12,1,0,1
65,-23.0,-9.0,58.0,1645176297.78125,P13,D12,1,0,1
66,-23.0,-9.0,58.0,1645176297.8125,P13,D12,1,0,1
67,-23.0,-9.0,58.0,1645176297.84375,P13,D12,1,0,1
68,-23.0,-9.0,58.0,1645176297.875,P13,D12,1,0,1
69,-23.0,-9.0,58.0,1645176297.90625,P13,D12,1,0,1
70,-24.0,-9.0,58.0,1645176297.9375,P13,D12,1,0,1
71,-23.0,-9.0,58.0,1645176297.96875,P13,D12,1,0,1
72,-23.0,-9.0,58.0,1645176298.0,P13,D12,1,0,1
73,-23.0,-9.0,58.0,1645176298.03125,P13,D12,1,0,1
74,-23.0,-9.0,58.0,1645176298.0625,P13,D12,1,0,1
75,-23.0,-9.0,58.0,1645176298.09375,P13,D12,1,0,1
76,-23.0,-9.0,58.0,1645176298.125,P13,D12,1,0,1
77,-23.0,-9.0,58.0,1645176298.15625,P13,D12,1,0,1
78,-23.0,-9.0,58.0,1645176298.1875,P13,D12,1,0,1
79,-23.0,-9.0,58.0,1645176298.21875,P13,D12,1,0,1
80,-23.0,-9.0,58.0,1645176298.25,P13,D12,1,0,1
81,-23.0,-9.0,58.0,1645176298.28125,P13,D12,1,0,1
82,-23.0,-9.0,58.0,1645176298.3125,P13,D12,1,0,1
83,-23.0,-9.0,58.0,1645176298.34375,P13,D12,1,0,1
84,-23.0,-9.0,58.0,1645176298.375,P13,D12,1,0,1
85,-23.0,-9.0,58.0,1645176298.40625,P13,D12,1,0,1
86,-23.0,-9.0,58.0,1645176298.4375,P13,D12,1,0,1
87,-23.0,-9.0,58.0,1645176298.46875,P13,D12,1,0,1
88,-23.0,-9.0,58.0,1645176298.5,P13,D12,1,0,1
89,-23.0,-9.0,58.0,1645176298.53125,P13,D12,1,0,1
90,-23.0,-9.0,58.0,1645176298.5625,P13,D12,1,0,1
91,-23.0,-9.0,58.0,1645176298.59375,P13,D12,1,0,1
92,-23.0,-9.0,58.0,1645176298.625,P13,D12,1,0,1
93,-23.0,-9.0,58.0,1645176298.65625,P13,D12,1,0,1
94,-23.0,-9.0,58.0,1645176298.6875,P13,D12,1,0,1
95,-23.0,-9.0,58.0,1645176298.71875,P13,D12,1,0,1
96,-23.0,-9.0,58.0,1645176298.75,P13,D12,1,0,1
97,-23.0,-9.0,58.0,1645176298.78125,P13,D12,1,0,1
98,-23.0,-9.0,58.0,1645176298.8125,P13,D12,1,0,1
99,-23.0,-9.0,58.0,1645176298.84375,P13,D12,1,0,1
100,-23.0,-9.0,58.0,1645176298.875,P13,D12,1,0,1
101,-23.0,-9.0,58.0,1645176298.90625,P13,D12,1,0,1
102,-23.0,-9.0,58.0,1645176298.9375,P13,D12,1,0,1
103,-23.0,-9.0,58.0,1645176298.96875,P13,D12,1,0,1
104,-23.0,-9.0,58.0,1645176299.0,P13,D12,1,0,1
105,-23.0,-9.0,58.0,1645176299.03125,P13,D12,1,0,1
106,-23.0,-9.0,58.0,1645176299.0625,P13,D12,1,0,1
107,-23.0,-9.0,58.0,1645176299.09375,P13,D12,1,0,1
108,-23.0,-9.0,58.0,1645176299.125,P13,D12,1,0,1
109,-23.0,-9.0,58.0,1645176299.15625,P13,D12,1,0,1
110,-23.0,-9.0,58.0,1645176299.1875,P13,D12,1,0,1
111,-23.0,-9.0,58.0,1645176299.21875,P13,D12,1,0,1
112,-23.0,-9.0,58.0,1645176299.25,P13,D12,1,0,1
113,-23.0,-9.0,58.0,1645176299.28125,P13,D12,1,0,1
114,-23.0,-9.0,58.0,1645176299.3125,P13,D12,1,0,1
115,-23.0,-9.0,58.0,1645176299.34375,P13,D12,1,0,1
116,-23.0,-9.0,58.0,1645176299.375,P13,D12,1,0,1
117,-23.0,-9.0,58.0,1645176299.40625,P13,D12,1,0,1
118,-23.0,-9.0,58.0,1645176299.4375,P13,D12,1,0,1
119,-23.0,-9.0,58.0,1645176299.46875,P13,D12,1,0,1
120,-23.0,-9.0,58.0,1645176299.5,P13,D12,1,0,1
121,-23.0,-9.0,58.0,1645176299.53125,P13,D12,1,0,1
122,-23.0,-9.0,58.0,1645176299.5625,P13,D12,1,0,1
123,-23.0,-9.0,58.0,1645176299.59375,P13,D12,1,0,1
124,-23.0,-9.0,58.0,1645176299.625,P13,D12,1,0,1
125,-23.0,-9.0,58.0,1645176299.65625,P13,D12,1,0,1
126,-23.0,-9.0,58.0,1645176299.6875,P13,D12,1,0,1
127,-23.0,-9.0,58.0,1645176299.71875,P13,D12,1,0,1
128,-23.0,-9.0,58.0,1645176299.75,P13,D12,1,0,1
129,-23.0,-9.0,58.0,1645176299.78125,P13,D12,1,0,1
130,-23.0,-9.0,58.0,1645176299.8125,P13,D12,1,0,1
131,-23.0,-9.0,58.0,1645176299.84375,P13,D12,1,0,1
132,-23.0,-9.0,58.0,1645176299.875,P13,D12,1,0,1
133,-23.0,-9.0,58.0,1645176299.90625,P13,D12,1,0,1
134,-23.0,-9.0,58.0,1645176299.9375,P13,D12,1,0,1
135,-23.0,-9.0,58.0,1645176299.96875,P13,D12,1,0,1
136,-23.0,-9.0,58.0,1645176300.0,P13,D12,1,0,1
137,-23.0,-9.0,58.0,1645176300.03125,P13,D12,1,0,1
138,-23.0,-9.0,58.0,1645176300.0625,P13,D12,1,0,1
139,-23.0,-9.0,58.0,1645176300.09375,P13,D12,1,0,1
140,-23.0,-9.0,58.0,1645176300.125,P13,D12,1,0,1
141,-23.0,-9.0,58.0,1645176300.15625,P13,D12,1,0,1
142,-23.0,-9.0,58.0,1645176300.1875,P13,D12,1,0,1
143,-24.0,-9.0,58.0,1645176300.21875,P13,D12,1,0,1
144,-23.0,-9.0,58.0,1645176300.25,P13,D12,1,0,1
145,-23.0,-9.0,58.0,1645176300.28125,P13,D12,1,0,1
146,-23.0,-9.0,58.0,1645176300.3125,P13,D12,1,0,1
147,-23.0,-9.0,58.0,1645176300.34375,P13,D12,1,0,1
148,-23.0,-9.0,58.0,1645176300.375,P13,D12,1,0,1
149,-23.0,-9.0,58.0,1645176300.40625,P13,D12,1,0,1
150,-23.0,-9.0,58.0,1645176300.4375,P13,D12,1,0,1
151,-23.0,-9.0,58.0,1645176300.46875,P13,D12,1,0,1
152,-23.0,-9.0,58.0,1645176300.5,P13,D12,1,0,1
153,-23.0,-9.0,58.0,1645176300.53125,P13,D12,1,0,1
154,-23.0,-9.0,58.0,1645176300.5625,P13,D12,1,0,1
155,-23.0,-8.0,58.0,1645176300.59375,P13,D12,1,0,1
156,-23.0,-9.0,58.0,1645176300.625,P13,D12,1,0,1
157,-23.0,-9.0,58.0,1645176300.65625,P13,D12,1,0,1
158,-23.0,-9.0,58.0,1645176300.6875,P13,D12,1,0,1
159,-23.0,-9.0,58.0,1645176300.71875,P13,D12,1,0,1
160,-23.0,-9.0,58.0,1645176300.75,P13,D12,1,0,1
161,-23.0,-9.0,58.0,1645176300.78125,P13,D12,1,0,1
162,-24.0,-9.0,58.0,1645176300.8125,P13,D12,1,0,1
163,-23.0,-9.0,58.0,1645176300.84375,P13,D12,1,0,1
164,-23.0,-9.0,58.0,1645176300.875,P13,D12,1,0,1
165,-23.0,-9.0,58.0,1645176300.90625,P13,D12,1,0,1
166,-23.0,-9.0,58.0,1645176300.9375,P13,D12,1,0,1
167,-23.0,-9.0,58.0,1645176300.96875,P13,D12,1,0,1
168,-23.0,-9.0,58.0,1645176301.0,P13,D12,1,0,1
169,-23.0,-9.0,58.0,1645176301.03125,P13,D12,1,0,1
170,-23.0,-9.0,58.0,1645176301.0625,P13,D12,1,0,1
171,-23.0,-9.0,58.0,1645176301.09375,P13,D12,1,0,1
172,-23.0,-8.0,58.0,1645176301.125,P13,D12,1,0,1
173,-23.0,-9.0,58.0,1645176301.15625,P13,D12,1,0,1
174,-23.0,-9.0,58.0,1645176301.1875,P13,D12,1,0,1
175,-23.0,-8.0,58.0,1645176301.21875,P13,D12,1,0,1
176,-23.0,-9.0,58.0,1645176301.25,P13,D12,1,0,1
177,-24.0,-10.0,57.0,1645176301.28125,P13,D12,1,0,1
178,-24.0,-9.0,57.0,1645176301.3125,P13,D12,1,0,1
179,-24.0,-9.0,58.0,1645176301.34375,P13,D12,1,0,1
180,-23.0,-9.0,58.0,1645176301.375,P13,D12,1,0,1
181,-24.0,-9.0,57.0,1645176301.40625,P13,D12,1,0,1
182,-23.0,-9.0,58.0,1645176301.4375,P13,D12,1,0,1
183,-24.0,-10.0,58.0,1645176301.46875,P13,D12,1,0,1
184,-25.0,-10.0,57.0,1645176301.5,P13,D12,1,0,1
185,-24.0,-10.0,57.0,1645176301.53125,P13,D12,1,0,1
186,-24.0,-11.0,58.0,1645176301.5625,P13,D12,1,0,1
187,-24.0,-11.0,58.0,1645176301.59375,P13,D12,1,0,1
188,-25.0,-10.0,57.0,1645176301.625,P13,D12,1,0,1
189,-24.0,-9.0,57.0,1645176301.65625,P13,D12,1,0,1
190,-23.0,-9.0,59.0,1645176301.6875,P13,D12,1,0,1
191,-24.0,-9.0,59.0,1645176301.71875,P13,D12,1,0,1
192,-24.0,-9.0,57.0,1645176301.75,P13,D12,1,0,1
193,-23.0,-8.0,58.0,1645176301.78125,P13,D12,1,0,1
194,-24.0,-9.0,58.0,1645176301.8125,P13,D12,1,0,1
195,-24.0,-8.0,58.0,1645176301.84375,P13,D12,1,0,1
196,-24.0,-8.0,58.0,1645176301.875,P13,D12,1,0,1
197,-24.0,-8.0,58.0,1645176301.90625,P13,D12,1,0,1
198,-24.0,-9.0,58.0,1645176301.9375,P13,D12,1,0,1
199,-23.0,-8.0,58.0,1645176301.96875,P13,D12,1,0,1
200,-24.0,-8.0,58.0,1645176302.0,P13,D12,1,0,1
201,-23.0,-9.0,58.0,1645176302.03125,P13,D12,1,0,1
202,-24.0,-10.0,57.0,1645176302.0625,P13,D12,1,0,1
203,-25.0,-10.0,56.0,1645176302.09375,P13,D12,1,0,1
204,-24.0,-9.0,58.0,1645176302.125,P13,D12,1,0,1
205,-24.0,-9.0,59.0,1645176302.15625,P13,D12,1,0,1
206,-25.0,-10.0,58.0,1645176302.1875,P13,D12,1,0,1
207,-25.0,-10.0,57.0,1645176302.21875,P13,D12,1,0,1
208,-24.0,-8.0,58.0,1645176302.25,P13,D12,1,0,1
209,-23.0,-8.0,58.0,1645176302.28125,P13,D12,1,0,1
210,-23.0,-8.0,58.0,1645176302.3125,P13,D12,1,0,1
211,-24.0,-10.0,58.0,1645176302.34375,P13,D12,1,0,1
212,-24.0,-10.0,57.0,1645176302.375,P13,D12,1,0,1
213,-24.0,-10.0,57.0,1645176302.40625,P13,D12,1,0,1
214,-23.0,-9.0,58.0,1645176302.4375,P13,D12,1,0,1
215,-23.0,-9.0,58.0,1645176302.46875,P13,D12,1,0,1
216,-23.0,-9.0,58.0,1645176302.5,P13,D12,1,0,1
217,-23.0,-9.0,57.0,1645176302.53125,P13,D12,1,0,1
218,-23.0,-8.0,58.0,1645176302.5625,P13,D12,1,0,1
219,-23.0,-8.0,58.0,1645176302.59375,P13,D12,1,0,1
220,-23.0,-8.0,58.0,1645176302.625,P13,D12,1,0,1
221,-23.0,-8.0,58.0,1645176302.65625,P13,D12,1,0,1
222,-23.0,-9.0,59.0,1645176302.6875,P13,D12,1,0,1
223,-23.0,-8.0,58.0,1645176302.71875,P13,D12,1,0,1
224,-23.0,-8.0,58.0,1645176302.75,P13,D12,1,0,1
225,-23.0,-9.0,59.0,1645176302.78125,P13,D12,1,0,1
226,-24.0,-9.0,57.0,1645176302.8125,P13,D12,1,0,1
227,-23.0,-8.0,58.0,1645176302.84375,P13,D12,1,0,1
228,-23.0,-8.0,59.0,1645176302.875,P13,D12,1,0,1
229,-23.0,-9.0,59.0,1645176302.90625,P13,D12,1,0,1
230,-23.0,-8.0,58.0,1645176302.9375,P13,D12,1,0,1
231,-23.0,-8.0,58.0,1645176302.96875,P13,D12,1,0,1
232,-23.0,-9.0,58.0,1645176303.0,P13,D12,1,0,1
233,-23.0,-9.0,58.0,1645176303.03125,P13,D12,1,0,1
234,-23.0,-8.0,57.0,1645176303.0625,P13,D12,1,0,1
235,-23.0,-8.0,58.0,1645176303.09375,P13,D12,1,0,1
236,-23.0,-8.0,59.0,1645176303.125,P13,D12,1,0,1
237,-23.0,-8.0,59.0,1645176303.15625,P13,D12,1,0,1
238,-23.0,-8.0,58.0,1645176303.1875,P13,D12,1,0,1
239,-23.0,-9.0,58.0,1645176303.21875,P13,D12,1,0,1
240,-23.0,-9.0,58.0,1645176303.25,P13,D12,1,0,1
241,-23.0,-9.0,58.0,1645176303.28125,P13,D12,1,0,1
242,-23.0,-9.0,58.0,1645176303.3125,P13,D12,1,0,1
243,-23.0,-9.0,58.0,1645176303.34375,P13,D12,1,0,1
244,-23.0,-9.0,58.0,1645176303.375,P13,D12,1,0,1
245,-23.0,-9.0,58.0,1645176303.40625,P13,D12,1,0,1
246,-23.0,-9.0,58.0,1645176303.4375,P13,D12,1,0,1
247,-23.0,-8.0,58.0,1645176303.46875,P13,D12,1,0,1
248,-23.0,-9.0,58.0,1645176303.5,P13,D12,1,0,1
249,-23.0,-9.0,58.0,1645176303.53125,P13,D12,1,0,1
250,-23.0,-8.0,58.0,1645176303.5625,P13,D12,1,0,1
251,-23.0,-8.0,58.0,1645176303.59375,P13,D12,1,0,1
252,-23.0,-8.0,58.0,1645176303.625,P13,D12,1,0,1
253,-23.0,-8.0,59.0,1645176303.65625,P13,D12,1,0,1
254,-23.0,-8.0,58.0,1645176303.6875,P13,D12,1,0,1
255,-23.0,-8.0,58.0,1645176303.71875,P13,D12,1,0,1
256,-23.0,-9.0,58.0,1645176303.75,P13,D12,1,0,1
257,-23.0,-9.0,58.0,1645176303.78125,P13,D12,1,0,1
258,-23.0,-9.0,58.0,1645176303.8125,P13,D12,1,0,1
259,-23.0,-9.0,58.0,1645176303.84375,P13,D12,1,0,1
260,-23.0,-9.0,58.0,1645176303.875,P13,D12,1,0,1
261,-23.0,-9.0,58.0,1645176303.90625,P13,D12,1,0,1
262,-23.0,-8.0,58.0,1645176303.9375,P13,D12,1,0,1
263,-23.0,-9.0,58.0,1645176303.96875,P13,D12,1,0,1
264,-23.0,-8.0,58.0,1645176304.0,P13,D12,1,0,1
265,-23.0,-9.0,58.0,1645176304.03125,P13,D12,1,0,1
266,-23.0,-8.0,58.0,1645176304.0625,P13,D12,1,0,1
267,-23.0,-9.0,58.0,1645176304.09375,P13,D12,1,0,1
268,-23.0,-9.0,58.0,1645176304.125,P13,D12,1,0,1
269,-23.0,-9.0,58.0,1645176304.15625,P13,D12,1,0,1
270,-23.0,-9.0,58.0,1645176304.1875,P13,D12,1,0,1
271,-23.0,-9.0,58.0,1645176304.21875,P13,D12,1,0,1
272,-23.0,-9.0,58.0,1645176304.25,P13,D12,1,0,1
273,-23.0,-9.0,58.0,1645176304.28125,P13,D12,1,0,1
274,-23.0,-9.0,58.0,1645176304.3125,P13,D12,1,0,1
275,-23.0,-8.0,58.0,1645176304.34375,P13,D12,1,0,1
276,-23.0,-9.0,58.0,1645176304.375,P13,D12,1,0,1
277,-23.0,-9.0,58.0,1645176304.40625,P13,D12,1,0,1
278,-23.0,-9.0,58.0,1645176304.4375,P13,D12,1,0,1
279,-23.0,-9.0,58.0,1645176304.46875,P13,D12,1,0,1
280,-23.0,-9.0,58.0,1645176304.5,P13,D12,1,0,1
281,-23.0,-9.0,58.0,1645176304.53125,P13,D12,1,0,1
282,-23.0,-8.0,58.0,1645176304.5625,P13,D12,1,0,1
283,-23.0,-8.0,58.0,1645176304.59375,P13,D12,1,0,1
284,-23.0,-9.0,58.0,1645176304.625,P13,D12,1,0,1
285,-23.0,-9.0,58.0,1645176304.65625,P13,D12,1,0,1
286,-23.0,-9.0,58.0,1645176304.6875,P13,D12,1,0,1
287,-23.0,-9.0,58.0,1645176304.71875,P13,D12,1,0,1
288,-23.0,-9.0,58.0,1645176304.75,P13,D12,1,0,1
289,-23.0,-9.0,58.0,1645176304.78125,P13,D12,1,0,1
290,-23.0,-9.0,58.0,1645176304.8125,P13,D12,1,0,1
291,-23.0,-8.0,58.0,1645176304.84375,P13,D12,1,0,1
292,-23.0,-9.0,58.0,1645176304.875,P13,D12,1,0,1
293,-23.0,-9.0,58.0,1645176304.90625,P13,D12,1,0,1
294,-23.0,-9.0,58.0,1645176304.9375,P13,D12,1,0,1
295,-23.0,-9.0,58.0,1645176304.96875,P13,D12,1,0,1
296,-23.0,-9.0,58.0,1645176305.0,P13,D12,1,0,1
297,-23.0,-9.0,58.0,1645176305.03125,P13,D12,1,0,1
298,-23.0,-9.0,58.0,1645176305.0625,P13,D12,1,0,1
299,-23.0,-9.0,58.0,1645176305.09375,P13,D12,1,0,1
300,-23.0,-9.0,58.0,1645176305.125,P13,D12,1,0,1
301,-23.0,-9.0,58.0,1645176305.15625,P13,D12,1,0,1
302,-23.0,-9.0,58.0,1645176305.1875,P13,D12,1,0,1
303,-23.0,-9.0,58.0,1645176305.21875,P13,D12,1,0,1
304,-23.0,-9.0,58.0,1645176305.25,P13,D12,1,0,1
305,-23.0,-9.0,58.0,1645176305.28125,P13,D12,1,0,1
306,-23.0,-9.0,58.0,1645176305.3125,P13,D12,1,0,1
307,-23.0,-9.0,58.0,1645176305.34375,P13,D12,1,0,1
308,-23.0,-9.0,58.0,1645176305.375,P13,D12,1,0,1
309,-23.0,-9.0,58.0,1645176305.40625,P13,D12,1,0,1
310,-23.0,-8.0,58.0,1645176305.4375,P13,D12,1,0,1
311,-23.0,-9.0,58.0,1645176305.46875,P13,D12,1,0,1
312,-23.0,-9.0,58.0,1645176305.5,P13,D12,1,0,1
313,-23.0,-9.0,58.0,1645176305.53125,P13,D12,1,0,1
314,-23.0,-9.0,58.0,1645176305.5625,P13,D12,1,0,1
315,-23.0,-9.0,58.0,1645176305.59375,P13,D12,1,0,1
316,-23.0,-9.0,58.0,1645176305.625,P13,D12,1,0,1
317,-23.0,-9.0,58.0,1645176305.65625,P13,D12,1,0,1
318,-23.0,-9.0,58.0,1645176305.6875,P13,D12,1,0,1
319,-23.0,-9.0,58.0,1645176305.71875,P13,D12,1,0,1
320,-23.0,-9.0,58.0,1645176305.75,P13,D12,1,0,1
321,-23.0,-9.0,58.0,1645176305.78125,P13,D12,1,0,1
322,-23.0,-9.0,58.0,1645176305.8125,P13,D12,1,0,1
323,-23.0,-9.0,58.0,1645176305.84375,P13,D12,1,0,1
324,-23.0,-9.0,58.0,1645176305.875,P13,D12,1,0,1
325,-23.0,-9.0,58.0,1645176305.90625,P13,D12,1,0,1
326,-23.0,-9.0,58.0,1645176305.9375,P13,D12,1,0,1
327,-23.0,-9.0,58.0,1645176305.96875,P13,D12,1,0,1
328,-23.0,-9.0,58.0,1645176306.0,P13,D12,1,0,1
329,-23.0,-9.0,58.0,1645176306.03125,P13,D12,1,0,1
330,-23.0,-9.0,58.0,1645176306.0625,P13,D12,1,0,1
331,-23.0,-9.0,58.0,1645176306.09375,P13,D12,1,0,1
332,-23.0,-9.0,58.0,1645176306.125,P13,D12,1,0,1
333,-24.0,-9.0,58.0,1645176306.15625,P13,D12,1,0,1
334,-23.0,-9.0,58.0,1645176306.1875,P13,D12,1,0,1
335,-23.0,-9.0,58.0,1645176306.21875,P13,D12,1,0,1
336,-23.0,-9.0,58.0,1645176306.25,P13,D12,1,0,1
337,-23.0,-9.0,58.0,1645176306.28125,P13,D12,1,0,1
338,-23.0,-9.0,58.0,1645176306.3125,P13,D12,1,0,1
339,-23.0,-9.0,58.0,1645176306.34375,P13,D12,1,0,1
340,-23.0,-9.0,58.0,1645176306.375,P13,D12,1,0,1
341,-23.0,-9.0,58.0,1645176306.40625,P13,D12,1,0,1
342,-23.0,-9.0,58.0,1645176306.4375,P13,D12,1,0,1
343,-23.0,-9.0,58.0,1645176306.46875,P13,D12,1,0,1
344,-23.0,-9.0,58.0,1645176306.5,P13,D12,1,0,1
345,-23.0,-9.0,58.0,1645176306.53125,P13,D12,1,0,1
346,-23.0,-9.0,58.0,1645176306.5625,P13,D12,1,0,1
347,-23.0,-9.0,58.0,1645176306.59375,P13,D12,1,0,1
348,-23.0,-9.0,58.0,1645176306.625,P13,D12,1,0,1
349,-23.0,-9.0,58.0,1645176306.65625,P13,D12,1,0,1
350,-23.0,-9.0,58.0,1645176306.6875,P13,D12,1,0,1
351,-23.0,-9.0,58.0,1645176306.71875,P13,D12,1,0,1
352,-23.0,-9.0,58.0,1645176306.75,P13,D12,1,0,1
353,-23.0,-9.0,58.0,1645176306.78125,P13,D12,1,0,1
354,-23.0,-9.0,58.0,1645176306.8125,P13,D12,1,0,1
355,-23.0,-9.0,58.0,1645176306.84375,P13,D12,1,0,1
356,-23.0,-9.0,58.0,1645176306.875,P13,D12,1,0,1
357,-24.0,-9.0,58.0,1645176306.90625,P13,D12,1,0,1
358,-23.0,-9.0,58.0,1645176306.9375,P13,D12,1,0,1
359,-23.0,-9.0,58.0,1645176306.96875,P13,D12,1,0,1
360,-23.0,-9.0,58.0,1645176307.0,P13,D12,1,0,1
361,-23.0,-9.0,58.0,1645176307.03125,P13,D12,1,0,1
362,-23.0,-9.0,58.0,1645176307.0625,P13,D12,1,0,1
363,-23.0,-9.0,58.0,1645176307.09375,P13,D12,1,0,1
364,-23.0,-9.0,58.0,1645176307.125,P13,D12,1,0,1
365,-23.0,-9.0,58.0,1645176307.15625,P13,D12,1,0,1
366,-23.0,-9.0,58.0,1645176307.1875,P13,D12,1,0,1
367,-23.0,-9.0,58.0,1645176307.21875,P13,D12,1,0,1
368,-23.0,-9.0,58.0,1645176307.25,P13,D12,1,0,1
369,-23.0,-9.0,58.0,1645176307.28125,P13,D12,1,0,1
370,-23.0,-9.0,58.0,1645176307.3125,P13,D12,1,0,1
371,-23.0,-9.0,58.0,1645176307.34375,P13,D12,1,0,1
372,-23.0,-9.0,58.0,1645176307.375,P13,D12,1,0,1
373,-23.0,-9.0,58.0,1645176307.40625,P13,D12,1,0,1
374,-23.0,-9.0,58.0,1645176307.4375,P13,D12,1,0,1
375,-23.0,-9.0,58.0,1645176307.46875,P13,D12,1,0,1
376,-23.0,-9.0,58.0,1645176307.5,P13,D12,1,0,1
377,-23.0,-9.0,58.0,1645176307.53125,P13,D12,1,0,1
378,-23.0,-9.0,58.0,1645176307.5625,P13,D12,1,0,1
379,-23.0,-9.0,58.0,1645176307.59375,P13,D12,1,0,1
380,-23.0,-9.0,58.0,1645176307.625,P13,D12,1,0,1
381,-23.0,-9.0,58.0,1645176307.65625,P13,D12,1,0,1
382,-23.0,-9.0,58.0,1645176307.6875,P13,D12,1,0,1
383,-23.0,-9.0,58.0,1645176307.71875,P13,D12,1,0,1
384,-23.0,-9.0,58.0,1645176307.75,P13,D12,1,0,1
385,-24.0,-9.0,58.0,1645176307.78125,P13,D12,1,0,1
386,-24.0,-9.0,58.0,1645176307.8125,P13,D12,1,0,1
387,-23.0,-9.0,58.0,1645176307.84375,P13,D12,1,0,1
388,-23.0,-9.0,58.0,1645176307.875,P13,D12,1,0,1
389,-24.0,-9.0,58.0,1645176307.90625,P13,D12,1,0,1
390,-23.0,-9.0,58.0,1645176307.9375,P13,D12,1,0,1
391,-23.0,-9.0,58.0,1645176307.96875,P13,D12,1,0,1
392,-23.0,-9.0,58.0,1645176308.0,P13,D12,1,0,1
393,-23.0,-9.0,58.0,1645176308.03125,P13,D12,1,0,1
394,-23.0,-9.0,58.0,1645176308.0625,P13,D12,1,0,1
395,-23.0,-9.0,58.0,1645176308.09375,P13,D12,1,0,1
396,-23.0,-9.0,58.0,1645176308.125,P13,D12,1,0,1
397,-23.0,-9.0,58.0,1645176308.15625,P13,D12,1,0,1
398,-23.0,-9.0,58.0,1645176308.1875,P13,D12,1,0,1
399,-23.0,-9.0,58.0,1645176308.21875,P13,D12,1,0,1
400,-23.0,-9.0,58.0,1645176308.25,P13,D12,1,0,1
401,-23.0,-9.0,58.0,1645176308.28125,P13,D12,1,0,1
402,-23.0,-9.0,58.0,1645176308.3125,P13,D12,1,0,1
403,-23.0,-9.0,58.0,1645176308.34375,P13,D12,1,0,1
404,-23.0,-9.0,58.0,1645176308.375,P13,D12,1,0,1
405,-23.0,-9.0,58.0,1645176308.40625,P13,D12,1,0,1
406,-23.0,-9.0,58.0,1645176308.4375,P13,D12,1,0,1
407,-23.0,-9.0,58.0,1645176308.46875,P13,D12,1,0,1
408,-23.0,-9.0,58.0,1645176308.5,P13,D12,1,0,1
409,-23.0,-9.0,58.0,1645176308.53125,P13,D12,1,0,1
410,-24.0,-9.0,58.0,1645176308.5625,P13,D12,1,0,1
411,-23.0,-9.0,58.0,1645176308.59375,P13,D12,1,0,1
412,-23.0,-9.0,58.0,1645176308.625,P13,D12,1,0,1
413,-23.0,-9.0,58.0,1645176308.65625,P13,D12,1,0,1
414,-23.0,-9.0,58.0,1645176308.6875,P13,D12,1,0,1
415,-23.0,-9.0,58.0,1645176308.71875,P13,D12,1,0,1
416,-23.0,-9.0,58.0,1645176308.75,P13,D12,1,0,1
417,-24.0,-9.0,58.0,1645176308.78125,P13,D12,1,0,1
418,-23.0,-9.0,58.0,1645176308.8125,P13,D12,1,0,1
419,-23.0,-9.0,58.0,1645176308.84375,P13,D12,1,0,1
420,-23.0,-9.0,58.0,1645176308.875,P13,D12,1,0,1
421,-23.0,-9.0,58.0,1645176308.90625,P13,D12,1,0,1
422,-23.0,-9.0,58.0,1645176308.9375,P13,D12,1,0,1
423,-23.0,-9.0,58.0,1645176308.96875,P13,D12,1,0,1
424,-23.0,-9.0,58.0,1645176309.0,P13,D12,1,0,1
425,-23.0,-9.0,58.0,1645176309.03125,P13,D12,1,0,1
426,-23.0,-9.0,58.0,1645176309.0625,P13,D12,1,0,1
427,-24.0,-9.0,58.0,1645176309.09375,P13,D12,1,0,1
428,-23.0,-9.0,58.0,1645176309.125,P13,D12,1,0,1
429,-23.0,-9.0,58.0,1645176309.15625,P13,D12,1,0,1
430,-23.0,-9.0,58.0,1645176309.1875,P13,D12,1,0,1
431,-23.0,-9.0,58.0,1645176309.21875,P13,D12,1,0,1
432,-24.0,-9.0,58.0,1645176309.25,P13,D12,1,0,1
433,-24.0,-9.0,58.0,1645176309.28125,P13,D12,1,0,1
434,-23.0,-9.0,58.0,1645176309.3125,P13,D12,1,0,1
435,-23.0,-9.0,58.0,1645176309.34375,P13,D12,1,0,1
436,-23.0,-9.0,58.0,1645176309.375,P13,D12,1,0,1
437,-23.0,-9.0,58.0,1645176309.40625,P13,D12,1,0,1
438,-23.0,-9.0,58.0,1645176309.4375,P13,D12,1,0,1
439,-23.0,-9.0,58.0,1645176309.46875,P13,D12,1,0,1
440,-23.0,-9.0,58.0,1645176309.5,P13,D12,1,0,1
441,-23.0,-9.0,58.0,1645176309.53125,P13,D12,1,0,1
442,-23.0,-9.0,58.0,1645176309.5625,P13,D12,1,0,1
443,-24.0,-9.0,58.0,1645176309.59375,P13,D12,1,0,1
444,-23.0,-9.0,58.0,1645176309.625,P13,D12,1,0,1
445,-23.0,-9.0,58.0,1645176309.65625,P13,D12,1,0,1
446,-23.0,-9.0,58.0,1645176309.6875,P13,D12,1,0,1
447,-23.0,-9.0,58.0,1645176309.71875,P13,D12,1,0,1
448,-23.0,-9.0,58.0,1645176309.75,P13,D12,1,0,1
449,-23.0,-9.0,58.0,1645176309.78125,P13,D12,1,0,1
450,-23.0,-9.0,58.0,1645176309.8125,P13,D12,1,0,1
451,-23.0,-9.0,58.0,1645176309.84375,P13,D12,1,0,1
452,-23.0,-9.0,58.0,1645176309.875,P13,D12,1,0,1
453,-23.0,-9.0,58.0,1645176309.90625,P13,D12,1,0,1
454,-24.0,-9.0,58.0,1645176309.9375,P13,D12,1,0,1
455,-24.0,-9.0,58.0,1645176309.96875,P13,D12,1,0,1
456,-23.0,-9.0,58.0,1645176310.0,P13,D12,1,0,1
457,-23.0,-9.0,58.0,1645176310.03125,P13,D12,1,0,1
458,-23.0,-9.0,58.0,1645176310.0625,P13,D12,1,0,1
459,-23.0,-9.0,58.0,1645176310.09375,P13,D12,1,0,1
460,-23.0,-9.0,58.0,1645176310.125,P13,D12,1,0,1
461,-23.0,-9.0,58.0,1645176310.15625,P13,D12,1,0,1
462,-23.0,-9.0,58.0,1645176310.1875,P13,D12,1,0,1
463,-23.0,-9.0,58.0,1645176310.21875,P13,D12,1,0,1
464,-23.0,-9.0,58.0,1645176310.25,P13,D12,1,0,1
465,-24.0,-9.0,58.0,1645176310.28125,P13,D12,1,0,1
466,-23.0,-9.0,58.0,1645176310.3125,P13,D12,1,0,1
467,-23.0,-9.0,57.0,1645176310.34375,P13,D12,1,0,1
468,-24.0,-9.0,58.0,1645176310.375,P13,D12,1,0,1
469,-24.0,-9.0,58.0,1645176310.40625,P13,D12,1,0,1
470,-23.0,-9.0,58.0,1645176310.4375,P13,D12,1,0,1
471,-23.0,-9.0,58.0,1645176310.46875,P13,D12,1,0,1
472,-23.0,-9.0,58.0,1645176310.5,P13,D12,1,0,1
473,-23.0,-9.0,58.0,1645176310.53125,P13,D12,1,0,1
474,-23.0,-9.0,58.0,1645176310.5625,P13,D12,1,0,1
475,-24.0,-9.0,58.0,1645176310.59375,P13,D12,1,0,1
476,-23.0,-9.0,58.0,1645176310.625,P13,D12,1,0,1
477,-23.0,-9.0,58.0,1645176310.65625,P13,D12,1,0,1
478,-24.0,-9.0,58.0,1645176310.6875,P13,D12,1,0,1
479,-23.0,-9.0,58.0,1645176310.71875,P13,D12,1,0,1
480,-23.0,-9.0,58.0,1645176310.75,P13,D12,1,0,1
481,-23.0,-9.0,58.0,1645176310.78125,P13,D12,1,0,1
482,-24.0,-9.0,58.0,1645176310.8125,P13,D12,1,0,1
483,-23.0,-9.0,58.0,1645176310.84375,P13,D12,1,0,1
484,-23.0,-9.0,58.0,1645176310.875,P13,D12,1,0,1
485,-23.0,-9.0,58.0,1645176310.90625,P13,D12,1,0,1
486,-23.0,-9.0,58.0,1645176310.9375,P13,D12,1,0,1
487,-23.0,-9.0,58.0,1645176310.96875,P13,D12,1,0,1
488,-23.0,-9.0,58.0,1645176311.0,P13,D12,1,0,1
489,-24.0,-9.0,58.0,1645176311.03125,P13,D12,1,0,1
490,-23.0,-9.0,58.0,1645176311.0625,P13,D12,1,0,1
491,-23.0,-9.0,58.0,1645176311.09375,P13,D12,1,0,1
492,-23.0,-9.0,58.0,1645176311.125,P13,D12,1,0,1
493,-23.0,-9.0,58.0,1645176311.15625,P13,D12,1,0,1
494,-24.0,-9.0,58.0,1645176311.1875,P13,D12,1,0,1
495,-23.0,-9.0,58.0,1645176311.21875,P13,D12,1,0,1
496,-23.0,-9.0,58.0,1645176311.25,P13,D12,1,0,1
497,-23.0,-9.0,58.0,1645176311.28125,P13,D12,1,0,1
498,-23.0,-9.0,58.0,1645176311.3125,P13,D12,1,0,1
499,-23.0,-9.0,58.0,1645176311.34375,P13,D12,1,0,1
500,-23.0,-9.0,58.0,1645176311.375,P13,D12,1,0,1
501,-23.0,-9.0,58.0,1645176311.40625,P13,D12,1,0,1
502,-23.0,-9.0,58.0,1645176311.4375,P13,D12,1,0,1
503,-23.0,-9.0,58.0,1645176311.46875,P13,D12,1,0,1
504,-23.0,-9.0,58.0,1645176311.5,P13,D12,1,0,1
505,-23.0,-9.0,58.0,1645176311.53125,P13,D12,1,0,1
506,-23.0,-9.0,58.0,1645176311.5625,P13,D12,1,0,1
507,-23.0,-9.0,58.0,1645176311.59375,P13,D12,1,0,1
508,-24.0,-9.0,58.0,1645176311.625,P13,D12,1,0,1
509,-23.0,-9.0,58.0,1645176311.65625,P13,D12,1,0,1
510,-23.0,-9.0,58.0,1645176311.6875,P13,D12,1,0,1
511,-24.0,-9.0,58.0,1645176311.71875,P13,D12,1,0,1
512,-23.0,-9.0,58.0,1645176311.75,P13,D12,1,0,1
513,-23.0,-9.0,58.0,1645176311.78125,P13,D12,1,0,1
514,-23.0,-9.0,58.0,1645176311.8125,P13,D12,1,0,1
515,-24.0,-9.0,58.0,1645176311.84375,P13,D12,1,0,1
516,-23.0,-9.0,58.0,1645176311.875,P13,D12,1,0,1
517,-23.0,-9.0,58.0,1645176311.90625,P13,D12,1,0,1
518,-23.0,-9.0,58.0,1645176311.9375,P13,D12,1,0,1
519,-23.0,-9.0,58.0,1645176311.96875,P13,D12,1,0,1
520,-23.0,-9.0,58.0,1645176312.0,P13,D12,1,0,1
521,-23.0,-9.0,58.0,1645176312.03125,P13,D12,1,0,1
522,-23.0,-9.0,58.0,1645176312.0625,P13,D12,1,0,1
523,-23.0,-9.0,58.0,1645176312.09375,P13,D12,1,0,1
524,-23.0,-9.0,58.0,1645176312.125,P13,D12,1,0,1
525,-23.0,-9.0,58.0,1645176312.15625,P13,D12,1,0,1
526,-23.0,-9.0,58.0,1645176312.1875,P13,D12,1,0,1
527,-23.0,-9.0,58.0,1645176312.21875,P13,D12,1,0,1
528,-23.0,-9.0,58.0,1645176312.25,P13,D12,1,0,1
529,-23.0,-9.0,58.0,1645176312.28125,P13,D12,1,0,1
530,-23.0,-9.0,58.0,1645176312.3125,P13,D12,1,0,1
531,-23.0,-9.0,58.0,1645176312.34375,P13,D12,1,0,1
532,-23.0,-9.0,58.0,1645176312.375,P13,D12,1,0,1
533,-23.0,-9.0,58.0,1645176312.40625,P13,D12,1,0,1
534,-23.0,-9.0,58.0,1645176312.4375,P13,D12,1,0,1
535,-23.0,-9.0,58.0,1645176312.46875,P13,D12,1,0,1
536,-23.0,-9.0,58.0,1645176312.5,P13,D12,1,0,1
537,-23.0,-9.0,58.0,1645176312.53125,P13,D12,1,0,1
538,-23.0,-9.0,58.0,1645176312.5625,P13,D12,1,0,1
539,-23.0,-9.0,58.0,1645176312.59375,P13,D12,1,0,1
540,-23.0,-9.0,58.0,1645176312.625,P13,D12,1,0,1
541,-23.0,-9.0,58.0,1645176312.65625,P13,D12,1,0,1
542,-23.0,-9.0,58.0,1645176312.6875,P13,D12,1,0,1
543,-23.0,-9.0,58.0,1645176312.71875,P13,D12,1,0,1
544,-23.0,-9.0,58.0,1645176312.75,P13,D12,1,0,1
545,-23.0,-9.0,58.0,1645176312.78125,P13,D12,1,0,1
546,-23.0,-9.0,58.0,1645176312.8125,P13,D12,1,0,1
547,-23.0,-9.0,58.0,1645176312.84375,P13,D12,1,0,1
548,-23.0,-9.0,58.0,1645176312.875,P13,D12,1,0,1
549,-23.0,-9.0,58.0,1645176312.90625,P13,D12,1,0,1
550,-23.0,-9.0,58.0,1645176312.9375,P13,D12,1,0,1
551,-23.0,-9.0,58.0,1645176312.96875,P13,D12,1,0,1
552,-23.0,-9.0,58.0,1645176313.0,P13,D12,1,0,1
553,-23.0,-9.0,58.0,1645176313.03125,P13,D12,1,0,1
554,-23.0,-9.0,58.0,1645176313.0625,P13,D12,1,0,1
555,-23.0,-9.0,58.0,1645176313.09375,P13,D12,1,0,1
556,-23.0,-9.0,58.0,1645176313.125,P13,D12,1,0,1
557,-23.0,-9.0,58.0,1645176313.15625,P13,D12,1,0,1
558,-23.0,-9.0,58.0,1645176313.1875,P13,D12,1,0,1
559,-23.0,-9.0,58.0,1645176313.21875,P13,D12,1,0,1
560,-23.0,-9.0,58.0,1645176313.25,P13,D12,1,0,1
561,-23.0,-9.0,58.0,1645176313.28125,P13,D12,1,0,1
562,-23.0,-9.0,58.0,1645176313.3125,P13,D12,1,0,1
563,-24.0,-9.0,57.0,1645176313.34375,P13,D12,1,0,1
564,-23.0,-9.0,58.0,1645176313.375,P13,D12,1,0,1
565,-23.0,-9.0,58.0,1645176313.40625,P13,D12,1,0,1
566,-23.0,-9.0,58.0,1645176313.4375,P13,D12,1,0,1
567,-23.0,-9.0,58.0,1645176313.46875,P13,D12,1,0,1
568,-23.0,-9.0,58.0,1645176313.5,P13,D12,1,0,1
569,-23.0,-9.0,58.0,1645176313.53125,P13,D12,1,0,1
570,-23.0,-9.0,58.0,1645176313.5625,P13,D12,1,0,1
571,-23.0,-9.0,58.0,1645176313.59375,P13,D12,1,0,1
572,-23.0,-9.0,58.0,1645176313.625,P13,D12,1,0,1
573,-23.0,-9.0,58.0,1645176313.65625,P13,D12,1,0,1
574,-24.0,-10.0,58.0,1645176313.6875,P13,D12,1,0,1
575,-23.0,-10.0,57.0,1645176313.71875,P13,D12,1,0,1
576,-23.0,-10.0,58.0,1645176313.75,P13,D12,1,0,1
577,-23.0,-10.0,58.0,1645176313.78125,P13,D12,1,0,1
578,-23.0,-10.0,58.0,1645176313.8125,P13,D12,1,0,1
579,-23.0,-10.0,57.0,1645176313.84375,P13,D12,1,0,1
580,-23.0,-9.0,59.0,1645176313.875,P13,D12,1,0,1
581,-23.0,-10.0,57.0,1645176313.90625,P13,D12,1,0,1
582,-23.0,-9.0,58.0,1645176313.9375,P13,D12,1,0,1
583,-23.0,-9.0,58.0,1645176313.96875,P13,D12,1,0,1
584,-23.0,-9.0,58.0,1645176314.0,P13,D12,1,0,1
585,-23.0,-9.0,58.0,1645176314.03125,P13,D12,1,0,1
586,-23.0,-10.0,58.0,1645176314.0625,P13,D12,1,0,1
587,-23.0,-10.0,58.0,1645176314.09375,P13,D12,1,0,1
588,-23.0,-9.0,58.0,1645176314.125,P13,D12,1,0,1
589,-23.0,-10.0,57.0,1645176314.15625,P13,D12,1,0,1
590,-24.0,-10.0,58.0,1645176314.1875,P13,D12,1,0,1
591,-23.0,-9.0,58.0,1645176314.21875,P13,D12,1,0,1
592,-24.0,-10.0,58.0,1645176314.25,P13,D12,1,0,1
593,-24.0,-10.0,57.0,1645176314.28125,P13,D12,1,0,1
594,-23.0,-10.0,58.0,1645176314.3125,P13,D12,1,0,1
595,-23.0,-10.0,58.0,1645176314.34375,P13,D12,1,0,1
596,-23.0,-9.0,58.0,1645176314.375,P13,D12,1,0,1
597,-23.0,-10.0,58.0,1645176314.40625,P13,D12,1,0,1
598,-23.0,-9.0,58.0,1645176314.4375,P13,D12,1,0,1
599,-24.0,-10.0,58.0,1645176314.46875,P13,D12,1,0,1
600,-23.0,-9.0,58.0,1645176314.5,P13,D12,1,0,1
601,-23.0,-9.0,58.0,1645176314.53125,P13,D12,1,0,1
602,-23.0,-10.0,58.0,1645176314.5625,P13,D12,1,0,1
603,-24.0,-10.0,58.0,1645176314.59375,P13,D12,1,0,1
604,-23.0,-10.0,58.0,1645176314.625,P13,D12,1,0,1
605,-23.0,-10.0,58.0,1645176314.65625,P13,D12,1,0,1
606,-23.0,-10.0,58.0,1645176314.6875,P13,D12,1,0,1
607,-23.0,-9.0,58.0,1645176314.71875,P13,D12,1,0,1
608,-23.0,-10.0,58.0,1645176314.75,P13,D12,1,0,1
609,-23.0,-9.0,58.0,1645176314.78125,P13,D12,1,0,1
610,-23.0,-9.0,58.0,1645176314.8125,P13,D12,1,0,1
611,-23.0,-10.0,58.0,1645176314.84375,P13,D12,1,0,1
612,-23.0,-9.0,58.0,1645176314.875,P13,D12,1,0,1
613,-23.0,-10.0,58.0,1645176314.90625,P13,D12,1,0,1
614,-23.0,-10.0,58.0,1645176314.9375,P13,D12,1,0,1
615,-23.0,-10.0,58.0,1645176314.96875,P13,D12,1,0,1
616,-23.0,-10.0,58.0,1645176315.0,P13,D12,1,0,1
617,-24.0,-10.0,58.0,1645176315.03125,P13,D12,1,0,1
618,-23.0,-10.0,58.0,1645176315.0625,P13,D12,1,0,1
619,-23.0,-10.0,58.0,1645176315.09375,P13,D12,1,0,1
620,-23.0,-10.0,58.0,1645176315.125,P13,D12,1,0,1
621,-23.0,-9.0,58.0,1645176315.15625,P13,D12,1,0,1
622,-24.0,-9.0,58.0,1645176315.1875,P13,D12,1,0,1
623,-23.0,-10.0,58.0,1645176315.21875,P13,D12,1,0,1
624,-24.0,-10.0,58.0,1645176315.25,P13,D12,1,0,1
625,-24.0,-10.0,58.0,1645176315.28125,P13,D12,1,0,1
626,-23.0,-10.0,58.0,1645176315.3125,P13,D12,1,0,1
627,-24.0,-10.0,58.0,1645176315.34375,P13,D12,1,0,1
628,-23.0,-9.0,58.0,1645176315.375,P13,D12,1,0,1
629,-23.0,-10.0,58.0,1645176315.40625,P13,D12,1,0,1
630,-23.0,-10.0,58.0,1645176315.4375,P13,D12,1,0,1
631,-24.0,-9.0,58.0,1645176315.46875,P13,D12,1,0,1
632,-23.0,-9.0,58.0,1645176315.5,P13,D12,1,0,1
633,-24.0,-10.0,58.0,1645176315.53125,P13,D12,1,0,1
634,-24.0,-10.0,57.0,1645176315.5625,P13,D12,1,0,1
635,-23.0,-9.0,58.0,1645176315.59375,P13,D12,1,0,1
636,-23.0,-9.0,58.0,1645176315.625,P13,D12,1,0,1
637,-24.0,-10.0,58.0,1645176315.65625,P13,D12,1,0,1
638,-23.0,-10.0,58.0,1645176315.6875,P13,D12,1,0,1
639,-23.0,-9.0,58.0,1645176315.71875,P13,D12,1,0,1
640,-23.0,-9.0,58.0,1645176315.75,P13,D12,1,0,1
641,-23.0,-10.0,58.0,1645176315.78125,P13,D12,1,0,1
642,-23.0,-10.0,58.0,1645176315.8125,P13,D12,1,0,1
643,-24.0,-10.0,57.0,1645176315.84375,P13,D12,1,0,1
644,-24.0,-10.0,59.0,1645176315.875,P13,D12,1,0,1
645,-24.0,-10.0,57.0,1645176315.90625,P13,D12,1,0,1
646,-24.0,-10.0,57.0,1645176315.9375,P13,D12,1,0,1
647,-23.0,-9.0,58.0,1645176315.96875,P13,D12,1,0,1
648,-24.0,-9.0,58.0,1645176316.0,P13,D12,1,0,1
649,-23.0,-10.0,57.0,1645176316.03125,P13,D12,1,0,1
650,-24.0,-10.0,57.0,1645176316.0625,P13,D12,1,0,1
651,-24.0,-10.0,58.0,1645176316.09375,P13,D12,1,0,1
652,-24.0,-10.0,57.0,1645176316.125,P13,D12,1,0,1
653,-24.0,-10.0,57.0,1645176316.15625,P13,D12,1,0,1
654,-24.0,-10.0,58.0,1645176316.1875,P13,D12,1,0,1
655,-24.0,-10.0,57.0,1645176316.21875,P13,D12,1,0,1
656,-24.0,-10.0,57.0,1645176316.25,P13,D12,1,0,1
657,-24.0,-10.0,58.0,1645176316.28125,P13,D12,1,0,1
658,-24.0,-10.0,58.0,1645176316.3125,P13,D12,1,0,1
659,-24.0,-10.0,57.0,1645176316.34375,P13,D12,1,0,1
660,-23.0,-10.0,58.0,1645176316.375,P13,D12,1,0,1
661,-23.0,-9.0,58.0,1645176316.40625,P13,D12,1,0,1
662,-24.0,-10.0,58.0,1645176316.4375,P13,D12,1,0,1
663,-23.0,-10.0,58.0,1645176316.46875,P13,D12,1,0,1
664,-23.0,-9.0,58.0,1645176316.5,P13,D12,1,0,1
665,-23.0,-9.0,58.0,1645176316.53125,P13,D12,1,0,1
666,-23.0,-9.0,58.0,1645176316.5625,P13,D12,1,0,1
667,-23.0,-9.0,58.0,1645176316.59375,P13,D12,1,0,1
668,-23.0,-9.0,58.0,1645176316.625,P13,D12,1,0,1
669,-23.0,-9.0,58.0,1645176316.65625,P13,D12,1,0,1
670,-23.0,-9.0,58.0,1645176316.6875,P13,D12,1,0,1
671,-23.0,-9.0,58.0,1645176316.71875,P13,D12,1,0,1
672,-23.0,-9.0,58.0,1645176316.75,P13,D12,1,0,1
673,-24.0,-9.0,57.0,1645176316.78125,P13,D12,1,0,1
674,-23.0,-9.0,58.0,1645176316.8125,P13,D12,1,0,1
675,-23.0,-9.0,58.0,1645176316.84375,P13,D12,1,0,1
676,-23.0,-9.0,58.0,1645176316.875,P13,D12,1,0,1
677,-23.0,-9.0,58.0,1645176316.90625,P13,D12,1,0,1
678,-23.0,-9.0,58.0,1645176316.9375,P13,D12,1,0,1
679,-24.0,-9.0,58.0,1645176316.96875,P13,D12,1,0,1
680,-24.0,-9.0,58.0,1645176317.0,P13,D12,1,0,1
681,-23.0,-9.0,58.0,1645176317.03125,P13,D12,1,0,1
682,-23.0,-10.0,58.0,1645176317.0625,P13,D12,1,0,1
683,-24.0,-10.0,57.0,1645176317.09375,P13,D12,1,0,1
684,-24.0,-10.0,58.0,1645176317.125,P13,D12,1,0,1
685,-24.0,-10.0,58.0,1645176317.15625,P13,D12,1,0,1
686,-24.0,-9.0,58.0,1645176317.1875,P13,D12,1,0,1
687,-24.0,-9.0,58.0,1645176317.21875,P13,D12,1,0,1
688,-24.0,-9.0,57.0,1645176317.25,P13,D12,1,0,1
689,-24.0,-9.0,57.0,1645176317.28125,P13,D12,1,0,1
690,-24.0,-9.0,57.0,1645176317.3125,P13,D12,1,0,1
691,-24.0,-10.0,58.0,1645176317.34375,P13,D12,1,0,1
692,-24.0,-9.0,57.0,1645176317.375,P13,D12,1,0,1
693,-25.0,-8.0,57.0,1645176317.40625,P13,D12,1,0,1
694,-24.0,-8.0,57.0,1645176317.4375,P13,D12,1,0,1
695,-24.0,-9.0,58.0,1645176317.46875,P13,D12,1,0,1
696,-24.0,-9.0,58.0,1645176317.5,P13,D12,1,0,1
