,acc_x,acc_y,acc_z,timestamp,participant,document,val,arou,eng
0,-34.0,-7.0,53.0,1644845919.40625,P08,D08,1,1,1
1,-33.0,-7.0,53.0,1644845919.4375,P08,D08,1,1,1
2,-34.0,-7.0,53.0,1644845919.46875,P08,D08,1,1,1
3,-34.0,-7.0,53.0,1644845919.5,P08,D08,1,1,1
4,-34.0,-7.0,53.0,1644845919.53125,P08,D08,1,1,1
5,-34.0,-7.0,53.0,1644845919.5625,P08,D08,1,1,1
6,-34.0,-7.0,53.0,1644845919.59375,P08,D08,1,1,1
7,-34.0,-7.0,53.0,1644845919.625,P08,D08,1,1,1
8,-34.0,-7.0,53.0,1644845919.65625,P08,D08,1,1,1
9,-34.0,-7.0,53.0,1644845919.6875,P08,D08,1,1,1
10,-34.0,-7.0,53.0,1644845919.71875,P08,D08,1,1,1
11,-34.0,-7.0,53.0,1644845919.75,P08,D08,1,1,1
12,-34.0,-7.0,53.0,1644845919.78125,P08,D08,1,1,1
13,-33.0,-7.0,53.0,1644845919.8125,P08,D08,1,1,1
14,-34.0,-7.0,53.0,1644845919.84375,P08,D08,1,1,1
15,-34.0,-7.0,53.0,1644845919.875,P08,D08,1,1,1
16,-34.0,-7.0,53.0,1644845919.90625,P08,D08,1,1,1
17,-34.0,-7.0,53.0,1644845919.9375,P08,D08,1,1,1
18,-34.0,-7.0,53.0,1644845919.96875,P08,D08,1,1,1
19,-34.0,-7.0,53.0,1644845920.0,P08,D08,1,1,1
20,-34.0,-7.0,53.0,1644845920.03125,P08,D08,1,1,1
21,-34.0,-7.0,54.0,1644845920.0625,P08,D08,1,1,1
22,-33.0,-7.0,53.0,1644845920.09375,P08,D08,1,1,1
23,-34.0,-7.0,53.0,1644845920.125,P08,D08,1,1,1
24,-34.0,-7.0,53.0,1644845920.15625,P08,D08,1,1,1
25,-34.0,-7.0,53.0,1644845920.1875,P08,D08,1,1,1
26,-34.0,-7.0,53.0,1644845920.21875,P08,D08,1,1,1
27,-34.0,-7.0,53.0,1644845920.25,P08,D08,1,1,1
28,-34.0,-7.0,53.0,1644845920.28125,P08,D08,1,1,1
29,-34.0,-7.0,53.0,1644845920.3125,P08,D08,1,1,1
30,-34.0,-7.0,53.0,1644845920.34375,P08,D08,1,1,1
31,-34.0,-7.0,53.0,1644845920.375,P08,D08,1,1,1
32,-34.0,-7.0,54.0,1644845920.40625,P08,D08,1,1,1
33,-33.0,-6.0,53.0,1644845920.4375,P08,D08,1,1,1
34,-33.0,-6.0,53.0,1644845920.46875,P08,D08,1,1,1
35,-34.0,-6.0,53.0,1644845920.5,P08,D08,1,1,1
36,-35.0,-6.0,53.0,1644845920.53125,P08,D08,1,1,1
37,-34.0,-7.0,53.0,1644845920.5625,P08,D08,1,1,1
38,-34.0,-7.0,54.0,1644845920.59375,P08,D08,1,1,1
39,-34.0,-6.0,53.0,1644845920.625,P08,D08,1,1,1
40,-34.0,-6.0,53.0,1644845920.65625,P08,D08,1,1,1
41,-34.0,-7.0,53.0,1644845920.6875,P08,D08,1,1,1
42,-34.0,-6.0,53.0,1644845920.71875,P08,D08,1,1,1
43,-34.0,-7.0,53.0,1644845920.75,P08,D08,1,1,1
44,-34.0,-7.0,53.0,1644845920.78125,P08,D08,1,1,1
45,-33.0,-7.0,53.0,1644845920.8125,P08,D08,1,1,1
46,-34.0,-7.0,53.0,1644845920.84375,P08,D08,1,1,1
47,-34.0,-7.0,53.0,1644845920.875,P08,D08,1,1,1
48,-34.0,-7.0,53.0,1644845920.90625,P08,D08,1,1,1
49,-34.0,-6.0,53.0,1644845920.9375,P08,D08,1,1,1
50,-34.0,-6.0,53.0,1644845920.96875,P08,D08,1,1,1
51,-35.0,-6.0,53.0,1644845921.0,P08,D08,1,1,1
52,-35.0,-7.0,53.0,1644845921.03125,P08,D08,1,1,1
53,-35.0,-7.0,52.0,1644845921.0625,P08,D08,1,1,1
54,-35.0,-7.0,53.0,1644845921.09375,P08,D08,1,1,1
55,-34.0,-7.0,53.0,1644845921.125,P08,D08,1,1,1
56,-34.0,-7.0,53.0,1644845921.15625,P08,D08,1,1,1
57,-34.0,-7.0,53.0,1644845921.1875,P08,D08,1,1,1
58,-34.0,-7.0,53.0,1644845921.21875,P08,D08,1,1,1
59,-33.0,-7.0,53.0,1644845921.25,P08,D08,1,1,1
60,-34.0,-7.0,53.0,1644845921.28125,P08,D08,1,1,1
61,-34.0,-7.0,53.0,1644845921.3125,P08,D08,1,1,1
62,-34.0,-7.0,53.0,1644845921.34375,P08,D08,1,1,1
63,-34.0,-7.0,53.0,1644845921.375,P08,D08,1,1,1
64,-34.0,-6.0,53.0,1644845921.40625,P08,D08,1,1,1
65,-34.0,-7.0,53.0,1644845921.4375,P08,D08,1,1,1
66,-34.0,-7.0,53.0,1644845921.46875,P08,D08,1,1,1
67,-34.0,-7.0,53.0,1644845921.5,P08,D08,1,1,1
68,-34.0,-7.0,53.0,1644845921.53125,P08,D08,1,1,1
69,-34.0,-7.0,53.0,1644845921.5625,P08,D08,1,1,1
70,-34.0,-7.0,53.0,1644845921.59375,P08,D08,1,1,1
71,-34.0,-7.0,53.0,1644845921.625,P08,D08,1,1,1
72,-34.0,-7.0,53.0,1644845921.65625,P08,D08,1,1,1
73,-34.0,-7.0,53.0,1644845921.6875,P08,D08,1,1,1
74,-34.0,-7.0,53.0,1644845921.71875,P08,D08,1,1,1
75,-34.0,-7.0,53.0,1644845921.75,P08,D08,1,1,1
76,-34.0,-7.0,53.0,1644845921.78125,P08,D08,1,1,1
77,-34.0,-7.0,53.0,1644845921.8125,P08,D08,1,1,1
78,-34.0,-7.0,53.0,1644845921.84375,P08,D08,1,1,1
79,-34.0,-7.0,53.0,1644845921.875,P08,D08,1,1,1
80,-34.0,-7.0,53.0,1644845921.90625,P08,D08,1,1,1
81,-34.0,-7.0,53.0,1644845921.9375,P08,D08,1,1,1
82,-34.0,-7.0,53.0,1644845921.96875,P08,D08,1,1,1
83,-34.0,-7.0,53.0,1644845922.0,P08,D08,1,1,1
84,-34.0,-7.0,53.0,1644845922.03125,P08,D08,1,1,1
85,-34.0,-6.0,53.0,1644845922.0625,P08,D08,1,1,1
86,-34.0,-7.0,53.0,1644845922.09375,P08,D08,1,1,1
87,-34.0,-7.0,53.0,1644845922.125,P08,D08,1,1,1
88,-34.0,-7.0,53.0,1644845922.15625,P08,D08,1,1,1
89,-34.0,-7.0,53.0,1644845922.1875,P08,D08,1,1,1
90,-34.0,-7.0,53.0,1644845922.21875,P08,D08,1,1,1
91,-34.0,-7.0,53.0,1644845922.25,P08,D08,1,1,1
92,-34.0,-7.0,53.0,1644845922.28125,P08,D08,1,1,1
93,-34.0,-7.0,53.0,1644845922.3125,P08,D08,1,1,1
94,-34.0,-7.0,53.0,1644845922.34375,P08,D08,1,1,1
95,-34.0,-7.0,53.0,1644845922.375,P08,D08,1,1,1
96,-34.0,-7.0,53.0,1644845922.40625,P08,D08,1,1,1
97,-34.0,-7.0,53.0,1644845922.4375,P08,D08,1,1,1
98,-34.0,-7.0,53.0,1644845922.46875,P08,D08,1,1,1
99,-34.0,-7.0,53.0,1644845922.5,P08,D08,1,1,1
100,-34.0,-7.0,53.0,1644845922.53125,P08,D08,1,1,1
101,-34.0,-7.0,53.0,1644845922.5625,P08,D08,1,1,1
102,-34.0,-7.0,53.0,1644845922.59375,P08,D08,1,1,1
103,-34.0,-7.0,53.0,1644845922.625,P08,D08,1,1,1
104,-34.0,-7.0,53.0,1644845922.65625,P08,D08,1,1,1
105,-34.0,-7.0,53.0,1644845922.6875,P08,D08,1,1,1
106,-34.0,-7.0,53.0,1644845922.71875,P08,D08,1,1,1
107,-34.0,-7.0,53.0,1644845922.75,P08,D08,1,1,1
108,-34.0,-7.0,53.0,1644845922.78125,P08,D08,1,1,1
109,-34.0,-7.0,53.0,1644845922.8125,P08,D08,1,1,1
110,-34.0,-6.0,53.0,1644845922.84375,P08,D08,1,1,1
111,-34.0,-7.0,53.0,1644845922.875,P08,D08,1,1,1
112,-34.0,-7.0,53.0,1644845922.90625,P08,D08,1,1,1
113,-33.0,-6.0,54.0,1644845922.9375,P08,D08,1,1,1
114,-34.0,-7.0,53.0,1644845922.96875,P08,D08,1,1,1
115,-33.0,-7.0,53.0,1644845923.0,P08,D08,1,1,1
116,-34.0,-7.0,53.0,1644845923.03125,P08,D08,1,1,1
117,-34.0,-7.0,53.0,1644845923.0625,P08,D08,1,1,1
118,-34.0,-7.0,53.0,1644845923.09375,P08,D08,1,1,1
119,-34.0,-6.0,53.0,1644845923.125,P08,D08,1,1,1
120,-34.0,-6.0,53.0,1644845923.15625,P08,D08,1,1,1
121,-34.0,-7.0,53.0,1644845923.1875,P08,D08,1,1,1
122,-34.0,-7.0,53.0,1644845923.21875,P08,D08,1,1,1
123,-34.0,-7.0,53.0,1644845923.25,P08,D08,1,1,1
124,-34.0,-7.0,53.0,1644845923.28125,P08,D08,1,1,1
125,-34.0,-6.0,53.0,1644845923.3125,P08,D08,1,1,1
126,-34.0,-6.0,53.0,1644845923.34375,P08,D08,1,1,1
127,-34.0,-7.0,53.0,1644845923.375,P08,D08,1,1,1
128,-33.0,-7.0,53.0,1644845923.40625,P08,D08,1,1,1
129,-34.0,-7.0,53.0,1644845923.4375,P08,D08,1,1,1
130,-34.0,-6.0,53.0,1644845923.46875,P08,D08,1,1,1
131,-34.0,-7.0,53.0,1644845923.5,P08,D08,1,1,1
132,-33.0,-6.0,53.0,1644845923.53125,P08,D08,1,1,1
133,-34.0,-6.0,53.0,1644845923.5625,P08,D08,1,1,1
134,-34.0,-7.0,53.0,1644845923.59375,P08,D08,1,1,1
135,-34.0,-7.0,53.0,1644845923.625,P08,D08,1,1,1
136,-34.0,-7.0,53.0,1644845923.65625,P08,D08,1,1,1
137,-34.0,-6.0,53.0,1644845923.6875,P08,D08,1,1,1
138,-34.0,-6.0,53.0,1644845923.71875,P08,D08,1,1,1
139,-35.0,-7.0,53.0,1644845923.75,P08,D08,1,1,1
140,-33.0,-7.0,53.0,1644845923.78125,P08,D08,1,1,1
141,-34.0,-7.0,53.0,1644845923.8125,P08,D08,1,1,1
142,-34.0,-6.0,53.0,1644845923.84375,P08,D08,1,1,1
143,-33.0,-7.0,53.0,1644845923.875,P08,D08,1,1,1
144,-34.0,-7.0,53.0,1644845923.90625,P08,D08,1,1,1
145,-34.0,-6.0,53.0,1644845923.9375,P08,D08,1,1,1
146,-34.0,-6.0,53.0,1644845923.96875,P08,D08,1,1,1
147,-34.0,-7.0,53.0,1644845924.0,P08,D08,1,1,1
148,-34.0,-7.0,53.0,1644845924.03125,P08,D08,1,1,1
149,-34.0,-6.0,54.0,1644845924.0625,P08,D08,1,1,1
150,-34.0,-6.0,53.0,1644845924.09375,P08,D08,1,1,1
151,-34.0,-6.0,53.0,1644845924.125,P08,D08,1,1,1
152,-34.0,-7.0,53.0,1644845924.15625,P08,D08,1,1,1
153,-34.0,-7.0,53.0,1644845924.1875,P08,D08,1,1,1
154,-34.0,-7.0,53.0,1644845924.21875,P08,D08,1,1,1
155,-34.0,-7.0,53.0,1644845924.25,P08,D08,1,1,1
156,-34.0,-6.0,53.0,1644845924.28125,P08,D08,1,1,1
157,-34.0,-6.0,53.0,1644845924.3125,P08,D08,1,1,1
158,-34.0,-6.0,53.0,1644845924.34375,P08,D08,1,1,1
159,-34.0,-6.0,53.0,1644845924.375,P08,D08,1,1,1
160,-34.0,-6.0,53.0,1644845924.40625,P08,D08,1,1,1
161,-34.0,-6.0,53.0,1644845924.4375,P08,D08,1,1,1
162,-34.0,-6.0,53.0,1644845924.46875,P08,D08,1,1,1
163,-34.0,-7.0,53.0,1644845924.5,P08,D08,1,1,1
164,-34.0,-6.0,53.0,1644845924.53125,P08,D08,1,1,1
165,-34.0,-6.0,53.0,1644845924.5625,P08,D08,1,1,1
166,-34.0,-6.0,53.0,1644845924.59375,P08,D08,1,1,1
167,-34.0,-6.0,53.0,1644845924.625,P08,D08,1,1,1
168,-34.0,-6.0,53.0,1644845924.65625,P08,D08,1,1,1
169,-34.0,-6.0,53.0,1644845924.6875,P08,D08,1,1,1
170,-33.0,-7.0,53.0,1644845924.71875,P08,D08,1,1,1
171,-33.0,-6.0,53.0,1644845924.75,P08,D08,1,1,1
172,-34.0,-6.0,53.0,1644845924.78125,P08,D08,1,1,1
173,-34.0,-7.0,53.0,1644845924.8125,P08,D08,1,1,1
174,-34.0,-7.0,53.0,1644845924.84375,P08,D08,1,1,1
175,-34.0,-6.0,53.0,1644845924.875,P08,D08,1,1,1
176,-34.0,-6.0,53.0,1644845924.90625,P08,D08,1,1,1
177,-34.0,-6.0,53.0,1644845924.9375,P08,D08,1,1,1
178,-34.0,-6.0,53.0,1644845924.96875,P08,D08,1,1,1
179,-34.0,-6.0,53.0,1644845925.0,P08,D08,1,1,1
180,-34.0,-6.0,53.0,1644845925.03125,P08,D08,1,1,1
181,-34.0,-6.0,53.0,1644845925.0625,P08,D08,1,1,1
182,-34.0,-6.0,53.0,1644845925.09375,P08,D08,1,1,1
183,-34.0,-6.0,53.0,1644845925.125,P08,D08,1,1,1
184,-34.0,-6.0,53.0,1644845925.15625,P08,D08,1,1,1
185,-34.0,-6.0,53.0,1644845925.1875,P08,D08,1,1,1
186,-34.0,-6.0,53.0,1644845925.21875,P08,D08,1,1,1
187,-34.0,-6.0,54.0,1644845925.25,P08,D08,1,1,1
188,-34.0,-6.0,53.0,1644845925.28125,P08,D08,1,1,1
189,-34.0,-6.0,53.0,1644845925.3125,P08,D08,1,1,1
190,-34.0,-6.0,53.0,1644845925.34375,P08,D08,1,1,1
191,-34.0,-6.0,53.0,1644845925.375,P08,D08,1,1,1
192,-34.0,-7.0,53.0,1644845925.40625,P08,D08,1,1,1
193,-34.0,-6.0,53.0,1644845925.4375,P08,D08,1,1,1
194,-34.0,-6.0,53.0,1644845925.46875,P08,D08,1,1,1
195,-34.0,-6.0,53.0,1644845925.5,P08,D08,1,1,1
196,-34.0,-6.0,53.0,1644845925.53125,P08,D08,1,1,1
197,-34.0,-6.0,53.0,1644845925.5625,P08,D08,1,1,1
198,-34.0,-6.0,53.0,1644845925.59375,P08,D08,1,1,1
199,-34.0,-6.0,53.0,1644845925.625,P08,D08,1,1,1
200,-34.0,-6.0,53.0,1644845925.65625,P08,D08,1,1,1
201,-34.0,-6.0,53.0,1644845925.6875,P08,D08,1,1,1
202,-34.0,-6.0,53.0,1644845925.71875,P08,D08,1,1,1
203,-34.0,-6.0,53.0,1644845925.75,P08,D08,1,1,1
204,-34.0,-6.0,53.0,1644845925.78125,P08,D08,1,1,1
205,-34.0,-6.0,53.0,1644845925.8125,P08,D08,1,1,1
206,-34.0,-6.0,53.0,1644845925.84375,P08,D08,1,1,1
207,-34.0,-6.0,53.0,1644845925.875,P08,D08,1,1,1
208,-34.0,-6.0,53.0,1644845925.90625,P08,D08,1,1,1
209,-34.0,-6.0,53.0,1644845925.9375,P08,D08,1,1,1
210,-34.0,-6.0,53.0,1644845925.96875,P08,D08,1,1,1
211,-34.0,-6.0,53.0,1644845926.0,P08,D08,1,1,1
212,-34.0,-6.0,53.0,1644845926.03125,P08,D08,1,1,1
213,-34.0,-6.0,53.0,1644845926.0625,P08,D08,1,1,1
214,-34.0,-6.0,53.0,1644845926.09375,P08,D08,1,1,1
215,-34.0,-6.0,53.0,1644845926.125,P08,D08,1,1,1
216,-34.0,-6.0,53.0,1644845926.15625,P08,D08,1,1,1
217,-34.0,-6.0,53.0,1644845926.1875,P08,D08,1,1,1
218,-34.0,-6.0,53.0,1644845926.21875,P08,D08,1,1,1
219,-34.0,-6.0,53.0,1644845926.25,P08,D08,1,1,1
220,-34.0,-6.0,53.0,1644845926.28125,P08,D08,1,1,1
221,-34.0,-6.0,53.0,1644845926.3125,P08,D08,1,1,1
222,-34.0,-6.0,53.0,1644845926.34375,P08,D08,1,1,1
223,-34.0,-6.0,53.0,1644845926.375,P08,D08,1,1,1
224,-34.0,-6.0,53.0,1644845926.40625,P08,D08,1,1,1
225,-34.0,-6.0,53.0,1644845926.4375,P08,D08,1,1,1
226,-34.0,-6.0,53.0,1644845926.46875,P08,D08,1,1,1
227,-34.0,-6.0,53.0,1644845926.5,P08,D08,1,1,1
228,-34.0,-6.0,53.0,1644845926.53125,P08,D08,1,1,1
229,-34.0,-6.0,53.0,1644845926.5625,P08,D08,1,1,1
230,-34.0,-6.0,54.0,1644845926.59375,P08,D08,1,1,1
231,-33.0,-6.0,53.0,1644845926.625,P08,D08,1,1,1
232,-34.0,-7.0,53.0,1644845926.65625,P08,D08,1,1,1
233,-34.0,-6.0,53.0,1644845926.6875,P08,D08,1,1,1
234,-34.0,-7.0,53.0,1644845926.71875,P08,D08,1,1,1
235,-33.0,-6.0,54.0,1644845926.75,P08,D08,1,1,1
236,-34.0,-6.0,54.0,1644845926.78125,P08,D08,1,1,1
237,-34.0,-6.0,53.0,1644845926.8125,P08,D08,1,1,1
238,-34.0,-6.0,53.0,1644845926.84375,P08,D08,1,1,1
239,-34.0,-6.0,53.0,1644845926.875,P08,D08,1,1,1
240,-34.0,-6.0,53.0,1644845926.90625,P08,D08,1,1,1
241,-34.0,-7.0,53.0,1644845926.9375,P08,D08,1,1,1
242,-33.0,-6.0,53.0,1644845926.96875,P08,D08,1,1,1
243,-33.0,-6.0,53.0,1644845927.0,P08,D08,1,1,1
244,-34.0,-6.0,53.0,1644845927.03125,P08,D08,1,1,1
245,-33.0,-6.0,54.0,1644845927.0625,P08,D08,1,1,1
246,-34.0,-7.0,53.0,1644845927.09375,P08,D08,1,1,1
247,-34.0,-6.0,53.0,1644845927.125,P08,D08,1,1,1
248,-33.0,-6.0,54.0,1644845927.15625,P08,D08,1,1,1
249,-34.0,-6.0,53.0,1644845927.1875,P08,D08,1,1,1
250,-34.0,-6.0,53.0,1644845927.21875,P08,D08,1,1,1
251,-34.0,-6.0,53.0,1644845927.25,P08,D08,1,1,1
252,-34.0,-6.0,53.0,1644845927.28125,P08,D08,1,1,1
253,-34.0,-6.0,54.0,1644845927.3125,P08,D08,1,1,1
254,-34.0,-6.0,53.0,1644845927.34375,P08,D08,1,1,1
255,-34.0,-6.0,53.0,1644845927.375,P08,D08,1,1,1
256,-33.0,-6.0,54.0,1644845927.40625,P08,D08,1,1,1
257,-33.0,-6.0,53.0,1644845927.4375,P08,D08,1,1,1
258,-34.0,-6.0,53.0,1644845927.46875,P08,D08,1,1,1
259,-34.0,-6.0,53.0,1644845927.5,P08,D08,1,1,1
260,-34.0,-6.0,53.0,1644845927.53125,P08,D08,1,1,1
261,-33.0,-7.0,53.0,1644845927.5625,P08,D08,1,1,1
262,-33.0,-6.0,53.0,1644845927.59375,P08,D08,1,1,1
263,-34.0,-6.0,53.0,1644845927.625,P08,D08,1,1,1
264,-34.0,-6.0,53.0,1644845927.65625,P08,D08,1,1,1
265,-33.0,-6.0,53.0,1644845927.6875,P08,D08,1,1,1
266,-33.0,-6.0,53.0,1644845927.71875,P08,D08,1,1,1
267,-34.0,-6.0,53.0,1644845927.75,P08,D08,1,1,1
268,-34.0,-6.0,53.0,1644845927.78125,P08,D08,1,1,1
269,-33.0,-6.0,53.0,1644845927.8125,P08,D08,1,1,1
270,-34.0,-6.0,53.0,1644845927.84375,P08,D08,1,1,1
271,-33.0,-6.0,54.0,1644845927.875,P08,D08,1,1,1
272,-33.0,-6.0,53.0,1644845927.90625,P08,D08,1,1,1
273,-34.0,-6.0,53.0,1644845927.9375,P08,D08,1,1,1
274,-34.0,-6.0,53.0,1644845927.96875,P08,D08,1,1,1
275,-34.0,-6.0,53.0,1644845928.0,P08,D08,1,1,1
276,-34.0,-6.0,53.0,1644845928.03125,P08,D08,1,1,1
277,-33.0,-6.0,53.0,1644845928.0625,P08,D08,1,1,1
278,-34.0,-6.0,54.0,1644845928.09375,P08,D08,1,1,1
279,-34.0,-7.0,53.0,1644845928.125,P08,D08,1,1,1
280,-34.0,-6.0,54.0,1644845928.15625,P08,D08,1,1,1
281,-33.0,-6.0,54.0,1644845928.1875,P08,D08,1,1,1
282,-33.0,-6.0,53.0,1644845928.21875,P08,D08,1,1,1
283,-33.0,-7.0,53.0,1644845928.25,P08,D08,1,1,1
284,-34.0,-7.0,53.0,1644845928.28125,P08,D08,1,1,1
285,-34.0,-7.0,53.0,1644845928.3125,P08,D08,1,1,1
286,-34.0,-7.0,53.0,1644845928.34375,P08,D08,1,1,1
287,-34.0,-6.0,53.0,1644845928.375,P08,D08,1,1,1
288,-33.0,-6.0,53.0,1644845928.40625,P08,D08,1,1,1
289,-34.0,-6.0,54.0,1644845928.4375,P08,D08,1,1,1
290,-33.0,-6.0,53.0,1644845928.46875,P08,D08,1,1,1
291,-33.0,-6.0,53.0,1644845928.5,P08,D08,1,1,1
292,-34.0,-6.0,53.0,1644845928.53125,P08,D08,1,1,1
293,-34.0,-6.0,53.0,1644845928.5625,P08,D08,1,1,1
294,-34.0,-7.0,53.0,1644845928.59375,P08,D08,1,1,1
295,-33.0,-7.0,53.0,1644845928.625,P08,D08,1,1,1
296,-34.0,-7.0,53.0,1644845928.65625,P08,D08,1,1,1
297,-34.0,-6.0,53.0,1644845928.6875,P08,D08,1,1,1
298,-34.0,-6.0,53.0,1644845928.71875,P08,D08,1,1,1
299,-33.0,-6.0,53.0,1644845928.75,P08,D08,1,1,1
300,-34.0,-7.0,53.0,1644845928.78125,P08,D08,1,1,1
301,-34.0,-6.0,53.0,1644845928.8125,P08,D08,1,1,1
302,-34.0,-7.0,53.0,1644845928.84375,P08,D08,1,1,1
303,-33.0,-6.0,53.0,1644845928.875,P08,D08,1,1,1
304,-33.0,-7.0,53.0,1644845928.90625,P08,D08,1,1,1
305,-34.0,-6.0,53.0,1644845928.9375,P08,D08,1,1,1
306,-34.0,-6.0,53.0,1644845928.96875,P08,D08,1,1,1
307,-33.0,-7.0,53.0,1644845929.0,P08,D08,1,1,1
308,-34.0,-6.0,53.0,1644845929.03125,P08,D08,1,1,1
309,-34.0,-6.0,53.0,1644845929.0625,P08,D08,1,1,1
310,-35.0,-7.0,53.0,1644845929.09375,P08,D08,1,1,1
311,-34.0,-7.0,53.0,1644845929.125,P08,D08,1,1,1
312,-34.0,-7.0,53.0,1644845929.15625,P08,D08,1,1,1
313,-34.0,-7.0,53.0,1644845929.1875,P08,D08,1,1,1
314,-34.0,-6.0,53.0,1644845929.21875,P08,D08,1,1,1
315,-33.0,-7.0,53.0,1644845929.25,P08,D08,1,1,1
316,-33.0,-7.0,53.0,1644845929.28125,P08,D08,1,1,1
317,-34.0,-6.0,53.0,1644845929.3125,P08,D08,1,1,1
318,-34.0,-7.0,53.0,1644845929.34375,P08,D08,1,1,1
319,-34.0,-7.0,53.0,1644845929.375,P08,D08,1,1,1
320,-34.0,-7.0,53.0,1644845929.40625,P08,D08,1,1,1
321,-34.0,-7.0,53.0,1644845929.4375,P08,D08,1,1,1
322,-34.0,-6.0,53.0,1644845929.46875,P08,D08,1,1,1
323,-34.0,-6.0,53.0,1644845929.5,P08,D08,1,1,1
324,-34.0,-7.0,53.0,1644845929.53125,P08,D08,1,1,1
325,-34.0,-7.0,53.0,1644845929.5625,P08,D08,1,1,1
326,-34.0,-7.0,53.0,1644845929.59375,P08,D08,1,1,1
327,-34.0,-7.0,53.0,1644845929.625,P08,D08,1,1,1
328,-34.0,-7.0,53.0,1644845929.65625,P08,D08,1,1,1
329,-34.0,-6.0,53.0,1644845929.6875,P08,D08,1,1,1
330,-34.0,-6.0,53.0,1644845929.71875,P08,D08,1,1,1
331,-34.0,-7.0,53.0,1644845929.75,P08,D08,1,1,1
332,-34.0,-7.0,53.0,1644845929.78125,P08,D08,1,1,1
333,-34.0,-7.0,53.0,1644845929.8125,P08,D08,1,1,1
334,-34.0,-7.0,53.0,1644845929.84375,P08,D08,1,1,1
335,-34.0,-7.0,53.0,1644845929.875,P08,D08,1,1,1
336,-34.0,-6.0,53.0,1644845929.90625,P08,D08,1,1,1
337,-34.0,-7.0,53.0,1644845929.9375,P08,D08,1,1,1
338,-34.0,-7.0,53.0,1644845929.96875,P08,D08,1,1,1
339,-34.0,-7.0,53.0,1644845930.0,P08,D08,1,1,1
340,-34.0,-7.0,53.0,1644845930.03125,P08,D08,1,1,1
341,-34.0,-7.0,53.0,1644845930.0625,P08,D08,1,1,1
342,-34.0,-6.0,53.0,1644845930.09375,P08,D08,1,1,1
343,-34.0,-7.0,53.0,1644845930.125,P08,D08,1,1,1
344,-34.0,-7.0,53.0,1644845930.15625,P08,D08,1,1,1
345,-34.0,-7.0,53.0,1644845930.1875,P08,D08,1,1,1
346,-34.0,-6.0,53.0,1644845930.21875,P08,D08,1,1,1
347,-34.0,-7.0,53.0,1644845930.25,P08,D08,1,1,1
348,-34.0,-7.0,53.0,1644845930.28125,P08,D08,1,1,1
349,-34.0,-6.0,53.0,1644845930.3125,P08,D08,1,1,1
350,-34.0,-6.0,53.0,1644845930.34375,P08,D08,1,1,1
351,-33.0,-7.0,53.0,1644845930.375,P08,D08,1,1,1
352,-34.0,-7.0,53.0,1644845930.40625,P08,D08,1,1,1
353,-34.0,-7.0,53.0,1644845930.4375,P08,D08,1,1,1
354,-34.0,-7.0,53.0,1644845930.46875,P08,D08,1,1,1
355,-33.0,-7.0,53.0,1644845930.5,P08,D08,1,1,1
356,-34.0,-7.0,53.0,1644845930.53125,P08,D08,1,1,1
357,-34.0,-6.0,53.0,1644845930.5625,P08,D08,1,1,1
358,-34.0,-7.0,53.0,1644845930.59375,P08,D08,1,1,1
359,-33.0,-6.0,53.0,1644845930.625,P08,D08,1,1,1
360,-34.0,-7.0,54.0,1644845930.65625,P08,D08,1,1,1
361,-33.0,-7.0,54.0,1644845930.6875,P08,D08,1,1,1
362,-33.0,-7.0,53.0,1644845930.71875,P08,D08,1,1,1
363,-34.0,-7.0,53.0,1644845930.75,P08,D08,1,1,1
364,-34.0,-7.0,53.0,1644845930.78125,P08,D08,1,1,1
365,-34.0,-7.0,53.0,1644845930.8125,P08,D08,1,1,1
366,-34.0,-7.0,53.0,1644845930.84375,P08,D08,1,1,1
367,-34.0,-6.0,53.0,1644845930.875,P08,D08,1,1,1
368,-34.0,-6.0,53.0,1644845930.90625,P08,D08,1,1,1
369,-34.0,-7.0,53.0,1644845930.9375,P08,D08,1,1,1
370,-34.0,-7.0,53.0,1644845930.96875,P08,D08,1,1,1
371,-34.0,-6.0,53.0,1644845931.0,P08,D08,1,1,1
372,-33.0,-7.0,53.0,1644845931.03125,P08,D08,1,1,1
373,-34.0,-7.0,53.0,1644845931.0625,P08,D08,1,1,1
374,-34.0,-7.0,53.0,1644845931.09375,P08,D08,1,1,1
375,-34.0,-7.0,53.0,1644845931.125,P08,D08,1,1,1
376,-34.0,-7.0,53.0,1644845931.15625,P08,D08,1,1,1
377,-33.0,-7.0,53.0,1644845931.1875,P08,D08,1,1,1
378,-34.0,-6.0,53.0,1644845931.21875,P08,D08,1,1,1
379,-33.0,-7.0,53.0,1644845931.25,P08,D08,1,1,1
380,-33.0,-7.0,53.0,1644845931.28125,P08,D08,1,1,1
381,-34.0,-7.0,53.0,1644845931.3125,P08,D08,1,1,1
382,-34.0,-7.0,53.0,1644845931.34375,P08,D08,1,1,1
383,-34.0,-6.0,53.0,1644845931.375,P08,D08,1,1,1
384,-33.0,-7.0,53.0,1644845931.40625,P08,D08,1,1,1
385,-34.0,-7.0,53.0,1644845931.4375,P08,D08,1,1,1
386,-34.0,-6.0,53.0,1644845931.46875,P08,D08,1,1,1
387,-34.0,-6.0,53.0,1644845931.5,P08,D08,1,1,1
388,-34.0,-7.0,53.0,1644845931.53125,P08,D08,1,1,1
389,-34.0,-7.0,53.0,1644845931.5625,P08,D08,1,1,1
390,-34.0,-7.0,53.0,1644845931.59375,P08,D08,1,1,1
391,-34.0,-7.0,53.0,1644845931.625,P08,D08,1,1,1
392,-34.0,-6.0,53.0,1644845931.65625,P08,D08,1,1,1
393,-34.0,-7.0,53.0,1644845931.6875,P08,D08,1,1,1
394,-34.0,-6.0,53.0,1644845931.71875,P08,D08,1,1,1
395,-34.0,-6.0,53.0,1644845931.75,P08,D08,1,1,1
396,-33.0,-7.0,53.0,1644845931.78125,P08,D08,1,1,1
397,-34.0,-7.0,53.0,1644845931.8125,P08,D08,1,1,1
398,-34.0,-6.0,53.0,1644845931.84375,P08,D08,1,1,1
399,-34.0,-7.0,53.0,1644845931.875,P08,D08,1,1,1
400,-33.0,-7.0,53.0,1644845931.90625,P08,D08,1,1,1
401,-33.0,-6.0,53.0,1644845931.9375,P08,D08,1,1,1
402,-34.0,-6.0,53.0,1644845931.96875,P08,D08,1,1,1
403,-34.0,-6.0,53.0,1644845932.0,P08,D08,1,1,1
404,-34.0,-7.0,53.0,1644845932.03125,P08,D08,1,1,1
405,-34.0,-7.0,53.0,1644845932.0625,P08,D08,1,1,1
406,-34.0,-6.0,53.0,1644845932.09375,P08,D08,1,1,1
407,-34.0,-7.0,53.0,1644845932.125,P08,D08,1,1,1
408,-34.0,-6.0,53.0,1644845932.15625,P08,D08,1,1,1
409,-34.0,-6.0,53.0,1644845932.1875,P08,D08,1,1,1
410,-34.0,-6.0,53.0,1644845932.21875,P08,D08,1,1,1
411,-34.0,-7.0,53.0,1644845932.25,P08,D08,1,1,1
412,-34.0,-6.0,53.0,1644845932.28125,P08,D08,1,1,1
413,-34.0,-6.0,53.0,1644845932.3125,P08,D08,1,1,1
414,-34.0,-6.0,53.0,1644845932.34375,P08,D08,1,1,1
415,-34.0,-6.0,53.0,1644845932.375,P08,D08,1,1,1
416,-34.0,-6.0,53.0,1644845932.40625,P08,D08,1,1,1
417,-34.0,-6.0,53.0,1644845932.4375,P08,D08,1,1,1
418,-34.0,-6.0,53.0,1644845932.46875,P08,D08,1,1,1
419,-34.0,-6.0,53.0,1644845932.5,P08,D08,1,1,1
420,-34.0,-6.0,53.0,1644845932.53125,P08,D08,1,1,1
421,-34.0,-6.0,53.0,1644845932.5625,P08,D08,1,1,1
422,-34.0,-6.0,53.0,1644845932.59375,P08,D08,1,1,1
423,-34.0,-6.0,53.0,1644845932.625,P08,D08,1,1,1
424,-34.0,-6.0,53.0,1644845932.65625,P08,D08,1,1,1
425,-34.0,-6.0,53.0,1644845932.6875,P08,D08,1,1,1
426,-34.0,-6.0,53.0,1644845932.71875,P08,D08,1,1,1
427,-34.0,-6.0,53.0,1644845932.75,P08,D08,1,1,1
428,-34.0,-6.0,53.0,1644845932.78125,P08,D08,1,1,1
429,-34.0,-6.0,53.0,1644845932.8125,P08,D08,1,1,1
430,-34.0,-6.0,53.0,1644845932.84375,P08,D08,1,1,1
431,-34.0,-6.0,53.0,1644845932.875,P08,D08,1,1,1
432,-34.0,-6.0,53.0,1644845932.90625,P08,D08,1,1,1
433,-34.0,-6.0,53.0,1644845932.9375,P08,D08,1,1,1
434,-34.0,-7.0,53.0,1644845932.96875,P08,D08,1,1,1
435,-34.0,-6.0,53.0,1644845933.0,P08,D08,1,1,1
436,-34.0,-6.0,53.0,1644845933.03125,P08,D08,1,1,1
437,-34.0,-6.0,53.0,1644845933.0625,P08,D08,1,1,1
438,-34.0,-6.0,53.0,1644845933.09375,P08,D08,1,1,1
439,-34.0,-6.0,53.0,1644845933.125,P08,D08,1,1,1
440,-34.0,-6.0,53.0,1644845933.15625,P08,D08,1,1,1
441,-34.0,-6.0,53.0,1644845933.1875,P08,D08,1,1,1
442,-34.0,-6.0,53.0,1644845933.21875,P08,D08,1,1,1
443,-34.0,-6.0,53.0,1644845933.25,P08,D08,1,1,1
444,-34.0,-6.0,53.0,1644845933.28125,P08,D08,1,1,1
445,-34.0,-6.0,53.0,1644845933.3125,P08,D08,1,1,1
446,-34.0,-6.0,53.0,1644845933.34375,P08,D08,1,1,1
447,-34.0,-6.0,53.0,1644845933.375,P08,D08,1,1,1
448,-34.0,-6.0,53.0,1644845933.40625,P08,D08,1,1,1
449,-34.0,-6.0,53.0,1644845933.4375,P08,D08,1,1,1
450,-34.0,-6.0,53.0,1644845933.46875,P08,D08,1,1,1
451,-34.0,-6.0,53.0,1644845933.5,P08,D08,1,1,1
452,-34.0,-6.0,53.0,1644845933.53125,P08,D08,1,1,1
453,-34.0,-6.0,53.0,1644845933.5625,P08,D08,1,1,1
454,-34.0,-6.0,53.0,1644845933.59375,P08,D08,1,1,1
455,-34.0,-6.0,53.0,1644845933.625,P08,D08,1,1,1
456,-34.0,-6.0,53.0,1644845933.65625,P08,D08,1,1,1
457,-34.0,-6.0,53.0,1644845933.6875,P08,D08,1,1,1
458,-34.0,-6.0,53.0,1644845933.71875,P08,D08,1,1,1
459,-34.0,-6.0,53.0,1644845933.75,P08,D08,1,1,1
460,-34.0,-6.0,53.0,1644845933.78125,P08,D08,1,1,1
461,-34.0,-5.0,53.0,1644845933.8125,P08,D08,1,1,1
462,-34.0,-6.0,53.0,1644845933.84375,P08,D08,1,1,1
463,-34.0,-6.0,53.0,1644845933.875,P08,D08,1,1,1
464,-34.0,-6.0,53.0,1644845933.90625,P08,D08,1,1,1
465,-33.0,-6.0,53.0,1644845933.9375,P08,D08,1,1,1
466,-34.0,-6.0,53.0,1644845933.96875,P08,D08,1,1,1
467,-34.0,-6.0,53.0,1644845934.0,P08,D08,1,1,1
468,-34.0,-6.0,53.0,1644845934.03125,P08,D08,1,1,1
469,-34.0,-6.0,53.0,1644845934.0625,P08,D08,1,1,1
470,-33.0,-6.0,53.0,1644845934.09375,P08,D08,1,1,1
471,-34.0,-6.0,53.0,1644845934.125,P08,D08,1,1,1
472,-34.0,-6.0,53.0,1644845934.15625,P08,D08,1,1,1
473,-34.0,-6.0,53.0,1644845934.1875,P08,D08,1,1,1
474,-34.0,-6.0,53.0,1644845934.21875,P08,D08,1,1,1
475,-34.0,-6.0,53.0,1644845934.25,P08,D08,1,1,1
476,-34.0,-6.0,53.0,1644845934.28125,P08,D08,1,1,1
477,-34.0,-6.0,53.0,1644845934.3125,P08,D08,1,1,1
478,-34.0,-6.0,53.0,1644845934.34375,P08,D08,1,1,1
479,-33.0,-6.0,53.0,1644845934.375,P08,D08,1,1,1
480,-34.0,-6.0,53.0,1644845934.40625,P08,D08,1,1,1
481,-34.0,-6.0,53.0,1644845934.4375,P08,D08,1,1,1
482,-34.0,-6.0,53.0,1644845934.46875,P08,D08,1,1,1
483,-34.0,-7.0,53.0,1644845934.5,P08,D08,1,1,1
484,-34.0,-6.0,53.0,1644845934.53125,P08,D08,1,1,1
485,-34.0,-6.0,53.0,1644845934.5625,P08,D08,1,1,1
486,-34.0,-6.0,53.0,1644845934.59375,P08,D08,1,1,1
487,-34.0,-6.0,53.0,1644845934.625,P08,D08,1,1,1
488,-34.0,-6.0,53.0,1644845934.65625,P08,D08,1,1,1
489,-34.0,-6.0,53.0,1644845934.6875,P08,D08,1,1,1
490,-34.0,-7.0,53.0,1644845934.71875,P08,D08,1,1,1
491,-34.0,-6.0,53.0,1644845934.75,P08,D08,1,1,1
492,-34.0,-6.0,53.0,1644845934.78125,P08,D08,1,1,1
493,-34.0,-6.0,53.0,1644845934.8125,P08,D08,1,1,1
494,-34.0,-6.0,53.0,1644845934.84375,P08,D08,1,1,1
495,-34.0,-6.0,53.0,1644845934.875,P08,D08,1,1,1
496,-34.0,-6.0,53.0,1644845934.90625,P08,D08,1,1,1
497,-34.0,-6.0,53.0,1644845934.9375,P08,D08,1,1,1
498,-34.0,-6.0,53.0,1644845934.96875,P08,D08,1,1,1
499,-34.0,-6.0,53.0,1644845935.0,P08,D08,1,1,1
500,-34.0,-7.0,53.0,1644845935.03125,P08,D08,1,1,1
501,-34.0,-6.0,53.0,1644845935.0625,P08,D08,1,1,1
502,-34.0,-6.0,53.0,1644845935.09375,P08,D08,1,1,1
503,-34.0,-6.0,53.0,1644845935.125,P08,D08,1,1,1
504,-34.0,-6.0,53.0,1644845935.15625,P08,D08,1,1,1
505,-34.0,-6.0,53.0,1644845935.1875,P08,D08,1,1,1
506,-34.0,-6.0,53.0,1644845935.21875,P08,D08,1,1,1
507,-34.0,-6.0,53.0,1644845935.25,P08,D08,1,1,1
508,-34.0,-6.0,53.0,1644845935.28125,P08,D08,1,1,1
509,-34.0,-7.0,53.0,1644845935.3125,P08,D08,1,1,1
510,-34.0,-7.0,53.0,1644845935.34375,P08,D08,1,1,1
511,-34.0,-6.0,53.0,1644845935.375,P08,D08,1,1,1
512,-34.0,-6.0,53.0,1644845935.40625,P08,D08,1,1,1
513,-34.0,-6.0,53.0,1644845935.4375,P08,D08,1,1,1
514,-34.0,-6.0,53.0,1644845935.46875,P08,D08,1,1,1
515,-34.0,-7.0,53.0,1644845935.5,P08,D08,1,1,1
516,-34.0,-6.0,53.0,1644845935.53125,P08,D08,1,1,1
517,-34.0,-6.0,53.0,1644845935.5625,P08,D08,1,1,1
518,-34.0,-6.0,53.0,1644845935.59375,P08,D08,1,1,1
519,-34.0,-6.0,53.0,1644845935.625,P08,D08,1,1,1
520,-34.0,-6.0,53.0,1644845935.65625,P08,D08,1,1,1
521,-34.0,-7.0,53.0,1644845935.6875,P08,D08,1,1,1
522,-34.0,-6.0,53.0,1644845935.71875,P08,D08,1,1,1
523,-34.0,-6.0,53.0,1644845935.75,P08,D08,1,1,1
524,-34.0,-6.0,53.0,1644845935.78125,P08,D08,1,1,1
525,-34.0,-6.0,53.0,1644845935.8125,P08,D08,1,1,1
526,-34.0,-7.0,53.0,1644845935.84375,P08,D08,1,1,1
527,-34.0,-6.0,53.0,1644845935.875,P08,D08,1,1,1
528,-34.0,-6.0,53.0,1644845935.90625,P08,D08,1,1,1
529,-34.0,-7.0,53.0,1644845935.9375,P08,D08,1,1,1
530,-34.0,-6.0,53.0,1644845935.96875,P08,D08,1,1,1
531,-34.0,-7.0,53.0,1644845936.0,P08,D08,1,1,1
532,-34.0,-7.0,53.0,1644845936.03125,P08,D08,1,1,1
533,-34.0,-6.0,53.0,1644845936.0625,P08,D08,1,1,1
534,-34.0,-6.0,53.0,1644845936.09375,P08,D08,1,1,1
535,-34.0,-7.0,53.0,1644845936.125,P08,D08,1,1,1
536,-34.0,-7.0,53.0,1644845936.15625,P08,D08,1,1,1
537,-34.0,-7.0,53.0,1644845936.1875,P08,D08,1,1,1
538,-34.0,-7.0,53.0,1644845936.21875,P08,D08,1,1,1
539,-34.0,-6.0,53.0,1644845936.25,P08,D08,1,1,1
540,-34.0,-7.0,53.0,1644845936.28125,P08,D08,1,1,1
541,-34.0,-6.0,53.0,1644845936.3125,P08,D08,1,1,1
542,-34.0,-7.0,53.0,1644845936.34375,P08,D08,1,1,1
543,-34.0,-7.0,53.0,1644845936.375,P08,D08,1,1,1
544,-33.0,-7.0,53.0,1644845936.40625,P08,D08,1,1,1
545,-34.0,-6.0,53.0,1644845936.4375,P08,D08,1,1,1
546,-34.0,-6.0,53.0,1644845936.46875,P08,D08,1,1,1
547,-34.0,-6.0,53.0,1644845936.5,P08,D08,1,1,1
548,-34.0,-6.0,53.0,1644845936.53125,P08,D08,1,1,1
549,-34.0,-6.0,53.0,1644845936.5625,P08,D08,1,1,1
550,-34.0,-7.0,53.0,1644845936.59375,P08,D08,1,1,1
551,-34.0,-6.0,53.0,1644845936.625,P08,D08,1,1,1
552,-34.0,-6.0,53.0,1644845936.65625,P08,D08,1,1,1
553,-34.0,-6.0,53.0,1644845936.6875,P08,D08,1,1,1
554,-34.0,-7.0,53.0,1644845936.71875,P08,D08,1,1,1
555,-34.0,-6.0,53.0,1644845936.75,P08,D08,1,1,1
556,-34.0,-6.0,53.0,1644845936.78125,P08,D08,1,1,1
557,-34.0,-6.0,53.0,1644845936.8125,P08,D08,1,1,1
558,-34.0,-7.0,53.0,1644845936.84375,P08,D08,1,1,1
559,-34.0,-6.0,53.0,1644845936.875,P08,D08,1,1,1
560,-34.0,-6.0,53.0,1644845936.90625,P08,D08,1,1,1
561,-34.0,-6.0,53.0,1644845936.9375,P08,D08,1,1,1
562,-34.0,-6.0,53.0,1644845936.96875,P08,D08,1,1,1
563,-33.0,-6.0,53.0,1644845937.0,P08,D08,1,1,1
564,-33.0,-6.0,53.0,1644845937.03125,P08,D08,1,1,1
565,-34.0,-6.0,53.0,1644845937.0625,P08,D08,1,1,1
566,-34.0,-6.0,53.0,1644845937.09375,P08,D08,1,1,1
567,-34.0,-6.0,53.0,1644845937.125,P08,D08,1,1,1
568,-33.0,-6.0,53.0,1644845937.15625,P08,D08,1,1,1
569,-34.0,-6.0,53.0,1644845937.1875,P08,D08,1,1,1
570,-34.0,-6.0,54.0,1644845937.21875,P08,D08,1,1,1
571,-33.0,-6.0,53.0,1644845937.25,P08,D08,1,1,1
572,-34.0,-7.0,53.0,1644845937.28125,P08,D08,1,1,1
573,-34.0,-6.0,53.0,1644845937.3125,P08,D08,1,1,1
574,-34.0,-6.0,53.0,1644845937.34375,P08,D08,1,1,1
575,-34.0,-7.0,53.0,1644845937.375,P08,D08,1,1,1
576,-34.0,-6.0,53.0,1644845937.40625,P08,D08,1,1,1
577,-34.0,-6.0,53.0,1644845937.4375,P08,D08,1,1,1
578,-34.0,-7.0,53.0,1644845937.46875,P08,D08,1,1,1
579,-34.0,-7.0,53.0,1644845937.5,P08,D08,1,1,1
580,-34.0,-6.0,53.0,1644845937.53125,P08,D08,1,1,1
581,-34.0,-6.0,53.0,1644845937.5625,P08,D08,1,1,1
582,-34.0,-6.0,53.0,1644845937.59375,P08,D08,1,1,1
583,-34.0,-6.0,53.0,1644845937.625,P08,D08,1,1,1
584,-34.0,-6.0,53.0,1644845937.65625,P08,D08,1,1,1
585,-34.0,-6.0,53.0,1644845937.6875,P08,D08,1,1,1
586,-34.0,-6.0,53.0,1644845937.71875,P08,D08,1,1,1
587,-34.0,-6.0,53.0,1644845937.75,P08,D08,1,1,1
588,-34.0,-7.0,53.0,1644845937.78125,P08,D08,1,1,1
589,-34.0,-6.0,53.0,1644845937.8125,P08,D08,1,1,1
590,-34.0,-6.0,53.0,1644845937.84375,P08,D08,1,1,1
591,-34.0,-6.0,53.0,1644845937.875,P08,D08,1,1,1
592,-34.0,-6.0,53.0,1644845937.90625,P08,D08,1,1,1
593,-34.0,-7.0,53.0,1644845937.9375,P08,D08,1,1,1
594,-34.0,-6.0,53.0,1644845937.96875,P08,D08,1,1,1
595,-34.0,-6.0,53.0,1644845938.0,P08,D08,1,1,1
596,-34.0,-6.0,53.0,1644845938.03125,P08,D08,1,1,1
597,-34.0,-6.0,53.0,1644845938.0625,P08,D08,1,1,1
598,-34.0,-6.0,53.0,1644845938.09375,P08,D08,1,1,1
599,-34.0,-7.0,53.0,1644845938.125,P08,D08,1,1,1
600,-34.0,-6.0,53.0,1644845938.15625,P08,D08,1,1,1
601,-34.0,-7.0,53.0,1644845938.1875,P08,D08,1,1,1
602,-34.0,-6.0,53.0,1644845938.21875,P08,D08,1,1,1
603,-34.0,-6.0,53.0,1644845938.25,P08,D08,1,1,1
604,-34.0,-6.0,53.0,1644845938.28125,P08,D08,1,1,1
605,-34.0,-6.0,53.0,1644845938.3125,P08,D08,1,1,1
606,-34.0,-6.0,53.0,1644845938.34375,P08,D08,1,1,1
607,-34.0,-6.0,53.0,1644845938.375,P08,D08,1,1,1
608,-34.0,-6.0,53.0,1644845938.40625,P08,D08,1,1,1
609,-34.0,-6.0,53.0,1644845938.4375,P08,D08,1,1,1
610,-34.0,-6.0,53.0,1644845938.46875,P08,D08,1,1,1
611,-34.0,-6.0,53.0,1644845938.5,P08,D08,1,1,1
612,-34.0,-6.0,53.0,1644845938.53125,P08,D08,1,1,1
613,-34.0,-7.0,53.0,1644845938.5625,P08,D08,1,1,1
614,-34.0,-6.0,53.0,1644845938.59375,P08,D08,1,1,1
615,-34.0,-6.0,53.0,1644845938.625,P08,D08,1,1,1
616,-34.0,-6.0,53.0,1644845938.65625,P08,D08,1,1,1
617,-34.0,-6.0,53.0,1644845938.6875,P08,D08,1,1,1
618,-34.0,-6.0,53.0,1644845938.71875,P08,D08,1,1,1
619,-34.0,-6.0,53.0,1644845938.75,P08,D08,1,1,1
620,-34.0,-6.0,53.0,1644845938.78125,P08,D08,1,1,1
621,-34.0,-6.0,53.0,1644845938.8125,P08,D08,1,1,1
622,-34.0,-6.0,53.0,1644845938.84375,P08,D08,1,1,1
623,-34.0,-6.0,53.0,1644845938.875,P08,D08,1,1,1
624,-34.0,-6.0,53.0,1644845938.90625,P08,D08,1,1,1
625,-34.0,-6.0,53.0,1644845938.9375,P08,D08,1,1,1
626,-34.0,-6.0,53.0,1644845938.96875,P08,D08,1,1,1
627,-34.0,-6.0,53.0,1644845939.0,P08,D08,1,1,1
628,-34.0,-6.0,53.0,1644845939.03125,P08,D08,1,1,1
629,-34.0,-6.0,53.0,1644845939.0625,P08,D08,1,1,1
630,-34.0,-6.0,53.0,1644845939.09375,P08,D08,1,1,1
631,-34.0,-6.0,53.0,1644845939.125,P08,D08,1,1,1
632,-34.0,-6.0,53.0,1644845939.15625,P08,D08,1,1,1
633,-34.0,-6.0,53.0,1644845939.1875,P08,D08,1,1,1
634,-34.0,-6.0,53.0,1644845939.21875,P08,D08,1,1,1
635,-34.0,-6.0,53.0,1644845939.25,P08,D08,1,1,1
636,-34.0,-6.0,53.0,1644845939.28125,P08,D08,1,1,1
637,-34.0,-6.0,53.0,1644845939.3125,P08,D08,1,1,1
638,-34.0,-6.0,53.0,1644845939.34375,P08,D08,1,1,1
639,-34.0,-6.0,53.0,1644845939.375,P08,D08,1,1,1
640,-34.0,-6.0,53.0,1644845939.40625,P08,D08,1,1,1
641,-34.0,-6.0,53.0,1644845939.4375,P08,D08,1,1,1
642,-34.0,-6.0,53.0,1644845939.46875,P08,D08,1,1,1
643,-34.0,-6.0,53.0,1644845939.5,P08,D08,1,1,1
644,-34.0,-6.0,53.0,1644845939.53125,P08,D08,1,1,1
645,-34.0,-6.0,53.0,1644845939.5625,P08,D08,1,1,1
646,-34.0,-6.0,53.0,1644845939.59375,P08,D08,1,1,1
647,-34.0,-6.0,53.0,1644845939.625,P08,D08,1,1,1
648,-34.0,-6.0,53.0,1644845939.65625,P08,D08,1,1,1
649,-33.0,-6.0,54.0,1644845939.6875,P08,D08,1,1,1
650,-34.0,-6.0,53.0,1644845939.71875,P08,D08,1,1,1
651,-34.0,-6.0,53.0,1644845939.75,P08,D08,1,1,1
652,-34.0,-6.0,53.0,1644845939.78125,P08,D08,1,1,1
653,-34.0,-6.0,54.0,1644845939.8125,P08,D08,1,1,1
654,-34.0,-6.0,53.0,1644845939.84375,P08,D08,1,1,1
655,-34.0,-6.0,53.0,1644845939.875,P08,D08,1,1,1
656,-34.0,-6.0,53.0,1644845939.90625,P08,D08,1,1,1
657,-34.0,-6.0,53.0,1644845939.9375,P08,D08,1,1,1
658,-33.0,-6.0,53.0,1644845939.96875,P08,D08,1,1,1
659,-34.0,-6.0,53.0,1644845940.0,P08,D08,1,1,1
660,-34.0,-6.0,53.0,1644845940.03125,P08,D08,1,1,1
661,-34.0,-6.0,53.0,1644845940.0625,P08,D08,1,1,1
662,-34.0,-6.0,53.0,1644845940.09375,P08,D08,1,1,1
663,-34.0,-6.0,53.0,1644845940.125,P08,D08,1,1,1
664,-32.0,-6.0,54.0,1644845940.15625,P08,D08,1,1,1
665,-33.0,-6.0,54.0,1644845940.1875,P08,D08,1,1,1
666,-33.0,-6.0,53.0,1644845940.21875,P08,D08,1,1,1
667,-34.0,-6.0,53.0,1644845940.25,P08,D08,1,1,1
668,-34.0,-6.0,53.0,1644845940.28125,P08,D08,1,1,1
669,-34.0,-6.0,53.0,1644845940.3125,P08,D08,1,1,1
670,-34.0,-6.0,53.0,1644845940.34375,P08,D08,1,1,1
671,-34.0,-6.0,53.0,1644845940.375,P08,D08,1,1,1
672,-34.0,-6.0,54.0,1644845940.40625,P08,D08,1,1,1
673,-34.0,-6.0,53.0,1644845940.4375,P08,D08,1,1,1
674,-34.0,-6.0,53.0,1644845940.46875,P08,D08,1,1,1
675,-34.0,-6.0,53.0,1644845940.5,P08,D08,1,1,1
676,-34.0,-7.0,53.0,1644845940.53125,P08,D08,1,1,1
677,-34.0,-6.0,53.0,1644845940.5625,P08,D08,1,1,1
678,-33.0,-6.0,53.0,1644845940.59375,P08,D08,1,1,1
679,-34.0,-6.0,53.0,1644845940.625,P08,D08,1,1,1
680,-34.0,-6.0,53.0,1644845940.65625,P08,D08,1,1,1
681,-34.0,-6.0,53.0,1644845940.6875,P08,D08,1,1,1
682,-34.0,-6.0,53.0,1644845940.71875,P08,D08,1,1,1
683,-34.0,-6.0,53.0,1644845940.75,P08,D08,1,1,1
684,-34.0,-6.0,53.0,1644845940.78125,P08,D08,1,1,1
685,-34.0,-6.0,53.0,1644845940.8125,P08,D08,1,1,1
686,-34.0,-6.0,53.0,1644845940.84375,P08,D08,1,1,1
687,-34.0,-6.0,53.0,1644845940.875,P08,D08,1,1,1
688,-34.0,-6.0,53.0,1644845940.90625,P08,D08,1,1,1
689,-34.0,-6.0,53.0,1644845940.9375,P08,D08,1,1,1
690,-34.0,-6.0,53.0,1644845940.96875,P08,D08,1,1,1
691,-34.0,-6.0,53.0,1644845941.0,P08,D08,1,1,1
692,-34.0,-6.0,53.0,1644845941.03125,P08,D08,1,1,1
693,-33.0,-6.0,53.0,1644845941.0625,P08,D08,1,1,1
694,-34.0,-6.0,53.0,1644845941.09375,P08,D08,1,1,1
695,-34.0,-6.0,53.0,1644845941.125,P08,D08,1,1,1
696,-34.0,-6.0,53.0,1644845941.15625,P08,D08,1,1,1
697,-34.0,-6.0,53.0,1644845941.1875,P08,D08,1,1,1
698,-34.0,-6.0,53.0,1644845941.21875,P08,D08,1,1,1
699,-34.0,-6.0,53.0,1644845941.25,P08,D08,1,1,1
700,-34.0,-6.0,53.0,1644845941.28125,P08,D08,1,1,1
701,-34.0,-6.0,53.0,1644845941.3125,P08,D08,1,1,1
702,-34.0,-6.0,53.0,1644845941.34375,P08,D08,1,1,1
703,-34.0,-6.0,53.0,1644845941.375,P08,D08,1,1,1
704,-34.0,-6.0,53.0,1644845941.40625,P08,D08,1,1,1
705,-34.0,-6.0,53.0,1644845941.4375,P08,D08,1,1,1
706,-34.0,-6.0,53.0,1644845941.46875,P08,D08,1,1,1
707,-34.0,-6.0,53.0,1644845941.5,P08,D08,1,1,1
708,-34.0,-6.0,53.0,1644845941.53125,P08,D08,1,1,1
709,-34.0,-6.0,53.0,1644845941.5625,P08,D08,1,1,1
710,-34.0,-6.0,53.0,1644845941.59375,P08,D08,1,1,1
711,-34.0,-6.0,53.0,1644845941.625,P08,D08,1,1,1
712,-34.0,-6.0,53.0,1644845941.65625,P08,D08,1,1,1
713,-33.0,-6.0,53.0,1644845941.6875,P08,D08,1,1,1
714,-34.0,-6.0,53.0,1644845941.71875,P08,D08,1,1,1
715,-34.0,-6.0,53.0,1644845941.75,P08,D08,1,1,1
716,-33.0,-6.0,53.0,1644845941.78125,P08,D08,1,1,1
717,-34.0,-6.0,53.0,1644845941.8125,P08,D08,1,1,1
718,-34.0,-6.0,53.0,1644845941.84375,P08,D08,1,1,1
719,-34.0,-6.0,53.0,1644845941.875,P08,D08,1,1,1
720,-34.0,-6.0,53.0,1644845941.90625,P08,D08,1,1,1
721,-33.0,-6.0,53.0,1644845941.9375,P08,D08,1,1,1
722,-34.0,-6.0,53.0,1644845941.96875,P08,D08,1,1,1
723,-34.0,-6.0,53.0,1644845942.0,P08,D08,1,1,1
724,-34.0,-6.0,53.0,1644845942.03125,P08,D08,1,1,1
725,-34.0,-6.0,53.0,1644845942.0625,P08,D08,1,1,1
726,-33.0,-6.0,53.0,1644845942.09375,P08,D08,1,1,1
727,-33.0,-6.0,53.0,1644845942.125,P08,D08,1,1,1
728,-34.0,-6.0,53.0,1644845942.15625,P08,D08,1,1,1
729,-34.0,-6.0,53.0,1644845942.1875,P08,D08,1,1,1
730,-34.0,-6.0,54.0,1644845942.21875,P08,D08,1,1,1
731,-33.0,-6.0,53.0,1644845942.25,P08,D08,1,1,1
732,-34.0,-6.0,53.0,1644845942.28125,P08,D08,1,1,1
733,-34.0,-6.0,53.0,1644845942.3125,P08,D08,1,1,1
734,-34.0,-6.0,53.0,1644845942.34375,P08,D08,1,1,1
735,-34.0,-6.0,53.0,1644845942.375,P08,D08,1,1,1
736,-34.0,-6.0,53.0,1644845942.40625,P08,D08,1,1,1
737,-33.0,-6.0,53.0,1644845942.4375,P08,D08,1,1,1
738,-34.0,-6.0,53.0,1644845942.46875,P08,D08,1,1,1
739,-34.0,-6.0,53.0,1644845942.5,P08,D08,1,1,1
740,-34.0,-6.0,53.0,1644845942.53125,P08,D08,1,1,1
741,-33.0,-6.0,53.0,1644845942.5625,P08,D08,1,1,1
742,-33.0,-6.0,53.0,1644845942.59375,P08,D08,1,1,1
743,-34.0,-6.0,54.0,1644845942.625,P08,D08,1,1,1
744,-34.0,-6.0,53.0,1644845942.65625,P08,D08,1,1,1
745,-34.0,-6.0,53.0,1644845942.6875,P08,D08,1,1,1
746,-34.0,-7.0,53.0,1644845942.71875,P08,D08,1,1,1
747,-34.0,-6.0,53.0,1644845942.75,P08,D08,1,1,1
748,-34.0,-6.0,53.0,1644845942.78125,P08,D08,1,1,1
749,-33.0,-6.0,53.0,1644845942.8125,P08,D08,1,1,1
750,-34.0,-6.0,53.0,1644845942.84375,P08,D08,1,1,1
751,-34.0,-6.0,53.0,1644845942.875,P08,D08,1,1,1
752,-34.0,-6.0,53.0,1644845942.90625,P08,D08,1,1,1
753,-33.0,-6.0,53.0,1644845942.9375,P08,D08,1,1,1
754,-33.0,-6.0,54.0,1644845942.96875,P08,D08,1,1,1
755,-34.0,-6.0,53.0,1644845943.0,P08,D08,1,1,1
756,-34.0,-6.0,53.0,1644845943.03125,P08,D08,1,1,1
757,-34.0,-6.0,54.0,1644845943.0625,P08,D08,1,1,1
758,-34.0,-6.0,53.0,1644845943.09375,P08,D08,1,1,1
759,-34.0,-6.0,53.0,1644845943.125,P08,D08,1,1,1
760,-34.0,-6.0,53.0,1644845943.15625,P08,D08,1,1,1
761,-34.0,-6.0,53.0,1644845943.1875,P08,D08,1,1,1
762,-33.0,-6.0,53.0,1644845943.21875,P08,D08,1,1,1
763,-33.0,-6.0,53.0,1644845943.25,P08,D08,1,1,1
764,-34.0,-6.0,53.0,1644845943.28125,P08,D08,1,1,1
765,-34.0,-7.0,53.0,1644845943.3125,P08,D08,1,1,1
766,-34.0,-7.0,53.0,1644845943.34375,P08,D08,1,1,1
767,-34.0,-6.0,53.0,1644845943.375,P08,D08,1,1,1
768,-34.0,-6.0,53.0,1644845943.40625,P08,D08,1,1,1
769,-34.0,-6.0,53.0,1644845943.4375,P08,D08,1,1,1
770,-33.0,-6.0,53.0,1644845943.46875,P08,D08,1,1,1
771,-34.0,-6.0,53.0,1644845943.5,P08,D08,1,1,1
772,-34.0,-6.0,53.0,1644845943.53125,P08,D08,1,1,1
773,-34.0,-6.0,53.0,1644845943.5625,P08,D08,1,1,1
774,-34.0,-6.0,53.0,1644845943.59375,P08,D08,1,1,1
775,-34.0,-6.0,53.0,1644845943.625,P08,D08,1,1,1
776,-33.0,-6.0,53.0,1644845943.65625,P08,D08,1,1,1
777,-34.0,-6.0,53.0,1644845943.6875,P08,D08,1,1,1
778,-34.0,-6.0,54.0,1644845943.71875,P08,D08,1,1,1
779,-33.0,-6.0,53.0,1644845943.75,P08,D08,1,1,1
780,-33.0,-6.0,53.0,1644845943.78125,P08,D08,1,1,1
781,-34.0,-6.0,53.0,1644845943.8125,P08,D08,1,1,1
782,-34.0,-6.0,53.0,1644845943.84375,P08,D08,1,1,1
783,-34.0,-6.0,53.0,1644845943.875,P08,D08,1,1,1
784,-33.0,-6.0,53.0,1644845943.90625,P08,D08,1,1,1
785,-34.0,-6.0,54.0,1644845943.9375,P08,D08,1,1,1
786,-33.0,-6.0,53.0,1644845943.96875,P08,D08,1,1,1
787,-34.0,-6.0,54.0,1644845944.0,P08,D08,1,1,1
788,-34.0,-6.0,53.0,1644845944.03125,P08,D08,1,1,1
789,-34.0,-7.0,53.0,1644845944.0625,P08,D08,1,1,1
790,-34.0,-6.0,53.0,1644845944.09375,P08,D08,1,1,1
791,-34.0,-6.0,53.0,1644845944.125,P08,D08,1,1,1
792,-34.0,-6.0,53.0,1644845944.15625,P08,D08,1,1,1
793,-34.0,-6.0,53.0,1644845944.1875,P08,D08,1,1,1
794,-34.0,-6.0,53.0,1644845944.21875,P08,D08,1,1,1
795,-34.0,-6.0,53.0,1644845944.25,P08,D08,1,1,1
796,-34.0,-6.0,53.0,1644845944.28125,P08,D08,1,1,1
797,-33.0,-6.0,53.0,1644845944.3125,P08,D08,1,1,1
798,-34.0,-6.0,53.0,1644845944.34375,P08,D08,1,1,1
799,-34.0,-6.0,53.0,1644845944.375,P08,D08,1,1,1
800,-34.0,-6.0,53.0,1644845944.40625,P08,D08,1,1,1
801,-33.0,-6.0,53.0,1644845944.4375,P08,D08,1,1,1
802,-34.0,-6.0,53.0,1644845944.46875,P08,D08,1,1,1
803,-34.0,-6.0,53.0,1644845944.5,P08,D08,1,1,1
804,-34.0,-6.0,53.0,1644845944.53125,P08,D08,1,1,1
805,-34.0,-6.0,53.0,1644845944.5625,P08,D08,1,1,1
806,-33.0,-6.0,53.0,1644845944.59375,P08,D08,1,1,1
807,-34.0,-6.0,53.0,1644845944.625,P08,D08,1,1,1
808,-33.0,-6.0,53.0,1644845944.65625,P08,D08,1,1,1
809,-34.0,-7.0,53.0,1644845944.6875,P08,D08,1,1,1
810,-34.0,-6.0,54.0,1644845944.71875,P08,D08,1,1,1
811,-34.0,-6.0,53.0,1644845944.75,P08,D08,1,1,1
812,-33.0,-6.0,53.0,1644845944.78125,P08,D08,1,1,1
813,-33.0,-6.0,53.0,1644845944.8125,P08,D08,1,1,1
814,-33.0,-6.0,54.0,1644845944.84375,P08,D08,1,1,1
815,-34.0,-6.0,53.0,1644845944.875,P08,D08,1,1,1
816,-34.0,-6.0,53.0,1644845944.90625,P08,D08,1,1,1
817,-34.0,-7.0,53.0,1644845944.9375,P08,D08,1,1,1
818,-34.0,-6.0,53.0,1644845944.96875,P08,D08,1,1,1
819,-33.0,-6.0,53.0,1644845945.0,P08,D08,1,1,1
820,-34.0,-6.0,54.0,1644845945.03125,P08,D08,1,1,1
821,-34.0,-6.0,53.0,1644845945.0625,P08,D08,1,1,1
822,-34.0,-6.0,53.0,1644845945.09375,P08,D08,1,1,1
823,-33.0,-6.0,53.0,1644845945.125,P08,D08,1,1,1
824,-34.0,-6.0,53.0,1644845945.15625,P08,D08,1,1,1
825,-34.0,-6.0,54.0,1644845945.1875,P08,D08,1,1,1
826,-33.0,-6.0,53.0,1644845945.21875,P08,D08,1,1,1
827,-33.0,-6.0,53.0,1644845945.25,P08,D08,1,1,1
828,-34.0,-6.0,53.0,1644845945.28125,P08,D08,1,1,1
829,-34.0,-6.0,53.0,1644845945.3125,P08,D08,1,1,1
830,-34.0,-6.0,54.0,1644845945.34375,P08,D08,1,1,1
831,-33.0,-7.0,53.0,1644845945.375,P08,D08,1,1,1
832,-33.0,-6.0,53.0,1644845945.40625,P08,D08,1,1,1
833,-34.0,-6.0,53.0,1644845945.4375,P08,D08,1,1,1
834,-33.0,-6.0,53.0,1644845945.46875,P08,D08,1,1,1
835,-33.0,-6.0,53.0,1644845945.5,P08,D08,1,1,1
836,-33.0,-6.0,54.0,1644845945.53125,P08,D08,1,1,1
837,-34.0,-6.0,53.0,1644845945.5625,P08,D08,1,1,1
838,-34.0,-6.0,53.0,1644845945.59375,P08,D08,1,1,1
839,-33.0,-6.0,54.0,1644845945.625,P08,D08,1,1,1
840,-33.0,-6.0,53.0,1644845945.65625,P08,D08,1,1,1
841,-34.0,-6.0,53.0,1644845945.6875,P08,D08,1,1,1
842,-34.0,-6.0,53.0,1644845945.71875,P08,D08,1,1,1
843,-33.0,-6.0,53.0,1644845945.75,P08,D08,1,1,1
844,-34.0,-6.0,53.0,1644845945.78125,P08,D08,1,1,1
845,-34.0,-6.0,53.0,1644845945.8125,P08,D08,1,1,1
846,-33.0,-6.0,54.0,1644845945.84375,P08,D08,1,1,1
847,-34.0,-6.0,53.0,1644845945.875,P08,D08,1,1,1
848,-34.0,-6.0,53.0,1644845945.90625,P08,D08,1,1,1
849,-33.0,-6.0,53.0,1644845945.9375,P08,D08,1,1,1
850,-34.0,-6.0,53.0,1644845945.96875,P08,D08,1,1,1
851,-34.0,-6.0,53.0,1644845946.0,P08,D08,1,1,1
852,-33.0,-6.0,54.0,1644845946.03125,P08,D08,1,1,1
853,-33.0,-6.0,53.0,1644845946.0625,P08,D08,1,1,1
854,-33.0,-6.0,53.0,1644845946.09375,P08,D08,1,1,1
855,-34.0,-6.0,53.0,1644845946.125,P08,D08,1,1,1
856,-34.0,-6.0,53.0,1644845946.15625,P08,D08,1,1,1
857,-34.0,-6.0,53.0,1644845946.1875,P08,D08,1,1,1
858,-34.0,-6.0,53.0,1644845946.21875,P08,D08,1,1,1
859,-33.0,-6.0,53.0,1644845946.25,P08,D08,1,1,1
860,-34.0,-6.0,53.0,1644845946.28125,P08,D08,1,1,1
861,-33.0,-6.0,54.0,1644845946.3125,P08,D08,1,1,1
862,-34.0,-6.0,53.0,1644845946.34375,P08,D08,1,1,1
863,-33.0,-6.0,53.0,1644845946.375,P08,D08,1,1,1
864,-34.0,-6.0,53.0,1644845946.40625,P08,D08,1,1,1
865,-33.0,-6.0,53.0,1644845946.4375,P08,D08,1,1,1
866,-33.0,-6.0,53.0,1644845946.46875,P08,D08,1,1,1
867,-33.0,-6.0,53.0,1644845946.5,P08,D08,1,1,1
868,-33.0,-6.0,53.0,1644845946.53125,P08,D08,1,1,1
869,-33.0,-6.0,53.0,1644845946.5625,P08,D08,1,1,1
870,-34.0,-6.0,53.0,1644845946.59375,P08,D08,1,1,1
871,-34.0,-6.0,53.0,1644845946.625,P08,D08,1,1,1
872,-34.0,-6.0,53.0,1644845946.65625,P08,D08,1,1,1
873,-34.0,-6.0,54.0,1644845946.6875,P08,D08,1,1,1
874,-33.0,-6.0,53.0,1644845946.71875,P08,D08,1,1,1
875,-33.0,-6.0,53.0,1644845946.75,P08,D08,1,1,1
876,-34.0,-6.0,53.0,1644845946.78125,P08,D08,1,1,1
877,-34.0,-6.0,53.0,1644845946.8125,P08,D08,1,1,1
878,-34.0,-6.0,53.0,1644845946.84375,P08,D08,1,1,1
879,-34.0,-6.0,53.0,1644845946.875,P08,D08,1,1,1
880,-34.0,-6.0,53.0,1644845946.90625,P08,D08,1,1,1
881,-34.0,-6.0,53.0,1644845946.9375,P08,D08,1,1,1
882,-34.0,-6.0,53.0,1644845946.96875,P08,D08,1,1,1
883,-33.0,-6.0,53.0,1644845947.0,P08,D08,1,1,1
884,-33.0,-6.0,53.0,1644845947.03125,P08,D08,1,1,1
885,-34.0,-6.0,53.0,1644845947.0625,P08,D08,1,1,1
886,-34.0,-6.0,53.0,1644845947.09375,P08,D08,1,1,1
887,-34.0,-6.0,53.0,1644845947.125,P08,D08,1,1,1
888,-33.0,-6.0,53.0,1644845947.15625,P08,D08,1,1,1
889,-33.0,-6.0,53.0,1644845947.1875,P08,D08,1,1,1
890,-34.0,-6.0,53.0,1644845947.21875,P08,D08,1,1,1
891,-34.0,-6.0,53.0,1644845947.25,P08,D08,1,1,1
892,-33.0,-6.0,53.0,1644845947.28125,P08,D08,1,1,1
893,-33.0,-6.0,53.0,1644845947.3125,P08,D08,1,1,1
894,-34.0,-6.0,53.0,1644845947.34375,P08,D08,1,1,1
895,-34.0,-6.0,53.0,1644845947.375,P08,D08,1,1,1
896,-34.0,-6.0,53.0,1644845947.40625,P08,D08,1,1,1
897,-34.0,-6.0,53.0,1644845947.4375,P08,D08,1,1,1
898,-34.0,-6.0,53.0,1644845947.46875,P08,D08,1,1,1
899,-33.0,-6.0,53.0,1644845947.5,P08,D08,1,1,1
900,-34.0,-6.0,53.0,1644845947.53125,P08,D08,1,1,1
901,-34.0,-6.0,53.0,1644845947.5625,P08,D08,1,1,1
902,-34.0,-6.0,53.0,1644845947.59375,P08,D08,1,1,1
903,-33.0,-6.0,53.0,1644845947.625,P08,D08,1,1,1
904,-34.0,-6.0,53.0,1644845947.65625,P08,D08,1,1,1
905,-34.0,-6.0,53.0,1644845947.6875,P08,D08,1,1,1
906,-33.0,-6.0,53.0,1644845947.71875,P08,D08,1,1,1
907,-34.0,-6.0,53.0,1644845947.75,P08,D08,1,1,1
908,-34.0,-6.0,53.0,1644845947.78125,P08,D08,1,1,1
909,-34.0,-6.0,53.0,1644845947.8125,P08,D08,1,1,1
910,-34.0,-5.0,54.0,1644845947.84375,P08,D08,1,1,1
911,-34.0,-5.0,53.0,1644845947.875,P08,D08,1,1,1
912,-33.0,-6.0,53.0,1644845947.90625,P08,D08,1,1,1
913,-33.0,-5.0,53.0,1644845947.9375,P08,D08,1,1,1
914,-33.0,-6.0,53.0,1644845947.96875,P08,D08,1,1,1
915,-34.0,-6.0,53.0,1644845948.0,P08,D08,1,1,1
916,-34.0,-6.0,53.0,1644845948.03125,P08,D08,1,1,1
917,-34.0,-6.0,53.0,1644845948.0625,P08,D08,1,1,1
918,-34.0,-6.0,54.0,1644845948.09375,P08,D08,1,1,1
919,-34.0,-5.0,53.0,1644845948.125,P08,D08,1,1,1
920,-34.0,-5.0,53.0,1644845948.15625,P08,D08,1,1,1
921,-34.0,-5.0,53.0,1644845948.1875,P08,D08,1,1,1
922,-34.0,-5.0,53.0,1644845948.21875,P08,D08,1,1,1
923,-34.0,-5.0,54.0,1644845948.25,P08,D08,1,1,1
924,-34.0,-5.0,53.0,1644845948.28125,P08,D08,1,1,1
925,-34.0,-5.0,53.0,1644845948.3125,P08,D08,1,1,1
926,-34.0,-5.0,53.0,1644845948.34375,P08,D08,1,1,1
927,-33.0,-6.0,53.0,1644845948.375,P08,D08,1,1,1
928,-34.0,-6.0,53.0,1644845948.40625,P08,D08,1,1,1
929,-34.0,-6.0,53.0,1644845948.4375,P08,D08,1,1,1
930,-33.0,-6.0,53.0,1644845948.46875,P08,D08,1,1,1
931,-33.0,-5.0,53.0,1644845948.5,P08,D08,1,1,1
932,-34.0,-5.0,54.0,1644845948.53125,P08,D08,1,1,1
933,-34.0,-5.0,53.0,1644845948.5625,P08,D08,1,1,1
934,-33.0,-6.0,53.0,1644845948.59375,P08,D08,1,1,1
935,-34.0,-6.0,53.0,1644845948.625,P08,D08,1,1,1
936,-34.0,-6.0,53.0,1644845948.65625,P08,D08,1,1,1
937,-34.0,-6.0,53.0,1644845948.6875,P08,D08,1,1,1
938,-33.0,-6.0,53.0,1644845948.71875,P08,D08,1,1,1
939,-34.0,-5.0,53.0,1644845948.75,P08,D08,1,1,1
940,-34.0,-5.0,53.0,1644845948.78125,P08,D08,1,1,1
941,-34.0,-5.0,54.0,1644845948.8125,P08,D08,1,1,1
942,-34.0,-6.0,53.0,1644845948.84375,P08,D08,1,1,1
943,-34.0,-6.0,53.0,1644845948.875,P08,D08,1,1,1
944,-34.0,-5.0,53.0,1644845948.90625,P08,D08,1,1,1
945,-34.0,-5.0,53.0,1644845948.9375,P08,D08,1,1,1
946,-34.0,-6.0,54.0,1644845948.96875,P08,D08,1,1,1
947,-34.0,-5.0,54.0,1644845949.0,P08,D08,1,1,1
948,-34.0,-5.0,53.0,1644845949.03125,P08,D08,1,1,1
949,-34.0,-5.0,53.0,1644845949.0625,P08,D08,1,1,1
950,-33.0,-5.0,54.0,1644845949.09375,P08,D08,1,1,1
951,-34.0,-6.0,54.0,1644845949.125,P08,D08,1,1,1
952,-34.0,-6.0,53.0,1644845949.15625,P08,D08,1,1,1
953,-34.0,-6.0,53.0,1644845949.1875,P08,D08,1,1,1
954,-34.0,-6.0,53.0,1644845949.21875,P08,D08,1,1,1
955,-34.0,-6.0,53.0,1644845949.25,P08,D08,1,1,1
956,-33.0,-5.0,53.0,1644845949.28125,P08,D08,1,1,1
957,-34.0,-5.0,53.0,1644845949.3125,P08,D08,1,1,1
958,-33.0,-6.0,53.0,1644845949.34375,P08,D08,1,1,1
959,-34.0,-5.0,53.0,1644845949.375,P08,D08,1,1,1
960,-34.0,-6.0,53.0,1644845949.40625,P08,D08,1,1,1
961,-34.0,-6.0,53.0,1644845949.4375,P08,D08,1,1,1
962,-34.0,-6.0,53.0,1644845949.46875,P08,D08,1,1,1
963,-33.0,-5.0,53.0,1644845949.5,P08,D08,1,1,1
964,-34.0,-6.0,54.0,1644845949.53125,P08,D08,1,1,1
965,-34.0,-6.0,54.0,1644845949.5625,P08,D08,1,1,1
966,-34.0,-6.0,53.0,1644845949.59375,P08,D08,1,1,1
967,-34.0,-6.0,53.0,1644845949.625,P08,D08,1,1,1
968,-33.0,-6.0,53.0,1644845949.65625,P08,D08,1,1,1
969,-34.0,-6.0,53.0,1644845949.6875,P08,D08,1,1,1
970,-33.0,-6.0,53.0,1644845949.71875,P08,D08,1,1,1
971,-33.0,-6.0,53.0,1644845949.75,P08,D08,1,1,1
972,-34.0,-6.0,53.0,1644845949.78125,P08,D08,1,1,1
973,-34.0,-6.0,53.0,1644845949.8125,P08,D08,1,1,1
974,-33.0,-5.0,53.0,1644845949.84375,P08,D08,1,1,1
975,-33.0,-6.0,54.0,1644845949.875,P08,D08,1,1,1
976,-34.0,-5.0,53.0,1644845949.90625,P08,D08,1,1,1
977,-34.0,-6.0,53.0,1644845949.9375,P08,D08,1,1,1
978,-34.0,-5.0,53.0,1644845949.96875,P08,D08,1,1,1
979,-34.0,-6.0,53.0,1644845950.0,P08,D08,1,1,1
980,-34.0,-6.0,53.0,1644845950.03125,P08,D08,1,1,1
981,-34.0,-5.0,53.0,1644845950.0625,P08,D08,1,1,1
982,-33.0,-6.0,53.0,1644845950.09375,P08,D08,1,1,1
983,-33.0,-6.0,53.0,1644845950.125,P08,D08,1,1,1
984,-34.0,-6.0,53.0,1644845950.15625,P08,D08,1,1,1
985,-34.0,-6.0,53.0,1644845950.1875,P08,D08,1,1,1
986,-34.0,-6.0,53.0,1644845950.21875,P08,D08,1,1,1
987,-34.0,-6.0,53.0,1644845950.25,P08,D08,1,1,1
988,-33.0,-6.0,54.0,1644845950.28125,P08,D08,1,1,1
989,-33.0,-6.0,53.0,1644845950.3125,P08,D08,1,1,1
990,-34.0,-6.0,53.0,1644845950.34375,P08,D08,1,1,1
991,-34.0,-6.0,53.0,1644845950.375,P08,D08,1,1,1
992,-34.0,-6.0,53.0,1644845950.40625,P08,D08,1,1,1
993,-33.0,-6.0,54.0,1644845950.4375,P08,D08,1,1,1
994,-33.0,-5.0,53.0,1644845950.46875,P08,D08,1,1,1
995,-34.0,-6.0,54.0,1644845950.5,P08,D08,1,1,1
996,-34.0,-6.0,53.0,1644845950.53125,P08,D08,1,1,1
997,-34.0,-6.0,53.0,1644845950.5625,P08,D08,1,1,1
998,-34.0,-6.0,53.0,1644845950.59375,P08,D08,1,1,1
999,-33.0,-6.0,54.0,1644845950.625,P08,D08,1,1,1
1000,-34.0,-6.0,53.0,1644845950.65625,P08,D08,1,1,1
1001,-33.0,-6.0,53.0,1644845950.6875,P08,D08,1,1,1
1002,-34.0,-5.0,53.0,1644845950.71875,P08,D08,1,1,1
1003,-34.0,-6.0,53.0,1644845950.75,P08,D08,1,1,1
1004,-34.0,-6.0,53.0,1644845950.78125,P08,D08,1,1,1
1005,-34.0,-6.0,53.0,1644845950.8125,P08,D08,1,1,1
1006,-34.0,-6.0,53.0,1644845950.84375,P08,D08,1,1,1
1007,-33.0,-6.0,54.0,1644845950.875,P08,D08,1,1,1
1008,-34.0,-6.0,53.0,1644845950.90625,P08,D08,1,1,1
1009,-33.0,-6.0,54.0,1644845950.9375,P08,D08,1,1,1
1010,-33.0,-6.0,53.0,1644845950.96875,P08,D08,1,1,1
1011,-34.0,-6.0,53.0,1644845951.0,P08,D08,1,1,1
1012,-34.0,-6.0,53.0,1644845951.03125,P08,D08,1,1,1
1013,-33.0,-6.0,53.0,1644845951.0625,P08,D08,1,1,1
1014,-33.0,-6.0,53.0,1644845951.09375,P08,D08,1,1,1
1015,-33.0,-6.0,53.0,1644845951.125,P08,D08,1,1,1
1016,-34.0,-6.0,54.0,1644845951.15625,P08,D08,1,1,1
1017,-34.0,-6.0,53.0,1644845951.1875,P08,D08,1,1,1
1018,-33.0,-6.0,53.0,1644845951.21875,P08,D08,1,1,1
1019,-34.0,-6.0,53.0,1644845951.25,P08,D08,1,1,1
1020,-34.0,-6.0,53.0,1644845951.28125,P08,D08,1,1,1
1021,-33.0,-6.0,53.0,1644845951.3125,P08,D08,1,1,1
1022,-33.0,-6.0,53.0,1644845951.34375,P08,D08,1,1,1
1023,-34.0,-6.0,53.0,1644845951.375,P08,D08,1,1,1
1024,-34.0,-6.0,53.0,1644845951.40625,P08,D08,1,1,1
1025,-33.0,-6.0,53.0,1644845951.4375,P08,D08,1,1,1
1026,-34.0,-6.0,53.0,1644845951.46875,P08,D08,1,1,1
1027,-33.0,-6.0,54.0,1644845951.5,P08,D08,1,1,1
1028,-33.0,-6.0,54.0,1644845951.53125,P08,D08,1,1,1
1029,-34.0,-6.0,53.0,1644845951.5625,P08,D08,1,1,1
1030,-34.0,-6.0,54.0,1644845951.59375,P08,D08,1,1,1
1031,-34.0,-6.0,53.0,1644845951.625,P08,D08,1,1,1
1032,-33.0,-6.0,53.0,1644845951.65625,P08,D08,1,1,1
1033,-33.0,-6.0,54.0,1644845951.6875,P08,D08,1,1,1
1034,-34.0,-6.0,54.0,1644845951.71875,P08,D08,1,1,1
1035,-34.0,-6.0,53.0,1644845951.75,P08,D08,1,1,1
1036,-33.0,-6.0,53.0,1644845951.78125,P08,D08,1,1,1
1037,-33.0,-6.0,54.0,1644845951.8125,P08,D08,1,1,1
1038,-34.0,-6.0,53.0,1644845951.84375,P08,D08,1,1,1
1039,-34.0,-6.0,53.0,1644845951.875,P08,D08,1,1,1
1040,-33.0,-6.0,53.0,1644845951.90625,P08,D08,1,1,1
1041,-33.0,-6.0,53.0,1644845951.9375,P08,D08,1,1,1
1042,-33.0,-6.0,53.0,1644845951.96875,P08,D08,1,1,1
1043,-34.0,-6.0,53.0,1644845952.0,P08,D08,1,1,1
1044,-34.0,-6.0,53.0,1644845952.03125,P08,D08,1,1,1
1045,-34.0,-6.0,53.0,1644845952.0625,P08,D08,1,1,1
1046,-34.0,-6.0,53.0,1644845952.09375,P08,D08,1,1,1
1047,-33.0,-6.0,53.0,1644845952.125,P08,D08,1,1,1
1048,-33.0,-6.0,54.0,1644845952.15625,P08,D08,1,1,1
1049,-34.0,-6.0,53.0,1644845952.1875,P08,D08,1,1,1
1050,-34.0,-6.0,53.0,1644845952.21875,P08,D08,1,1,1
1051,-33.0,-6.0,54.0,1644845952.25,P08,D08,1,1,1
1052,-34.0,-6.0,53.0,1644845952.28125,P08,D08,1,1,1
1053,-33.0,-6.0,53.0,1644845952.3125,P08,D08,1,1,1
1054,-33.0,-6.0,54.0,1644845952.34375,P08,D08,1,1,1
1055,-34.0,-6.0,53.0,1644845952.375,P08,D08,1,1,1
1056,-34.0,-6.0,53.0,1644845952.40625,P08,D08,1,1,1
1057,-33.0,-6.0,53.0,1644845952.4375,P08,D08,1,1,1
1058,-34.0,-6.0,53.0,1644845952.46875,P08,D08,1,1,1
1059,-33.0,-6.0,53.0,1644845952.5,P08,D08,1,1,1
1060,-34.0,-6.0,53.0,1644845952.53125,P08,D08,1,1,1
1061,-33.0,-6.0,53.0,1644845952.5625,P08,D08,1,1,1
1062,-34.0,-6.0,53.0,1644845952.59375,P08,D08,1,1,1
1063,-34.0,-6.0,53.0,1644845952.625,P08,D08,1,1,1
1064,-33.0,-6.0,53.0,1644845952.65625,P08,D08,1,1,1
1065,-33.0,-6.0,53.0,1644845952.6875,P08,D08,1,1,1
1066,-34.0,-6.0,53.0,1644845952.71875,P08,D08,1,1,1
1067,-34.0,-6.0,53.0,1644845952.75,P08,D08,1,1,1
1068,-33.0,-6.0,53.0,1644845952.78125,P08,D08,1,1,1
1069,-33.0,-6.0,53.0,1644845952.8125,P08,D08,1,1,1
1070,-34.0,-6.0,54.0,1644845952.84375,P08,D08,1,1,1
1071,-33.0,-6.0,53.0,1644845952.875,P08,D08,1,1,1
1072,-34.0,-6.0,53.0,1644845952.90625,P08,D08,1,1,1
1073,-34.0,-6.0,53.0,1644845952.9375,P08,D08,1,1,1
1074,-34.0,-6.0,53.0,1644845952.96875,P08,D08,1,1,1
1075,-33.0,-6.0,53.0,1644845953.0,P08,D08,1,1,1
1076,-33.0,-6.0,54.0,1644845953.03125,P08,D08,1,1,1
1077,-34.0,-6.0,53.0,1644845953.0625,P08,D08,1,1,1
1078,-34.0,-6.0,53.0,1644845953.09375,P08,D08,1,1,1
1079,-34.0,-6.0,53.0,1644845953.125,P08,D08,1,1,1
1080,-33.0,-6.0,53.0,1644845953.15625,P08,D08,1,1,1
1081,-33.0,-6.0,53.0,1644845953.1875,P08,D08,1,1,1
1082,-34.0,-6.0,53.0,1644845953.21875,P08,D08,1,1,1
1083,-34.0,-6.0,53.0,1644845953.25,P08,D08,1,1,1
1084,-33.0,-6.0,53.0,1644845953.28125,P08,D08,1,1,1
1085,-34.0,-6.0,53.0,1644845953.3125,P08,D08,1,1,1
1086,-34.0,-6.0,53.0,1644845953.34375,P08,D08,1,1,1
1087,-34.0,-6.0,53.0,1644845953.375,P08,D08,1,1,1
1088,-33.0,-6.0,53.0,1644845953.40625,P08,D08,1,1,1
1089,-33.0,-6.0,53.0,1644845953.4375,P08,D08,1,1,1
1090,-34.0,-6.0,53.0,1644845953.46875,P08,D08,1,1,1
1091,-34.0,-6.0,53.0,1644845953.5,P08,D08,1,1,1
1092,-34.0,-6.0,53.0,1644845953.53125,P08,D08,1,1,1
1093,-33.0,-6.0,53.0,1644845953.5625,P08,D08,1,1,1
1094,-33.0,-6.0,53.0,1644845953.59375,P08,D08,1,1,1
1095,-34.0,-6.0,53.0,1644845953.625,P08,D08,1,1,1
1096,-34.0,-6.0,53.0,1644845953.65625,P08,D08,1,1,1
1097,-34.0,-6.0,53.0,1644845953.6875,P08,D08,1,1,1
1098,-34.0,-6.0,53.0,1644845953.71875,P08,D08,1,1,1
1099,-34.0,-6.0,53.0,1644845953.75,P08,D08,1,1,1
1100,-34.0,-6.0,53.0,1644845953.78125,P08,D08,1,1,1
1101,-34.0,-6.0,53.0,1644845953.8125,P08,D08,1,1,1
1102,-34.0,-6.0,53.0,1644845953.84375,P08,D08,1,1,1
1103,-34.0,-6.0,53.0,1644845953.875,P08,D08,1,1,1
1104,-34.0,-6.0,53.0,1644845953.90625,P08,D08,1,1,1
1105,-34.0,-6.0,53.0,1644845953.9375,P08,D08,1,1,1
1106,-34.0,-6.0,53.0,1644845953.96875,P08,D08,1,1,1
1107,-34.0,-6.0,53.0,1644845954.0,P08,D08,1,1,1
1108,-34.0,-6.0,53.0,1644845954.03125,P08,D08,1,1,1
1109,-34.0,-6.0,53.0,1644845954.0625,P08,D08,1,1,1
1110,-33.0,-6.0,53.0,1644845954.09375,P08,D08,1,1,1
1111,-34.0,-7.0,53.0,1644845954.125,P08,D08,1,1,1
1112,-34.0,-6.0,53.0,1644845954.15625,P08,D08,1,1,1
1113,-34.0,-6.0,53.0,1644845954.1875,P08,D08,1,1,1
1114,-33.0,-6.0,53.0,1644845954.21875,P08,D08,1,1,1
1115,-34.0,-6.0,54.0,1644845954.25,P08,D08,1,1,1
1116,-34.0,-6.0,53.0,1644845954.28125,P08,D08,1,1,1
1117,-34.0,-6.0,53.0,1644845954.3125,P08,D08,1,1,1
1118,-34.0,-6.0,53.0,1644845954.34375,P08,D08,1,1,1
1119,-34.0,-6.0,53.0,1644845954.375,P08,D08,1,1,1
1120,-34.0,-6.0,53.0,1644845954.40625,P08,D08,1,1,1
1121,-34.0,-6.0,54.0,1644845954.4375,P08,D08,1,1,1
1122,-33.0,-6.0,53.0,1644845954.46875,P08,D08,1,1,1
1123,-34.0,-6.0,53.0,1644845954.5,P08,D08,1,1,1
1124,-34.0,-6.0,53.0,1644845954.53125,P08,D08,1,1,1
1125,-34.0,-6.0,53.0,1644845954.5625,P08,D08,1,1,1
1126,-34.0,-6.0,53.0,1644845954.59375,P08,D08,1,1,1
1127,-34.0,-6.0,53.0,1644845954.625,P08,D08,1,1,1
1128,-34.0,-6.0,53.0,1644845954.65625,P08,D08,1,1,1
1129,-34.0,-6.0,53.0,1644845954.6875,P08,D08,1,1,1
1130,-33.0,-6.0,53.0,1644845954.71875,P08,D08,1,1,1
1131,-33.0,-6.0,53.0,1644845954.75,P08,D08,1,1,1
1132,-34.0,-6.0,53.0,1644845954.78125,P08,D08,1,1,1
1133,-34.0,-6.0,53.0,1644845954.8125,P08,D08,1,1,1
1134,-34.0,-6.0,53.0,1644845954.84375,P08,D08,1,1,1
1135,-34.0,-6.0,53.0,1644845954.875,P08,D08,1,1,1
1136,-34.0,-7.0,53.0,1644845954.90625,P08,D08,1,1,1
1137,-34.0,-6.0,53.0,1644845954.9375,P08,D08,1,1,1
1138,-34.0,-6.0,53.0,1644845954.96875,P08,D08,1,1,1
1139,-33.0,-6.0,53.0,1644845955.0,P08,D08,1,1,1
1140,-34.0,-6.0,53.0,1644845955.03125,P08,D08,1,1,1
1141,-34.0,-6.0,53.0,1644845955.0625,P08,D08,1,1,1
1142,-34.0,-6.0,53.0,1644845955.09375,P08,D08,1,1,1
1143,-34.0,-6.0,53.0,1644845955.125,P08,D08,1,1,1
1144,-34.0,-6.0,53.0,1644845955.15625,P08,D08,1,1,1
1145,-34.0,-6.0,53.0,1644845955.1875,P08,D08,1,1,1
1146,-34.0,-6.0,53.0,1644845955.21875,P08,D08,1,1,1
1147,-34.0,-6.0,53.0,1644845955.25,P08,D08,1,1,1
1148,-34.0,-6.0,53.0,1644845955.28125,P08,D08,1,1,1
1149,-34.0,-6.0,53.0,1644845955.3125,P08,D08,1,1,1
1150,-34.0,-6.0,53.0,1644845955.34375,P08,D08,1,1,1
1151,-34.0,-6.0,53.0,1644845955.375,P08,D08,1,1,1
1152,-34.0,-6.0,53.0,1644845955.40625,P08,D08,1,1,1
1153,-34.0,-6.0,53.0,1644845955.4375,P08,D08,1,1,1
1154,-34.0,-6.0,53.0,1644845955.46875,P08,D08,1,1,1
1155,-34.0,-6.0,53.0,1644845955.5,P08,D08,1,1,1
1156,-34.0,-6.0,53.0,1644845955.53125,P08,D08,1,1,1
1157,-34.0,-7.0,53.0,1644845955.5625,P08,D08,1,1,1
1158,-34.0,-6.0,53.0,1644845955.59375,P08,D08,1,1,1
1159,-34.0,-6.0,53.0,1644845955.625,P08,D08,1,1,1
1160,-34.0,-7.0,53.0,1644845955.65625,P08,D08,1,1,1
1161,-34.0,-6.0,53.0,1644845955.6875,P08,D08,1,1,1
1162,-34.0,-6.0,53.0,1644845955.71875,P08,D08,1,1,1
1163,-34.0,-7.0,53.0,1644845955.75,P08,D08,1,1,1
1164,-34.0,-7.0,53.0,1644845955.78125,P08,D08,1,1,1
1165,-34.0,-6.0,53.0,1644845955.8125,P08,D08,1,1,1
1166,-34.0,-6.0,53.0,1644845955.84375,P08,D08,1,1,1
1167,-34.0,-6.0,53.0,1644845955.875,P08,D08,1,1,1
1168,-34.0,-6.0,53.0,1644845955.90625,P08,D08,1,1,1
1169,-34.0,-6.0,53.0,1644845955.9375,P08,D08,1,1,1
1170,-34.0,-6.0,53.0,1644845955.96875,P08,D08,1,1,1
1171,-34.0,-7.0,53.0,1644845956.0,P08,D08,1,1,1
1172,-34.0,-6.0,53.0,1644845956.03125,P08,D08,1,1,1
1173,-34.0,-6.0,53.0,1644845956.0625,P08,D08,1,1,1
1174,-34.0,-6.0,53.0,1644845956.09375,P08,D08,1,1,1
1175,-34.0,-6.0,53.0,1644845956.125,P08,D08,1,1,1
1176,-34.0,-6.0,53.0,1644845956.15625,P08,D08,1,1,1
1177,-34.0,-6.0,53.0,1644845956.1875,P08,D08,1,1,1
1178,-34.0,-6.0,53.0,1644845956.21875,P08,D08,1,1,1
1179,-34.0,-6.0,53.0,1644845956.25,P08,D08,1,1,1
1180,-34.0,-6.0,53.0,1644845956.28125,P08,D08,1,1,1
1181,-34.0,-6.0,53.0,1644845956.3125,P08,D08,1,1,1
1182,-34.0,-6.0,53.0,1644845956.34375,P08,D08,1,1,1
1183,-34.0,-6.0,53.0,1644845956.375,P08,D08,1,1,1
1184,-34.0,-6.0,53.0,1644845956.40625,P08,D08,1,1,1
1185,-34.0,-6.0,53.0,1644845956.4375,P08,D08,1,1,1
1186,-34.0,-6.0,53.0,1644845956.46875,P08,D08,1,1,1
1187,-34.0,-6.0,53.0,1644845956.5,P08,D08,1,1,1
1188,-34.0,-6.0,53.0,1644845956.53125,P08,D08,1,1,1
1189,-34.0,-6.0,53.0,1644845956.5625,P08,D08,1,1,1
1190,-34.0,-6.0,53.0,1644845956.59375,P08,D08,1,1,1
1191,-34.0,-6.0,53.0,1644845956.625,P08,D08,1,1,1
1192,-34.0,-6.0,53.0,1644845956.65625,P08,D08,1,1,1
1193,-34.0,-6.0,53.0,1644845956.6875,P08,D08,1,1,1
1194,-34.0,-6.0,53.0,1644845956.71875,P08,D08,1,1,1
1195,-34.0,-6.0,53.0,1644845956.75,P08,D08,1,1,1
1196,-34.0,-6.0,53.0,1644845956.78125,P08,D08,1,1,1
1197,-34.0,-6.0,53.0,1644845956.8125,P08,D08,1,1,1
1198,-34.0,-6.0,53.0,1644845956.84375,P08,D08,1,1,1
1199,-34.0,-6.0,53.0,1644845956.875,P08,D08,1,1,1
1200,-34.0,-6.0,53.0,1644845956.90625,P08,D08,1,1,1
1201,-34.0,-6.0,53.0,1644845956.9375,P08,D08,1,1,1
1202,-34.0,-6.0,53.0,1644845956.96875,P08,D08,1,1,1
1203,-34.0,-6.0,53.0,1644845957.0,P08,D08,1,1,1
1204,-34.0,-6.0,53.0,1644845957.03125,P08,D08,1,1,1
1205,-34.0,-6.0,53.0,1644845957.0625,P08,D08,1,1,1
1206,-34.0,-6.0,53.0,1644845957.09375,P08,D08,1,1,1
1207,-34.0,-6.0,54.0,1644845957.125,P08,D08,1,1,1
1208,-34.0,-6.0,53.0,1644845957.15625,P08,D08,1,1,1
1209,-34.0,-6.0,53.0,1644845957.1875,P08,D08,1,1,1
1210,-34.0,-5.0,53.0,1644845957.21875,P08,D08,1,1,1
1211,-34.0,-6.0,53.0,1644845957.25,P08,D08,1,1,1
1212,-34.0,-6.0,53.0,1644845957.28125,P08,D08,1,1,1
1213,-34.0,-6.0,53.0,1644845957.3125,P08,D08,1,1,1
1214,-34.0,-6.0,53.0,1644845957.34375,P08,D08,1,1,1
1215,-34.0,-6.0,53.0,1644845957.375,P08,D08,1,1,1
1216,-34.0,-6.0,53.0,1644845957.40625,P08,D08,1,1,1
1217,-34.0,-6.0,53.0,1644845957.4375,P08,D08,1,1,1
1218,-34.0,-6.0,53.0,1644845957.46875,P08,D08,1,1,1
1219,-34.0,-6.0,53.0,1644845957.5,P08,D08,1,1,1
1220,-34.0,-6.0,53.0,1644845957.53125,P08,D08,1,1,1
1221,-34.0,-6.0,53.0,1644845957.5625,P08,D08,1,1,1
1222,-34.0,-5.0,53.0,1644845957.59375,P08,D08,1,1,1
1223,-34.0,-6.0,53.0,1644845957.625,P08,D08,1,1,1
1224,-34.0,-5.0,53.0,1644845957.65625,P08,D08,1,1,1
1225,-34.0,-6.0,53.0,1644845957.6875,P08,D08,1,1,1
1226,-34.0,-6.0,53.0,1644845957.71875,P08,D08,1,1,1
1227,-34.0,-6.0,53.0,1644845957.75,P08,D08,1,1,1
1228,-35.0,-6.0,53.0,1644845957.78125,P08,D08,1,1,1
1229,-34.0,-6.0,53.0,1644845957.8125,P08,D08,1,1,1
1230,-33.0,-6.0,53.0,1644845957.84375,P08,D08,1,1,1
1231,-34.0,-6.0,53.0,1644845957.875,P08,D08,1,1,1
1232,-34.0,-6.0,53.0,1644845957.90625,P08,D08,1,1,1
1233,-34.0,-6.0,53.0,1644845957.9375,P08,D08,1,1,1
1234,-34.0,-6.0,53.0,1644845957.96875,P08,D08,1,1,1
1235,-34.0,-6.0,53.0,1644845958.0,P08,D08,1,1,1
1236,-33.0,-6.0,54.0,1644845958.03125,P08,D08,1,1,1
1237,-34.0,-6.0,53.0,1644845958.0625,P08,D08,1,1,1
1238,-35.0,-6.0,52.0,1644845958.09375,P08,D08,1,1,1
1239,-35.0,-7.0,52.0,1644845958.125,P08,D08,1,1,1
1240,-34.0,-6.0,53.0,1644845958.15625,P08,D08,1,1,1
1241,-33.0,-6.0,53.0,1644845958.1875,P08,D08,1,1,1
1242,-34.0,-5.0,54.0,1644845958.21875,P08,D08,1,1,1
1243,-34.0,-5.0,53.0,1644845958.25,P08,D08,1,1,1
1244,-34.0,-6.0,53.0,1644845958.28125,P08,D08,1,1,1
1245,-34.0,-6.0,53.0,1644845958.3125,P08,D08,1,1,1
1246,-35.0,-6.0,53.0,1644845958.34375,P08,D08,1,1,1
1247,-34.0,-6.0,53.0,1644845958.375,P08,D08,1,1,1
1248,-34.0,-6.0,53.0,1644845958.40625,P08,D08,1,1,1
1249,-34.0,-6.0,53.0,1644845958.4375,P08,D08,1,1,1
1250,-34.0,-5.0,53.0,1644845958.46875,P08,D08,1,1,1
1251,-34.0,-5.0,53.0,1644845958.5,P08,D08,1,1,1
1252,-34.0,-6.0,53.0,1644845958.53125,P08,D08,1,1,1
1253,-34.0,-6.0,53.0,1644845958.5625,P08,D08,1,1,1
1254,-34.0,-6.0,53.0,1644845958.59375,P08,D08,1,1,1
1255,-34.0,-6.0,53.0,1644845958.625,P08,D08,1,1,1
1256,-34.0,-6.0,53.0,1644845958.65625,P08,D08,1,1,1
1257,-34.0,-6.0,53.0,1644845958.6875,P08,D08,1,1,1
1258,-34.0,-6.0,53.0,1644845958.71875,P08,D08,1,1,1
1259,-34.0,-6.0,53.0,1644845958.75,P08,D08,1,1,1
1260,-34.0,-6.0,53.0,1644845958.78125,P08,D08,1,1,1
1261,-34.0,-6.0,53.0,1644845958.8125,P08,D08,1,1,1
1262,-34.0,-5.0,53.0,1644845958.84375,P08,D08,1,1,1
1263,-33.0,-6.0,53.0,1644845958.875,P08,D08,1,1,1
1264,-34.0,-5.0,53.0,1644845958.90625,P08,D08,1,1,1
1265,-34.0,-6.0,53.0,1644845958.9375,P08,D08,1,1,1
1266,-34.0,-6.0,53.0,1644845958.96875,P08,D08,1,1,1
1267,-34.0,-6.0,53.0,1644845959.0,P08,D08,1,1,1
1268,-35.0,-6.0,53.0,1644845959.03125,P08,D08,1,1,1
1269,-34.0,-5.0,53.0,1644845959.0625,P08,D08,1,1,1
1270,-33.0,-5.0,54.0,1644845959.09375,P08,D08,1,1,1
1271,-34.0,-5.0,54.0,1644845959.125,P08,D08,1,1,1
1272,-34.0,-6.0,53.0,1644845959.15625,P08,D08,1,1,1
1273,-34.0,-6.0,53.0,1644845959.1875,P08,D08,1,1,1
1274,-34.0,-5.0,53.0,1644845959.21875,P08,D08,1,1,1
1275,-34.0,-6.0,53.0,1644845959.25,P08,D08,1,1,1
1276,-34.0,-6.0,53.0,1644845959.28125,P08,D08,1,1,1
1277,-34.0,-6.0,53.0,1644845959.3125,P08,D08,1,1,1
1278,-34.0,-6.0,53.0,1644845959.34375,P08,D08,1,1,1
1279,-34.0,-6.0,53.0,1644845959.375,P08,D08,1,1,1
1280,-34.0,-6.0,53.0,1644845959.40625,P08,D08,1,1,1
1281,-34.0,-6.0,53.0,1644845959.4375,P08,D08,1,1,1
1282,-34.0,-6.0,53.0,1644845959.46875,P08,D08,1,1,1
1283,-34.0,-6.0,53.0,1644845959.5,P08,D08,1,1,1
1284,-34.0,-6.0,53.0,1644845959.53125,P08,D08,1,1,1
1285,-34.0,-6.0,53.0,1644845959.5625,P08,D08,1,1,1
1286,-34.0,-5.0,53.0,1644845959.59375,P08,D08,1,1,1
1287,-34.0,-5.0,53.0,1644845959.625,P08,D08,1,1,1
1288,-33.0,-6.0,53.0,1644845959.65625,P08,D08,1,1,1
1289,-34.0,-6.0,53.0,1644845959.6875,P08,D08,1,1,1
1290,-34.0,-6.0,53.0,1644845959.71875,P08,D08,1,1,1
1291,-34.0,-6.0,53.0,1644845959.75,P08,D08,1,1,1
1292,-34.0,-6.0,53.0,1644845959.78125,P08,D08,1,1,1
1293,-34.0,-6.0,53.0,1644845959.8125,P08,D08,1,1,1
1294,-34.0,-6.0,53.0,1644845959.84375,P08,D08,1,1,1
1295,-33.0,-6.0,53.0,1644845959.875,P08,D08,1,1,1
1296,-34.0,-6.0,53.0,1644845959.90625,P08,D08,1,1,1
1297,-35.0,-6.0,53.0,1644845959.9375,P08,D08,1,1,1
1298,-34.0,-6.0,53.0,1644845959.96875,P08,D08,1,1,1
1299,-34.0,-6.0,53.0,1644845960.0,P08,D08,1,1,1
1300,-34.0,-6.0,53.0,1644845960.03125,P08,D08,1,1,1
1301,-34.0,-6.0,53.0,1644845960.0625,P08,D08,1,1,1
1302,-34.0,-6.0,53.0,1644845960.09375,P08,D08,1,1,1
1303,-34.0,-7.0,53.0,1644845960.125,P08,D08,1,1,1
1304,-34.0,-6.0,53.0,1644845960.15625,P08,D08,1,1,1
1305,-34.0,-6.0,53.0,1644845960.1875,P08,D08,1,1,1
1306,-34.0,-6.0,53.0,1644845960.21875,P08,D08,1,1,1
1307,-34.0,-7.0,53.0,1644845960.25,P08,D08,1,1,1
1308,-34.0,-7.0,53.0,1644845960.28125,P08,D08,1,1,1
1309,-34.0,-6.0,53.0,1644845960.3125,P08,D08,1,1,1
1310,-34.0,-6.0,53.0,1644845960.34375,P08,D08,1,1,1
1311,-34.0,-6.0,54.0,1644845960.375,P08,D08,1,1,1
1312,-34.0,-6.0,53.0,1644845960.40625,P08,D08,1,1,1
1313,-34.0,-6.0,53.0,1644845960.4375,P08,D08,1,1,1
1314,-34.0,-6.0,53.0,1644845960.46875,P08,D08,1,1,1
1315,-34.0,-6.0,53.0,1644845960.5,P08,D08,1,1,1
1316,-34.0,-6.0,53.0,1644845960.53125,P08,D08,1,1,1
1317,-34.0,-6.0,53.0,1644845960.5625,P08,D08,1,1,1
1318,-34.0,-6.0,53.0,1644845960.59375,P08,D08,1,1,1
1319,-33.0,-6.0,53.0,1644845960.625,P08,D08,1,1,1
1320,-34.0,-6.0,53.0,1644845960.65625,P08,D08,1,1,1
1321,-34.0,-6.0,53.0,1644845960.6875,P08,D08,1,1,1
1322,-34.0,-6.0,53.0,1644845960.71875,P08,D08,1,1,1
1323,-34.0,-6.0,53.0,1644845960.75,P08,D08,1,1,1
1324,-34.0,-6.0,53.0,1644845960.78125,P08,D08,1,1,1
1325,-34.0,-6.0,53.0,1644845960.8125,P08,D08,1,1,1
1326,-34.0,-6.0,53.0,1644845960.84375,P08,D08,1,1,1
1327,-33.0,-6.0,54.0,1644845960.875,P08,D08,1,1,1
1328,-34.0,-6.0,53.0,1644845960.90625,P08,D08,1,1,1
1329,-34.0,-7.0,53.0,1644845960.9375,P08,D08,1,1,1
1330,-34.0,-6.0,53.0,1644845960.96875,P08,D08,1,1,1
1331,-33.0,-6.0,53.0,1644845961.0,P08,D08,1,1,1
1332,-33.0,-6.0,53.0,1644845961.03125,P08,D08,1,1,1
1333,-33.0,-5.0,53.0,1644845961.0625,P08,D08,1,1,1
1334,-35.0,-6.0,53.0,1644845961.09375,P08,D08,1,1,1
1335,-35.0,-5.0,53.0,1644845961.125,P08,D08,1,1,1
1336,-33.0,-6.0,53.0,1644845961.15625,P08,D08,1,1,1
1337,-33.0,-6.0,53.0,1644845961.1875,P08,D08,1,1,1
1338,-34.0,-6.0,53.0,1644845961.21875,P08,D08,1,1,1
1339,-34.0,-6.0,53.0,1644845961.25,P08,D08,1,1,1
1340,-34.0,-6.0,53.0,1644845961.28125,P08,D08,1,1,1
1341,-33.0,-6.0,53.0,1644845961.3125,P08,D08,1,1,1
1342,-34.0,-6.0,53.0,1644845961.34375,P08,D08,1,1,1
1343,-34.0,-6.0,53.0,1644845961.375,P08,D08,1,1,1
1344,-34.0,-6.0,53.0,1644845961.40625,P08,D08,1,1,1
1345,-34.0,-6.0,53.0,1644845961.4375,P08,D08,1,1,1
1346,-34.0,-6.0,53.0,1644845961.46875,P08,D08,1,1,1
1347,-34.0,-6.0,53.0,1644845961.5,P08,D08,1,1,1
1348,-34.0,-6.0,53.0,1644845961.53125,P08,D08,1,1,1
1349,-34.0,-6.0,53.0,1644845961.5625,P08,D08,1,1,1
1350,-34.0,-6.0,53.0,1644845961.59375,P08,D08,1,1,1
1351,-33.0,-6.0,53.0,1644845961.625,P08,D08,1,1,1
1352,-33.0,-6.0,53.0,1644845961.65625,P08,D08,1,1,1
1353,-34.0,-6.0,54.0,1644845961.6875,P08,D08,1,1,1
1354,-35.0,-7.0,52.0,1644845961.71875,P08,D08,1,1,1
1355,-32.0,-7.0,53.0,1644845961.75,P08,D08,1,1,1
1356,-34.0,-6.0,54.0,1644845961.78125,P08,D08,1,1,1
1357,-35.0,-6.0,54.0,1644845961.8125,P08,D08,1,1,1
1358,-34.0,-7.0,53.0,1644845961.84375,P08,D08,1,1,1
1359,-34.0,-7.0,53.0,1644845961.875,P08,D08,1,1,1
1360,-33.0,-6.0,54.0,1644845961.90625,P08,D08,1,1,1
1361,-34.0,-7.0,53.0,1644845961.9375,P08,D08,1,1,1
1362,-34.0,-7.0,53.0,1644845961.96875,P08,D08,1,1,1
1363,-35.0,-6.0,53.0,1644845962.0,P08,D08,1,1,1
1364,-34.0,-7.0,53.0,1644845962.03125,P08,D08,1,1,1
1365,-34.0,-7.0,53.0,1644845962.0625,P08,D08,1,1,1
1366,-34.0,-7.0,53.0,1644845962.09375,P08,D08,1,1,1
1367,-34.0,-7.0,53.0,1644845962.125,P08,D08,1,1,1
1368,-34.0,-7.0,53.0,1644845962.15625,P08,D08,1,1,1
1369,-34.0,-7.0,53.0,1644845962.1875,P08,D08,1,1,1
1370,-34.0,-7.0,53.0,1644845962.21875,P08,D08,1,1,1
1371,-34.0,-7.0,53.0,1644845962.25,P08,D08,1,1,1
1372,-34.0,-7.0,53.0,1644845962.28125,P08,D08,1,1,1
1373,-34.0,-7.0,53.0,1644845962.3125,P08,D08,1,1,1
1374,-34.0,-7.0,53.0,1644845962.34375,P08,D08,1,1,1
1375,-34.0,-7.0,53.0,1644845962.375,P08,D08,1,1,1
1376,-34.0,-7.0,53.0,1644845962.40625,P08,D08,1,1,1
1377,-34.0,-7.0,53.0,1644845962.4375,P08,D08,1,1,1
1378,-34.0,-7.0,53.0,1644845962.46875,P08,D08,1,1,1
1379,-34.0,-6.0,53.0,1644845962.5,P08,D08,1,1,1
1380,-34.0,-6.0,53.0,1644845962.53125,P08,D08,1,1,1
1381,-34.0,-6.0,53.0,1644845962.5625,P08,D08,1,1,1
1382,-34.0,-6.0,53.0,1644845962.59375,P08,D08,1,1,1
1383,-34.0,-6.0,53.0,1644845962.625,P08,D08,1,1,1
1384,-34.0,-6.0,53.0,1644845962.65625,P08,D08,1,1,1
1385,-34.0,-6.0,53.0,1644845962.6875,P08,D08,1,1,1
1386,-34.0,-6.0,53.0,1644845962.71875,P08,D08,1,1,1
1387,-34.0,-6.0,53.0,1644845962.75,P08,D08,1,1,1
1388,-34.0,-6.0,53.0,1644845962.78125,P08,D08,1,1,1
1389,-34.0,-6.0,53.0,1644845962.8125,P08,D08,1,1,1
1390,-34.0,-7.0,53.0,1644845962.84375,P08,D08,1,1,1
1391,-34.0,-6.0,53.0,1644845962.875,P08,D08,1,1,1
1392,-34.0,-7.0,53.0,1644845962.90625,P08,D08,1,1,1
1393,-34.0,-7.0,53.0,1644845962.9375,P08,D08,1,1,1
1394,-34.0,-7.0,53.0,1644845962.96875,P08,D08,1,1,1
1395,-34.0,-7.0,53.0,1644845963.0,P08,D08,1,1,1
1396,-34.0,-7.0,53.0,1644845963.03125,P08,D08,1,1,1
1397,-34.0,-7.0,53.0,1644845963.0625,P08,D08,1,1,1
1398,-34.0,-7.0,53.0,1644845963.09375,P08,D08,1,1,1
1399,-34.0,-6.0,53.0,1644845963.125,P08,D08,1,1,1
1400,-34.0,-6.0,53.0,1644845963.15625,P08,D08,1,1,1
1401,-34.0,-7.0,53.0,1644845963.1875,P08,D08,1,1,1
1402,-34.0,-7.0,53.0,1644845963.21875,P08,D08,1,1,1
1403,-34.0,-7.0,53.0,1644845963.25,P08,D08,1,1,1
1404,-34.0,-7.0,53.0,1644845963.28125,P08,D08,1,1,1
1405,-34.0,-7.0,53.0,1644845963.3125,P08,D08,1,1,1
1406,-34.0,-7.0,53.0,1644845963.34375,P08,D08,1,1,1
1407,-34.0,-7.0,53.0,1644845963.375,P08,D08,1,1,1
1408,-34.0,-6.0,53.0,1644845963.40625,P08,D08,1,1,1
1409,-34.0,-6.0,53.0,1644845963.4375,P08,D08,1,1,1
1410,-34.0,-7.0,53.0,1644845963.46875,P08,D08,1,1,1
1411,-34.0,-7.0,53.0,1644845963.5,P08,D08,1,1,1
1412,-34.0,-7.0,53.0,1644845963.53125,P08,D08,1,1,1
1413,-34.0,-6.0,53.0,1644845963.5625,P08,D08,1,1,1
1414,-34.0,-7.0,53.0,1644845963.59375,P08,D08,1,1,1
1415,-33.0,-6.0,53.0,1644845963.625,P08,D08,1,1,1
1416,-34.0,-7.0,53.0,1644845963.65625,P08,D08,1,1,1
1417,-34.0,-7.0,53.0,1644845963.6875,P08,D08,1,1,1
1418,-34.0,-7.0,53.0,1644845963.71875,P08,D08,1,1,1
1419,-34.0,-7.0,53.0,1644845963.75,P08,D08,1,1,1
1420,-34.0,-7.0,53.0,1644845963.78125,P08,D08,1,1,1
1421,-34.0,-7.0,53.0,1644845963.8125,P08,D08,1,1,1
1422,-34.0,-6.0,53.0,1644845963.84375,P08,D08,1,1,1
1423,-34.0,-6.0,53.0,1644845963.875,P08,D08,1,1,1
1424,-34.0,-7.0,53.0,1644845963.90625,P08,D08,1,1,1
1425,-34.0,-7.0,53.0,1644845963.9375,P08,D08,1,1,1
1426,-34.0,-6.0,53.0,1644845963.96875,P08,D08,1,1,1
1427,-34.0,-7.0,53.0,1644845964.0,P08,D08,1,1,1
1428,-34.0,-7.0,53.0,1644845964.03125,P08,D08,1,1,1
1429,-34.0,-7.0,53.0,1644845964.0625,P08,D08,1,1,1
1430,-34.0,-6.0,53.0,1644845964.09375,P08,D08,1,1,1
1431,-34.0,-7.0,53.0,1644845964.125,P08,D08,1,1,1
1432,-34.0,-7.0,53.0,1644845964.15625,P08,D08,1,1,1
1433,-34.0,-7.0,53.0,1644845964.1875,P08,D08,1,1,1
1434,-34.0,-7.0,53.0,1644845964.21875,P08,D08,1,1,1
1435,-33.0,-7.0,53.0,1644845964.25,P08,D08,1,1,1
1436,-33.0,-7.0,53.0,1644845964.28125,P08,D08,1,1,1
1437,-34.0,-7.0,53.0,1644845964.3125,P08,D08,1,1,1
1438,-34.0,-7.0,53.0,1644845964.34375,P08,D08,1,1,1
1439,-34.0,-7.0,53.0,1644845964.375,P08,D08,1,1,1
1440,-34.0,-7.0,53.0,1644845964.40625,P08,D08,1,1,1
1441,-34.0,-6.0,53.0,1644845964.4375,P08,D08,1,1,1
1442,-34.0,-7.0,53.0,1644845964.46875,P08,D08,1,1,1
1443,-34.0,-6.0,53.0,1644845964.5,P08,D08,1,1,1
1444,-34.0,-7.0,53.0,1644845964.53125,P08,D08,1,1,1
1445,-34.0,-7.0,53.0,1644845964.5625,P08,D08,1,1,1
1446,-34.0,-7.0,53.0,1644845964.59375,P08,D08,1,1,1
1447,-34.0,-7.0,53.0,1644845964.625,P08,D08,1,1,1
1448,-33.0,-7.0,53.0,1644845964.65625,P08,D08,1,1,1
1449,-34.0,-7.0,53.0,1644845964.6875,P08,D08,1,1,1
1450,-34.0,-6.0,53.0,1644845964.71875,P08,D08,1,1,1
1451,-34.0,-7.0,53.0,1644845964.75,P08,D08,1,1,1
1452,-33.0,-7.0,53.0,1644845964.78125,P08,D08,1,1,1
1453,-34.0,-7.0,53.0,1644845964.8125,P08,D08,1,1,1
1454,-34.0,-6.0,53.0,1644845964.84375,P08,D08,1,1,1
1455,-34.0,-7.0,53.0,1644845964.875,P08,D08,1,1,1
1456,-33.0,-7.0,53.0,1644845964.90625,P08,D08,1,1,1
1457,-33.0,-6.0,53.0,1644845964.9375,P08,D08,1,1,1
1458,-34.0,-7.0,53.0,1644845964.96875,P08,D08,1,1,1
1459,-34.0,-7.0,53.0,1644845965.0,P08,D08,1,1,1
1460,-34.0,-7.0,53.0,1644845965.03125,P08,D08,1,1,1
1461,-34.0,-7.0,54.0,1644845965.0625,P08,D08,1,1,1
1462,-34.0,-6.0,53.0,1644845965.09375,P08,D08,1,1,1
1463,-33.0,-7.0,53.0,1644845965.125,P08,D08,1,1,1
1464,-33.0,-7.0,53.0,1644845965.15625,P08,D08,1,1,1
1465,-34.0,-7.0,53.0,1644845965.1875,P08,D08,1,1,1
1466,-34.0,-7.0,53.0,1644845965.21875,P08,D08,1,1,1
1467,-33.0,-7.0,53.0,1644845965.25,P08,D08,1,1,1
1468,-33.0,-7.0,53.0,1644845965.28125,P08,D08,1,1,1
1469,-34.0,-7.0,53.0,1644845965.3125,P08,D08,1,1,1
1470,-34.0,-7.0,53.0,1644845965.34375,P08,D08,1,1,1
1471,-33.0,-6.0,53.0,1644845965.375,P08,D08,1,1,1
1472,-34.0,-7.0,53.0,1644845965.40625,P08,D08,1,1,1
1473,-34.0,-7.0,53.0,1644845965.4375,P08,D08,1,1,1
1474,-34.0,-6.0,53.0,1644845965.46875,P08,D08,1,1,1
1475,-34.0,-6.0,53.0,1644845965.5,P08,D08,1,1,1
1476,-33.0,-7.0,53.0,1644845965.53125,P08,D08,1,1,1
1477,-33.0,-7.0,53.0,1644845965.5625,P08,D08,1,1,1
1478,-34.0,-7.0,53.0,1644845965.59375,P08,D08,1,1,1
1479,-34.0,-7.0,53.0,1644845965.625,P08,D08,1,1,1
1480,-34.0,-7.0,53.0,1644845965.65625,P08,D08,1,1,1
1481,-34.0,-7.0,53.0,1644845965.6875,P08,D08,1,1,1
1482,-33.0,-6.0,53.0,1644845965.71875,P08,D08,1,1,1
1483,-33.0,-6.0,53.0,1644845965.75,P08,D08,1,1,1
1484,-34.0,-6.0,53.0,1644845965.78125,P08,D08,1,1,1
1485,-34.0,-6.0,53.0,1644845965.8125,P08,D08,1,1,1
1486,-34.0,-6.0,53.0,1644845965.84375,P08,D08,1,1,1
1487,-34.0,-7.0,53.0,1644845965.875,P08,D08,1,1,1
1488,-34.0,-7.0,53.0,1644845965.90625,P08,D08,1,1,1
1489,-34.0,-6.0,53.0,1644845965.9375,P08,D08,1,1,1
1490,-34.0,-6.0,53.0,1644845965.96875,P08,D08,1,1,1
1491,-34.0,-6.0,53.0,1644845966.0,P08,D08,1,1,1
1492,-34.0,-7.0,53.0,1644845966.03125,P08,D08,1,1,1
1493,-34.0,-6.0,53.0,1644845966.0625,P08,D08,1,1,1
1494,-34.0,-6.0,53.0,1644845966.09375,P08,D08,1,1,1
1495,-34.0,-6.0,53.0,1644845966.125,P08,D08,1,1,1
1496,-34.0,-6.0,53.0,1644845966.15625,P08,D08,1,1,1
1497,-34.0,-6.0,53.0,1644845966.1875,P08,D08,1,1,1
1498,-34.0,-7.0,53.0,1644845966.21875,P08,D08,1,1,1
1499,-34.0,-6.0,53.0,1644845966.25,P08,D08,1,1,1
1500,-34.0,-7.0,53.0,1644845966.28125,P08,D08,1,1,1
1501,-34.0,-6.0,53.0,1644845966.3125,P08,D08,1,1,1
1502,-34.0,-6.0,53.0,1644845966.34375,P08,D08,1,1,1
1503,-34.0,-6.0,53.0,1644845966.375,P08,D08,1,1,1
1504,-34.0,-6.0,53.0,1644845966.40625,P08,D08,1,1,1
1505,-34.0,-6.0,53.0,1644845966.4375,P08,D08,1,1,1
1506,-34.0,-6.0,53.0,1644845966.46875,P08,D08,1,1,1
1507,-34.0,-6.0,53.0,1644845966.5,P08,D08,1,1,1
1508,-34.0,-6.0,53.0,1644845966.53125,P08,D08,1,1,1
1509,-34.0,-7.0,53.0,1644845966.5625,P08,D08,1,1,1
1510,-34.0,-6.0,53.0,1644845966.59375,P08,D08,1,1,1
1511,-34.0,-6.0,54.0,1644845966.625,P08,D08,1,1,1
1512,-34.0,-6.0,53.0,1644845966.65625,P08,D08,1,1,1
1513,-34.0,-6.0,53.0,1644845966.6875,P08,D08,1,1,1
1514,-33.0,-6.0,53.0,1644845966.71875,P08,D08,1,1,1
1515,-34.0,-6.0,53.0,1644845966.75,P08,D08,1,1,1
1516,-34.0,-6.0,53.0,1644845966.78125,P08,D08,1,1,1
1517,-34.0,-6.0,53.0,1644845966.8125,P08,D08,1,1,1
1518,-34.0,-7.0,53.0,1644845966.84375,P08,D08,1,1,1
1519,-34.0,-7.0,53.0,1644845966.875,P08,D08,1,1,1
1520,-34.0,-7.0,53.0,1644845966.90625,P08,D08,1,1,1
1521,-34.0,-6.0,54.0,1644845966.9375,P08,D08,1,1,1
1522,-33.0,-6.0,53.0,1644845966.96875,P08,D08,1,1,1
1523,-33.0,-6.0,53.0,1644845967.0,P08,D08,1,1,1
1524,-32.0,-5.0,56.0,1644845967.03125,P08,D08,1,1,1
1525,-34.0,-6.0,52.0,1644845967.0625,P08,D08,1,1,1
1526,-34.0,-5.0,53.0,1644845967.09375,P08,D08,1,1,1
1527,-33.0,-6.0,53.0,1644845967.125,P08,D08,1,1,1
1528,-35.0,-7.0,52.0,1644845967.15625,P08,D08,1,1,1
1529,-35.0,-6.0,53.0,1644845967.1875,P08,D08,1,1,1
1530,-34.0,-6.0,53.0,1644845967.21875,P08,D08,1,1,1
1531,-33.0,-6.0,53.0,1644845967.25,P08,D08,1,1,1
1532,-34.0,-6.0,53.0,1644845967.28125,P08,D08,1,1,1
1533,-34.0,-6.0,53.0,1644845967.3125,P08,D08,1,1,1
1534,-34.0,-6.0,53.0,1644845967.34375,P08,D08,1,1,1
1535,-34.0,-6.0,53.0,1644845967.375,P08,D08,1,1,1
1536,-34.0,-6.0,53.0,1644845967.40625,P08,D08,1,1,1
1537,-34.0,-6.0,53.0,1644845967.4375,P08,D08,1,1,1
1538,-34.0,-6.0,53.0,1644845967.46875,P08,D08,1,1,1
1539,-34.0,-6.0,53.0,1644845967.5,P08,D08,1,1,1
1540,-35.0,-6.0,53.0,1644845967.53125,P08,D08,1,1,1
1541,-35.0,-6.0,53.0,1644845967.5625,P08,D08,1,1,1
1542,-34.0,-6.0,53.0,1644845967.59375,P08,D08,1,1,1
1543,-34.0,-6.0,53.0,1644845967.625,P08,D08,1,1,1
1544,-35.0,-5.0,53.0,1644845967.65625,P08,D08,1,1,1
1545,-34.0,-5.0,53.0,1644845967.6875,P08,D08,1,1,1
1546,-34.0,-6.0,53.0,1644845967.71875,P08,D08,1,1,1
1547,-34.0,-6.0,53.0,1644845967.75,P08,D08,1,1,1
1548,-35.0,-5.0,53.0,1644845967.78125,P08,D08,1,1,1
1549,-35.0,-5.0,53.0,1644845967.8125,P08,D08,1,1,1
1550,-34.0,-6.0,53.0,1644845967.84375,P08,D08,1,1,1
1551,-35.0,-5.0,53.0,1644845967.875,P08,D08,1,1,1
1552,-35.0,-6.0,53.0,1644845967.90625,P08,D08,1,1,1
1553,-34.0,-6.0,53.0,1644845967.9375,P08,D08,1,1,1
1554,-34.0,-5.0,53.0,1644845967.96875,P08,D08,1,1,1
1555,-34.0,-5.0,53.0,1644845968.0,P08,D08,1,1,1
1556,-34.0,-6.0,53.0,1644845968.03125,P08,D08,1,1,1
1557,-34.0,-5.0,53.0,1644845968.0625,P08,D08,1,1,1
1558,-34.0,-5.0,53.0,1644845968.09375,P08,D08,1,1,1
1559,-34.0,-5.0,53.0,1644845968.125,P08,D08,1,1,1
1560,-34.0,-5.0,53.0,1644845968.15625,P08,D08,1,1,1
1561,-34.0,-5.0,53.0,1644845968.1875,P08,D08,1,1,1
1562,-35.0,-5.0,53.0,1644845968.21875,P08,D08,1,1,1
1563,-34.0,-5.0,53.0,1644845968.25,P08,D08,1,1,1
1564,-34.0,-5.0,53.0,1644845968.28125,P08,D08,1,1,1
1565,-34.0,-5.0,53.0,1644845968.3125,P08,D08,1,1,1
1566,-35.0,-5.0,53.0,1644845968.34375,P08,D08,1,1,1
1567,-34.0,-5.0,53.0,1644845968.375,P08,D08,1,1,1
1568,-34.0,-5.0,53.0,1644845968.40625,P08,D08,1,1,1
1569,-34.0,-5.0,53.0,1644845968.4375,P08,D08,1,1,1
1570,-34.0,-5.0,53.0,1644845968.46875,P08,D08,1,1,1
1571,-35.0,-5.0,53.0,1644845968.5,P08,D08,1,1,1
1572,-34.0,-5.0,53.0,1644845968.53125,P08,D08,1,1,1
1573,-34.0,-5.0,53.0,1644845968.5625,P08,D08,1,1,1
1574,-35.0,-4.0,53.0,1644845968.59375,P08,D08,1,1,1
1575,-35.0,-4.0,53.0,1644845968.625,P08,D08,1,1,1
1576,-34.0,-4.0,53.0,1644845968.65625,P08,D08,1,1,1
1577,-35.0,-4.0,53.0,1644845968.6875,P08,D08,1,1,1
1578,-35.0,-4.0,53.0,1644845968.71875,P08,D08,1,1,1
1579,-34.0,-4.0,53.0,1644845968.75,P08,D08,1,1,1
1580,-34.0,-4.0,53.0,1644845968.78125,P08,D08,1,1,1
1581,-34.0,-4.0,53.0,1644845968.8125,P08,D08,1,1,1
1582,-35.0,-4.0,53.0,1644845968.84375,P08,D08,1,1,1
1583,-34.0,-4.0,53.0,1644845968.875,P08,D08,1,1,1
1584,-34.0,-4.0,53.0,1644845968.90625,P08,D08,1,1,1
1585,-35.0,-4.0,53.0,1644845968.9375,P08,D08,1,1,1
1586,-35.0,-4.0,53.0,1644845968.96875,P08,D08,1,1,1
1587,-35.0,-4.0,53.0,1644845969.0,P08,D08,1,1,1
1588,-35.0,-4.0,53.0,1644845969.03125,P08,D08,1,1,1
1589,-35.0,-4.0,53.0,1644845969.0625,P08,D08,1,1,1
1590,-35.0,-4.0,53.0,1644845969.09375,P08,D08,1,1,1
1591,-34.0,-4.0,53.0,1644845969.125,P08,D08,1,1,1
1592,-35.0,-3.0,53.0,1644845969.15625,P08,D08,1,1,1
1593,-35.0,-3.0,53.0,1644845969.1875,P08,D08,1,1,1
1594,-35.0,-3.0,53.0,1644845969.21875,P08,D08,1,1,1
1595,-35.0,-3.0,53.0,1644845969.25,P08,D08,1,1,1
1596,-35.0,-3.0,53.0,1644845969.28125,P08,D08,1,1,1
1597,-35.0,-2.0,53.0,1644845969.3125,P08,D08,1,1,1
1598,-35.0,-3.0,53.0,1644845969.34375,P08,D08,1,1,1
1599,-34.0,-3.0,53.0,1644845969.375,P08,D08,1,1,1
1600,-35.0,-3.0,53.0,1644845969.40625,P08,D08,1,1,1
1601,-35.0,-3.0,53.0,1644845969.4375,P08,D08,1,1,1
1602,-35.0,-2.0,53.0,1644845969.46875,P08,D08,1,1,1
1603,-35.0,-3.0,53.0,1644845969.5,P08,D08,1,1,1
1604,-35.0,-3.0,53.0,1644845969.53125,P08,D08,1,1,1
1605,-35.0,-3.0,53.0,1644845969.5625,P08,D08,1,1,1
1606,-35.0,-3.0,53.0,1644845969.59375,P08,D08,1,1,1
1607,-35.0,-3.0,53.0,1644845969.625,P08,D08,1,1,1
1608,-34.0,-3.0,53.0,1644845969.65625,P08,D08,1,1,1
1609,-34.0,-3.0,53.0,1644845969.6875,P08,D08,1,1,1
1610,-34.0,-3.0,53.0,1644845969.71875,P08,D08,1,1,1
1611,-35.0,-3.0,53.0,1644845969.75,P08,D08,1,1,1
1612,-35.0,-3.0,53.0,1644845969.78125,P08,D08,1,1,1
1613,-34.0,-3.0,53.0,1644845969.8125,P08,D08,1,1,1
1614,-35.0,-3.0,53.0,1644845969.84375,P08,D08,1,1,1
1615,-35.0,-3.0,53.0,1644845969.875,P08,D08,1,1,1
1616,-35.0,-3.0,53.0,1644845969.90625,P08,D08,1,1,1
1617,-35.0,-3.0,53.0,1644845969.9375,P08,D08,1,1,1
1618,-35.0,-3.0,53.0,1644845969.96875,P08,D08,1,1,1
1619,-35.0,-3.0,53.0,1644845970.0,P08,D08,1,1,1
1620,-35.0,-3.0,53.0,1644845970.03125,P08,D08,1,1,1
1621,-35.0,-3.0,53.0,1644845970.0625,P08,D08,1,1,1
1622,-35.0,-3.0,53.0,1644845970.09375,P08,D08,1,1,1
1623,-35.0,-3.0,53.0,1644845970.125,P08,D08,1,1,1
1624,-34.0,-3.0,53.0,1644845970.15625,P08,D08,1,1,1
1625,-34.0,-3.0,53.0,1644845970.1875,P08,D08,1,1,1
1626,-35.0,-3.0,53.0,1644845970.21875,P08,D08,1,1,1
1627,-35.0,-3.0,53.0,1644845970.25,P08,D08,1,1,1
1628,-35.0,-2.0,53.0,1644845970.28125,P08,D08,1,1,1
1629,-35.0,-2.0,53.0,1644845970.3125,P08,D08,1,1,1
1630,-35.0,-2.0,53.0,1644845970.34375,P08,D08,1,1,1
1631,-34.0,-2.0,53.0,1644845970.375,P08,D08,1,1,1
1632,-34.0,-3.0,53.0,1644845970.40625,P08,D08,1,1,1
1633,-34.0,-2.0,53.0,1644845970.4375,P08,D08,1,1,1
1634,-35.0,-2.0,53.0,1644845970.46875,P08,D08,1,1,1
1635,-35.0,-2.0,53.0,1644845970.5,P08,D08,1,1,1
1636,-34.0,-2.0,53.0,1644845970.53125,P08,D08,1,1,1
1637,-34.0,-2.0,53.0,1644845970.5625,P08,D08,1,1,1
1638,-34.0,-2.0,53.0,1644845970.59375,P08,D08,1,1,1
1639,-34.0,-3.0,53.0,1644845970.625,P08,D08,1,1,1
1640,-34.0,-2.0,53.0,1644845970.65625,P08,D08,1,1,1
1641,-34.0,-2.0,53.0,1644845970.6875,P08,D08,1,1,1
1642,-35.0,-3.0,53.0,1644845970.71875,P08,D08,1,1,1
1643,-34.0,-3.0,53.0,1644845970.75,P08,D08,1,1,1
1644,-35.0,-3.0,53.0,1644845970.78125,P08,D08,1,1,1
1645,-35.0,-2.0,53.0,1644845970.8125,P08,D08,1,1,1
1646,-35.0,-2.0,53.0,1644845970.84375,P08,D08,1,1,1
1647,-37.0,-2.0,52.0,1644845970.875,P08,D08,1,1,1
1648,-35.0,-3.0,52.0,1644845970.90625,P08,D08,1,1,1
1649,-34.0,-2.0,53.0,1644845970.9375,P08,D08,1,1,1
1650,-33.0,-2.0,54.0,1644845970.96875,P08,D08,1,1,1
1651,-33.0,-2.0,54.0,1644845971.0,P08,D08,1,1,1
1652,-33.0,-2.0,54.0,1644845971.03125,P08,D08,1,1,1
1653,-35.0,-2.0,53.0,1644845971.0625,P08,D08,1,1,1
1654,-36.0,-2.0,53.0,1644845971.09375,P08,D08,1,1,1
1655,-35.0,-3.0,53.0,1644845971.125,P08,D08,1,1,1
1656,-33.0,-2.0,54.0,1644845971.15625,P08,D08,1,1,1
1657,-35.0,0.0,56.0,1644845971.1875,P08,D08,1,1,1
1658,-35.0,-5.0,53.0,1644845971.21875,P08,D08,1,1,1
1659,-35.0,-5.0,51.0,1644845971.25,P08,D08,1,1,1
1660,-36.0,-6.0,51.0,1644845971.28125,P08,D08,1,1,1
1661,-37.0,-5.0,52.0,1644845971.3125,P08,D08,1,1,1
1662,-36.0,-6.0,51.0,1644845971.34375,P08,D08,1,1,1
1663,-36.0,-7.0,51.0,1644845971.375,P08,D08,1,1,1
1664,-35.0,-4.0,53.0,1644845971.40625,P08,D08,1,1,1
1665,-35.0,-4.0,53.0,1644845971.4375,P08,D08,1,1,1
1666,-35.0,-4.0,53.0,1644845971.46875,P08,D08,1,1,1
1667,-36.0,-4.0,53.0,1644845971.5,P08,D08,1,1,1
1668,-35.0,-4.0,53.0,1644845971.53125,P08,D08,1,1,1
1669,-35.0,-4.0,53.0,1644845971.5625,P08,D08,1,1,1
1670,-35.0,-4.0,52.0,1644845971.59375,P08,D08,1,1,1
1671,-35.0,-4.0,52.0,1644845971.625,P08,D08,1,1,1
1672,-35.0,-5.0,53.0,1644845971.65625,P08,D08,1,1,1
1673,-35.0,-4.0,53.0,1644845971.6875,P08,D08,1,1,1
1674,-35.0,-4.0,52.0,1644845971.71875,P08,D08,1,1,1
1675,-35.0,-5.0,53.0,1644845971.75,P08,D08,1,1,1
1676,-35.0,-5.0,53.0,1644845971.78125,P08,D08,1,1,1
1677,-35.0,-5.0,52.0,1644845971.8125,P08,D08,1,1,1
1678,-35.0,-5.0,52.0,1644845971.84375,P08,D08,1,1,1
1679,-36.0,-5.0,52.0,1644845971.875,P08,D08,1,1,1
1680,-35.0,-4.0,52.0,1644845971.90625,P08,D08,1,1,1
1681,-35.0,-5.0,53.0,1644845971.9375,P08,D08,1,1,1
1682,-35.0,-4.0,53.0,1644845971.96875,P08,D08,1,1,1
1683,-35.0,-4.0,53.0,1644845972.0,P08,D08,1,1,1
1684,-35.0,-5.0,52.0,1644845972.03125,P08,D08,1,1,1
1685,-35.0,-5.0,52.0,1644845972.0625,P08,D08,1,1,1
1686,-36.0,-5.0,53.0,1644845972.09375,P08,D08,1,1,1
1687,-36.0,-5.0,52.0,1644845972.125,P08,D08,1,1,1
1688,-35.0,-5.0,53.0,1644845972.15625,P08,D08,1,1,1
1689,-35.0,-5.0,53.0,1644845972.1875,P08,D08,1,1,1
1690,-35.0,-4.0,53.0,1644845972.21875,P08,D08,1,1,1
1691,-36.0,-4.0,53.0,1644845972.25,P08,D08,1,1,1
1692,-35.0,-4.0,53.0,1644845972.28125,P08,D08,1,1,1
1693,-35.0,-4.0,53.0,1644845972.3125,P08,D08,1,1,1
1694,-35.0,-4.0,53.0,1644845972.34375,P08,D08,1,1,1
1695,-35.0,-4.0,53.0,1644845972.375,P08,D08,1,1,1
1696,-35.0,-5.0,53.0,1644845972.40625,P08,D08,1,1,1
1697,-35.0,-5.0,53.0,1644845972.4375,P08,D08,1,1,1
1698,-35.0,-4.0,53.0,1644845972.46875,P08,D08,1,1,1
1699,-35.0,-4.0,53.0,1644845972.5,P08,D08,1,1,1
1700,-34.0,-5.0,53.0,1644845972.53125,P08,D08,1,1,1
1701,-34.0,-5.0,53.0,1644845972.5625,P08,D08,1,1,1
1702,-34.0,-5.0,53.0,1644845972.59375,P08,D08,1,1,1
1703,-34.0,-5.0,53.0,1644845972.625,P08,D08,1,1,1
1704,-35.0,-5.0,53.0,1644845972.65625,P08,D08,1,1,1
1705,-35.0,-5.0,53.0,1644845972.6875,P08,D08,1,1,1
1706,-35.0,-5.0,53.0,1644845972.71875,P08,D08,1,1,1
1707,-35.0,-5.0,53.0,1644845972.75,P08,D08,1,1,1
1708,-35.0,-5.0,53.0,1644845972.78125,P08,D08,1,1,1
1709,-35.0,-5.0,53.0,1644845972.8125,P08,D08,1,1,1
1710,-34.0,-5.0,53.0,1644845972.84375,P08,D08,1,1,1
1711,-34.0,-5.0,53.0,1644845972.875,P08,D08,1,1,1
1712,-35.0,-4.0,53.0,1644845972.90625,P08,D08,1,1,1
1713,-34.0,-5.0,53.0,1644845972.9375,P08,D08,1,1,1
1714,-34.0,-5.0,53.0,1644845972.96875,P08,D08,1,1,1
1715,-34.0,-5.0,53.0,1644845973.0,P08,D08,1,1,1
1716,-34.0,-5.0,53.0,1644845973.03125,P08,D08,1,1,1
1717,-34.0,-5.0,53.0,1644845973.0625,P08,D08,1,1,1
1718,-34.0,-5.0,53.0,1644845973.09375,P08,D08,1,1,1
1719,-34.0,-6.0,53.0,1644845973.125,P08,D08,1,1,1
1720,-34.0,-5.0,53.0,1644845973.15625,P08,D08,1,1,1
1721,-34.0,-5.0,53.0,1644845973.1875,P08,D08,1,1,1
1722,-34.0,-5.0,53.0,1644845973.21875,P08,D08,1,1,1
1723,-34.0,-5.0,53.0,1644845973.25,P08,D08,1,1,1
1724,-34.0,-5.0,53.0,1644845973.28125,P08,D08,1,1,1
1725,-35.0,-5.0,53.0,1644845973.3125,P08,D08,1,1,1
1726,-34.0,-5.0,53.0,1644845973.34375,P08,D08,1,1,1
1727,-34.0,-5.0,53.0,1644845973.375,P08,D08,1,1,1
1728,-34.0,-5.0,53.0,1644845973.40625,P08,D08,1,1,1
1729,-34.0,-5.0,53.0,1644845973.4375,P08,D08,1,1,1
1730,-34.0,-5.0,53.0,1644845973.46875,P08,D08,1,1,1
1731,-34.0,-5.0,53.0,1644845973.5,P08,D08,1,1,1
1732,-35.0,-5.0,53.0,1644845973.53125,P08,D08,1,1,1
1733,-35.0,-5.0,53.0,1644845973.5625,P08,D08,1,1,1
1734,-34.0,-5.0,53.0,1644845973.59375,P08,D08,1,1,1
1735,-34.0,-5.0,53.0,1644845973.625,P08,D08,1,1,1
1736,-34.0,-5.0,53.0,1644845973.65625,P08,D08,1,1,1
1737,-34.0,-5.0,53.0,1644845973.6875,P08,D08,1,1,1
1738,-34.0,-5.0,53.0,1644845973.71875,P08,D08,1,1,1
1739,-34.0,-5.0,53.0,1644845973.75,P08,D08,1,1,1
1740,-34.0,-5.0,53.0,1644845973.78125,P08,D08,1,1,1
1741,-34.0,-5.0,53.0,1644845973.8125,P08,D08,1,1,1
1742,-34.0,-5.0,53.0,1644845973.84375,P08,D08,1,1,1
1743,-34.0,-5.0,53.0,1644845973.875,P08,D08,1,1,1
1744,-34.0,-5.0,53.0,1644845973.90625,P08,D08,1,1,1
1745,-34.0,-5.0,53.0,1644845973.9375,P08,D08,1,1,1
1746,-34.0,-6.0,53.0,1644845973.96875,P08,D08,1,1,1
1747,-34.0,-5.0,53.0,1644845974.0,P08,D08,1,1,1
1748,-34.0,-5.0,53.0,1644845974.03125,P08,D08,1,1,1
1749,-35.0,-5.0,53.0,1644845974.0625,P08,D08,1,1,1
1750,-34.0,-5.0,53.0,1644845974.09375,P08,D08,1,1,1
1751,-34.0,-5.0,53.0,1644845974.125,P08,D08,1,1,1
1752,-34.0,-5.0,53.0,1644845974.15625,P08,D08,1,1,1
1753,-34.0,-5.0,53.0,1644845974.1875,P08,D08,1,1,1
1754,-34.0,-5.0,53.0,1644845974.21875,P08,D08,1,1,1
1755,-34.0,-5.0,53.0,1644845974.25,P08,D08,1,1,1
1756,-34.0,-5.0,53.0,1644845974.28125,P08,D08,1,1,1
1757,-34.0,-5.0,53.0,1644845974.3125,P08,D08,1,1,1
1758,-34.0,-5.0,53.0,1644845974.34375,P08,D08,1,1,1
1759,-34.0,-6.0,53.0,1644845974.375,P08,D08,1,1,1
1760,-34.0,-6.0,53.0,1644845974.40625,P08,D08,1,1,1
1761,-34.0,-5.0,53.0,1644845974.4375,P08,D08,1,1,1
1762,-34.0,-5.0,53.0,1644845974.46875,P08,D08,1,1,1
1763,-34.0,-5.0,53.0,1644845974.5,P08,D08,1,1,1
1764,-34.0,-6.0,53.0,1644845974.53125,P08,D08,1,1,1
1765,-34.0,-5.0,53.0,1644845974.5625,P08,D08,1,1,1
1766,-34.0,-5.0,53.0,1644845974.59375,P08,D08,1,1,1
1767,-34.0,-5.0,53.0,1644845974.625,P08,D08,1,1,1
1768,-34.0,-5.0,53.0,1644845974.65625,P08,D08,1,1,1
1769,-34.0,-5.0,53.0,1644845974.6875,P08,D08,1,1,1
1770,-34.0,-6.0,53.0,1644845974.71875,P08,D08,1,1,1
1771,-34.0,-6.0,53.0,1644845974.75,P08,D08,1,1,1
1772,-34.0,-6.0,53.0,1644845974.78125,P08,D08,1,1,1
1773,-34.0,-6.0,53.0,1644845974.8125,P08,D08,1,1,1
1774,-34.0,-6.0,53.0,1644845974.84375,P08,D08,1,1,1
1775,-34.0,-5.0,53.0,1644845974.875,P08,D08,1,1,1
1776,-34.0,-5.0,53.0,1644845974.90625,P08,D08,1,1,1
1777,-34.0,-5.0,53.0,1644845974.9375,P08,D08,1,1,1
1778,-34.0,-6.0,53.0,1644845974.96875,P08,D08,1,1,1
1779,-34.0,-5.0,53.0,1644845975.0,P08,D08,1,1,1
1780,-34.0,-5.0,53.0,1644845975.03125,P08,D08,1,1,1
1781,-34.0,-6.0,53.0,1644845975.0625,P08,D08,1,1,1
1782,-34.0,-5.0,53.0,1644845975.09375,P08,D08,1,1,1
1783,-34.0,-5.0,53.0,1644845975.125,P08,D08,1,1,1
1784,-34.0,-6.0,53.0,1644845975.15625,P08,D08,1,1,1
1785,-34.0,-6.0,53.0,1644845975.1875,P08,D08,1,1,1
1786,-34.0,-6.0,53.0,1644845975.21875,P08,D08,1,1,1
1787,-34.0,-6.0,53.0,1644845975.25,P08,D08,1,1,1
1788,-34.0,-5.0,53.0,1644845975.28125,P08,D08,1,1,1
1789,-34.0,-6.0,53.0,1644845975.3125,P08,D08,1,1,1
1790,-34.0,-6.0,53.0,1644845975.34375,P08,D08,1,1,1
1791,-34.0,-6.0,53.0,1644845975.375,P08,D08,1,1,1
1792,-34.0,-6.0,53.0,1644845975.40625,P08,D08,1,1,1
1793,-34.0,-6.0,53.0,1644845975.4375,P08,D08,1,1,1
1794,-34.0,-6.0,53.0,1644845975.46875,P08,D08,1,1,1
1795,-34.0,-6.0,53.0,1644845975.5,P08,D08,1,1,1
1796,-34.0,-6.0,53.0,1644845975.53125,P08,D08,1,1,1
1797,-34.0,-6.0,53.0,1644845975.5625,P08,D08,1,1,1
1798,-33.0,-6.0,53.0,1644845975.59375,P08,D08,1,1,1
1799,-34.0,-6.0,53.0,1644845975.625,P08,D08,1,1,1
1800,-34.0,-5.0,53.0,1644845975.65625,P08,D08,1,1,1
1801,-34.0,-6.0,53.0,1644845975.6875,P08,D08,1,1,1
1802,-34.0,-5.0,53.0,1644845975.71875,P08,D08,1,1,1
1803,-34.0,-6.0,53.0,1644845975.75,P08,D08,1,1,1
1804,-34.0,-6.0,53.0,1644845975.78125,P08,D08,1,1,1
1805,-34.0,-6.0,53.0,1644845975.8125,P08,D08,1,1,1
1806,-34.0,-6.0,53.0,1644845975.84375,P08,D08,1,1,1
1807,-34.0,-6.0,53.0,1644845975.875,P08,D08,1,1,1
1808,-34.0,-6.0,53.0,1644845975.90625,P08,D08,1,1,1
1809,-34.0,-6.0,53.0,1644845975.9375,P08,D08,1,1,1
1810,-34.0,-6.0,53.0,1644845975.96875,P08,D08,1,1,1
1811,-34.0,-6.0,53.0,1644845976.0,P08,D08,1,1,1
1812,-34.0,-6.0,53.0,1644845976.03125,P08,D08,1,1,1
1813,-34.0,-6.0,53.0,1644845976.0625,P08,D08,1,1,1
1814,-34.0,-6.0,53.0,1644845976.09375,P08,D08,1,1,1
1815,-34.0,-6.0,53.0,1644845976.125,P08,D08,1,1,1
1816,-34.0,-6.0,53.0,1644845976.15625,P08,D08,1,1,1
1817,-34.0,-6.0,53.0,1644845976.1875,P08,D08,1,1,1
1818,-34.0,-6.0,53.0,1644845976.21875,P08,D08,1,1,1
1819,-34.0,-6.0,53.0,1644845976.25,P08,D08,1,1,1
1820,-34.0,-6.0,53.0,1644845976.28125,P08,D08,1,1,1
1821,-34.0,-6.0,53.0,1644845976.3125,P08,D08,1,1,1
1822,-34.0,-6.0,53.0,1644845976.34375,P08,D08,1,1,1
1823,-34.0,-6.0,53.0,1644845976.375,P08,D08,1,1,1
1824,-34.0,-6.0,53.0,1644845976.40625,P08,D08,1,1,1
1825,-34.0,-6.0,53.0,1644845976.4375,P08,D08,1,1,1
1826,-34.0,-6.0,53.0,1644845976.46875,P08,D08,1,1,1
1827,-34.0,-6.0,53.0,1644845976.5,P08,D08,1,1,1
1828,-34.0,-6.0,53.0,1644845976.53125,P08,D08,1,1,1
1829,-34.0,-6.0,53.0,1644845976.5625,P08,D08,1,1,1
1830,-33.0,-6.0,54.0,1644845976.59375,P08,D08,1,1,1
1831,-34.0,-6.0,53.0,1644845976.625,P08,D08,1,1,1
1832,-34.0,-6.0,53.0,1644845976.65625,P08,D08,1,1,1
1833,-34.0,-6.0,53.0,1644845976.6875,P08,D08,1,1,1
1834,-34.0,-6.0,53.0,1644845976.71875,P08,D08,1,1,1
1835,-34.0,-6.0,53.0,1644845976.75,P08,D08,1,1,1
1836,-34.0,-6.0,53.0,1644845976.78125,P08,D08,1,1,1
1837,-34.0,-6.0,53.0,1644845976.8125,P08,D08,1,1,1
1838,-34.0,-6.0,53.0,1644845976.84375,P08,D08,1,1,1
1839,-34.0,-6.0,53.0,1644845976.875,P08,D08,1,1,1
1840,-34.0,-6.0,53.0,1644845976.90625,P08,D08,1,1,1
1841,-34.0,-6.0,53.0,1644845976.9375,P08,D08,1,1,1
1842,-34.0,-6.0,53.0,1644845976.96875,P08,D08,1,1,1
1843,-34.0,-6.0,53.0,1644845977.0,P08,D08,1,1,1
1844,-34.0,-6.0,53.0,1644845977.03125,P08,D08,1,1,1
1845,-34.0,-6.0,53.0,1644845977.0625,P08,D08,1,1,1
1846,-34.0,-6.0,53.0,1644845977.09375,P08,D08,1,1,1
1847,-34.0,-6.0,53.0,1644845977.125,P08,D08,1,1,1
1848,-33.0,-7.0,53.0,1644845977.15625,P08,D08,1,1,1
1849,-34.0,-6.0,53.0,1644845977.1875,P08,D08,1,1,1
1850,-34.0,-6.0,54.0,1644845977.21875,P08,D08,1,1,1
1851,-34.0,-6.0,53.0,1644845977.25,P08,D08,1,1,1
1852,-33.0,-6.0,53.0,1644845977.28125,P08,D08,1,1,1
1853,-34.0,-6.0,54.0,1644845977.3125,P08,D08,1,1,1
1854,-34.0,-6.0,53.0,1644845977.34375,P08,D08,1,1,1
1855,-33.0,-6.0,54.0,1644845977.375,P08,D08,1,1,1
1856,-34.0,-6.0,53.0,1644845977.40625,P08,D08,1,1,1
1857,-33.0,-6.0,53.0,1644845977.4375,P08,D08,1,1,1
1858,-34.0,-6.0,53.0,1644845977.46875,P08,D08,1,1,1
1859,-34.0,-6.0,53.0,1644845977.5,P08,D08,1,1,1
1860,-33.0,-6.0,53.0,1644845977.53125,P08,D08,1,1,1
1861,-34.0,-6.0,53.0,1644845977.5625,P08,D08,1,1,1
1862,-34.0,-6.0,53.0,1644845977.59375,P08,D08,1,1,1
1863,-34.0,-6.0,53.0,1644845977.625,P08,D08,1,1,1
1864,-34.0,-6.0,53.0,1644845977.65625,P08,D08,1,1,1
1865,-34.0,-6.0,53.0,1644845977.6875,P08,D08,1,1,1
1866,-34.0,-7.0,53.0,1644845977.71875,P08,D08,1,1,1
1867,-34.0,-6.0,53.0,1644845977.75,P08,D08,1,1,1
1868,-34.0,-6.0,53.0,1644845977.78125,P08,D08,1,1,1
1869,-33.0,-6.0,53.0,1644845977.8125,P08,D08,1,1,1
1870,-33.0,-6.0,53.0,1644845977.84375,P08,D08,1,1,1
1871,-34.0,-6.0,53.0,1644845977.875,P08,D08,1,1,1
1872,-34.0,-6.0,53.0,1644845977.90625,P08,D08,1,1,1
1873,-34.0,-6.0,53.0,1644845977.9375,P08,D08,1,1,1
1874,-33.0,-7.0,53.0,1644845977.96875,P08,D08,1,1,1
1875,-34.0,-6.0,53.0,1644845978.0,P08,D08,1,1,1
1876,-34.0,-6.0,53.0,1644845978.03125,P08,D08,1,1,1
1877,-34.0,-6.0,53.0,1644845978.0625,P08,D08,1,1,1
1878,-33.0,-6.0,53.0,1644845978.09375,P08,D08,1,1,1
1879,-34.0,-6.0,53.0,1644845978.125,P08,D08,1,1,1
1880,-34.0,-6.0,53.0,1644845978.15625,P08,D08,1,1,1
1881,-34.0,-7.0,53.0,1644845978.1875,P08,D08,1,1,1
1882,-33.0,-6.0,54.0,1644845978.21875,P08,D08,1,1,1
1883,-34.0,-6.0,53.0,1644845978.25,P08,D08,1,1,1
1884,-34.0,-6.0,53.0,1644845978.28125,P08,D08,1,1,1
1885,-34.0,-7.0,53.0,1644845978.3125,P08,D08,1,1,1
1886,-34.0,-7.0,53.0,1644845978.34375,P08,D08,1,1,1
1887,-34.0,-6.0,53.0,1644845978.375,P08,D08,1,1,1
1888,-34.0,-6.0,53.0,1644845978.40625,P08,D08,1,1,1
1889,-34.0,-6.0,54.0,1644845978.4375,P08,D08,1,1,1
1890,-33.0,-6.0,54.0,1644845978.46875,P08,D08,1,1,1
1891,-34.0,-6.0,53.0,1644845978.5,P08,D08,1,1,1
1892,-34.0,-6.0,53.0,1644845978.53125,P08,D08,1,1,1
1893,-34.0,-6.0,54.0,1644845978.5625,P08,D08,1,1,1
1894,-33.0,-7.0,53.0,1644845978.59375,P08,D08,1,1,1
1895,-34.0,-7.0,53.0,1644845978.625,P08,D08,1,1,1
1896,-34.0,-6.0,54.0,1644845978.65625,P08,D08,1,1,1
1897,-34.0,-6.0,53.0,1644845978.6875,P08,D08,1,1,1
1898,-33.0,-6.0,53.0,1644845978.71875,P08,D08,1,1,1
1899,-34.0,-6.0,54.0,1644845978.75,P08,D08,1,1,1
1900,-34.0,-6.0,54.0,1644845978.78125,P08,D08,1,1,1
1901,-33.0,-6.0,53.0,1644845978.8125,P08,D08,1,1,1
1902,-33.0,-6.0,53.0,1644845978.84375,P08,D08,1,1,1
1903,-33.0,-6.0,53.0,1644845978.875,P08,D08,1,1,1
1904,-34.0,-6.0,53.0,1644845978.90625,P08,D08,1,1,1
1905,-34.0,-7.0,53.0,1644845978.9375,P08,D08,1,1,1
1906,-34.0,-6.0,53.0,1644845978.96875,P08,D08,1,1,1
1907,-34.0,-6.0,53.0,1644845979.0,P08,D08,1,1,1
1908,-34.0,-6.0,53.0,1644845979.03125,P08,D08,1,1,1
1909,-33.0,-6.0,54.0,1644845979.0625,P08,D08,1,1,1
1910,-34.0,-6.0,54.0,1644845979.09375,P08,D08,1,1,1
1911,-33.0,-6.0,54.0,1644845979.125,P08,D08,1,1,1
1912,-33.0,-6.0,53.0,1644845979.15625,P08,D08,1,1,1
1913,-34.0,-7.0,53.0,1644845979.1875,P08,D08,1,1,1
1914,-34.0,-6.0,53.0,1644845979.21875,P08,D08,1,1,1
1915,-33.0,-6.0,54.0,1644845979.25,P08,D08,1,1,1
1916,-33.0,-6.0,53.0,1644845979.28125,P08,D08,1,1,1
1917,-34.0,-6.0,54.0,1644845979.3125,P08,D08,1,1,1
1918,-34.0,-6.0,54.0,1644845979.34375,P08,D08,1,1,1
1919,-34.0,-6.0,54.0,1644845979.375,P08,D08,1,1,1
1920,-33.0,-6.0,53.0,1644845979.40625,P08,D08,1,1,1
1921,-33.0,-6.0,53.0,1644845979.4375,P08,D08,1,1,1
1922,-34.0,-6.0,53.0,1644845979.46875,P08,D08,1,1,1
1923,-34.0,-6.0,53.0,1644845979.5,P08,D08,1,1,1
1924,-34.0,-6.0,53.0,1644845979.53125,P08,D08,1,1,1
1925,-33.0,-6.0,53.0,1644845979.5625,P08,D08,1,1,1
1926,-33.0,-6.0,53.0,1644845979.59375,P08,D08,1,1,1
1927,-33.0,-6.0,53.0,1644845979.625,P08,D08,1,1,1
1928,-34.0,-6.0,53.0,1644845979.65625,P08,D08,1,1,1
1929,-34.0,-6.0,53.0,1644845979.6875,P08,D08,1,1,1
1930,-34.0,-6.0,54.0,1644845979.71875,P08,D08,1,1,1
1931,-33.0,-6.0,53.0,1644845979.75,P08,D08,1,1,1
1932,-34.0,-6.0,53.0,1644845979.78125,P08,D08,1,1,1
1933,-34.0,-6.0,53.0,1644845979.8125,P08,D08,1,1,1
1934,-34.0,-6.0,53.0,1644845979.84375,P08,D08,1,1,1
1935,-33.0,-6.0,53.0,1644845979.875,P08,D08,1,1,1
1936,-34.0,-6.0,54.0,1644845979.90625,P08,D08,1,1,1
1937,-34.0,-6.0,53.0,1644845979.9375,P08,D08,1,1,1
1938,-33.0,-6.0,53.0,1644845979.96875,P08,D08,1,1,1
1939,-33.0,-6.0,53.0,1644845980.0,P08,D08,1,1,1
1940,-34.0,-6.0,54.0,1644845980.03125,P08,D08,1,1,1
1941,-33.0,-6.0,53.0,1644845980.0625,P08,D08,1,1,1
1942,-34.0,-6.0,53.0,1644845980.09375,P08,D08,1,1,1
1943,-34.0,-6.0,53.0,1644845980.125,P08,D08,1,1,1
1944,-33.0,-6.0,53.0,1644845980.15625,P08,D08,1,1,1
1945,-34.0,-6.0,53.0,1644845980.1875,P08,D08,1,1,1
1946,-34.0,-6.0,53.0,1644845980.21875,P08,D08,1,1,1
1947,-33.0,-6.0,54.0,1644845980.25,P08,D08,1,1,1
1948,-34.0,-6.0,53.0,1644845980.28125,P08,D08,1,1,1
1949,-34.0,-6.0,53.0,1644845980.3125,P08,D08,1,1,1
1950,-33.0,-6.0,53.0,1644845980.34375,P08,D08,1,1,1
1951,-34.0,-6.0,53.0,1644845980.375,P08,D08,1,1,1
1952,-33.0,-6.0,53.0,1644845980.40625,P08,D08,1,1,1
1953,-33.0,-6.0,53.0,1644845980.4375,P08,D08,1,1,1
1954,-34.0,-6.0,53.0,1644845980.46875,P08,D08,1,1,1
1955,-34.0,-6.0,53.0,1644845980.5,P08,D08,1,1,1
1956,-34.0,-6.0,53.0,1644845980.53125,P08,D08,1,1,1
1957,-33.0,-6.0,53.0,1644845980.5625,P08,D08,1,1,1
1958,-33.0,-6.0,53.0,1644845980.59375,P08,D08,1,1,1
1959,-34.0,-6.0,53.0,1644845980.625,P08,D08,1,1,1
1960,-34.0,-6.0,53.0,1644845980.65625,P08,D08,1,1,1
1961,-34.0,-6.0,53.0,1644845980.6875,P08,D08,1,1,1
1962,-34.0,-6.0,53.0,1644845980.71875,P08,D08,1,1,1
1963,-33.0,-6.0,53.0,1644845980.75,P08,D08,1,1,1
1964,-33.0,-6.0,53.0,1644845980.78125,P08,D08,1,1,1
1965,-34.0,-6.0,53.0,1644845980.8125,P08,D08,1,1,1
1966,-34.0,-6.0,54.0,1644845980.84375,P08,D08,1,1,1
1967,-34.0,-6.0,54.0,1644845980.875,P08,D08,1,1,1
1968,-33.0,-6.0,53.0,1644845980.90625,P08,D08,1,1,1
1969,-33.0,-6.0,53.0,1644845980.9375,P08,D08,1,1,1
1970,-34.0,-6.0,53.0,1644845980.96875,P08,D08,1,1,1
1971,-34.0,-6.0,53.0,1644845981.0,P08,D08,1,1,1
1972,-33.0,-6.0,53.0,1644845981.03125,P08,D08,1,1,1
1973,-34.0,-6.0,54.0,1644845981.0625,P08,D08,1,1,1
1974,-34.0,-6.0,53.0,1644845981.09375,P08,D08,1,1,1
1975,-34.0,-6.0,54.0,1644845981.125,P08,D08,1,1,1
1976,-33.0,-6.0,53.0,1644845981.15625,P08,D08,1,1,1
1977,-33.0,-6.0,53.0,1644845981.1875,P08,D08,1,1,1
1978,-33.0,-6.0,53.0,1644845981.21875,P08,D08,1,1,1
1979,-33.0,-7.0,53.0,1644845981.25,P08,D08,1,1,1
1980,-34.0,-6.0,53.0,1644845981.28125,P08,D08,1,1,1
1981,-34.0,-6.0,53.0,1644845981.3125,P08,D08,1,1,1
1982,-33.0,-6.0,53.0,1644845981.34375,P08,D08,1,1,1
1983,-33.0,-6.0,53.0,1644845981.375,P08,D08,1,1,1
1984,-34.0,-6.0,53.0,1644845981.40625,P08,D08,1,1,1
1985,-34.0,-6.0,54.0,1644845981.4375,P08,D08,1,1,1
1986,-33.0,-6.0,54.0,1644845981.46875,P08,D08,1,1,1
1987,-33.0,-6.0,53.0,1644845981.5,P08,D08,1,1,1
1988,-33.0,-6.0,53.0,1644845981.53125,P08,D08,1,1,1
1989,-33.0,-6.0,53.0,1644845981.5625,P08,D08,1,1,1
1990,-34.0,-6.0,53.0,1644845981.59375,P08,D08,1,1,1
1991,-33.0,-6.0,53.0,1644845981.625,P08,D08,1,1,1
1992,-34.0,-7.0,53.0,1644845981.65625,P08,D08,1,1,1
1993,-34.0,-6.0,54.0,1644845981.6875,P08,D08,1,1,1
1994,-34.0,-6.0,53.0,1644845981.71875,P08,D08,1,1,1
1995,-33.0,-6.0,53.0,1644845981.75,P08,D08,1,1,1
1996,-33.0,-6.0,54.0,1644845981.78125,P08,D08,1,1,1
1997,-33.0,-6.0,53.0,1644845981.8125,P08,D08,1,1,1
1998,-33.0,-6.0,53.0,1644845981.84375,P08,D08,1,1,1
1999,-34.0,-6.0,53.0,1644845981.875,P08,D08,1,1,1
2000,-34.0,-6.0,53.0,1644845981.90625,P08,D08,1,1,1
2001,-33.0,-6.0,53.0,1644845981.9375,P08,D08,1,1,1
2002,-34.0,-6.0,53.0,1644845981.96875,P08,D08,1,1,1
2003,-34.0,-6.0,53.0,1644845982.0,P08,D08,1,1,1
2004,-34.0,-6.0,54.0,1644845982.03125,P08,D08,1,1,1
2005,-34.0,-6.0,53.0,1644845982.0625,P08,D08,1,1,1
2006,-34.0,-6.0,53.0,1644845982.09375,P08,D08,1,1,1
2007,-34.0,-6.0,53.0,1644845982.125,P08,D08,1,1,1
2008,-34.0,-6.0,53.0,1644845982.15625,P08,D08,1,1,1
2009,-33.0,-6.0,53.0,1644845982.1875,P08,D08,1,1,1
2010,-34.0,-6.0,53.0,1644845982.21875,P08,D08,1,1,1
2011,-34.0,-6.0,54.0,1644845982.25,P08,D08,1,1,1
2012,-34.0,-6.0,53.0,1644845982.28125,P08,D08,1,1,1
2013,-33.0,-7.0,53.0,1644845982.3125,P08,D08,1,1,1
2014,-33.0,-6.0,53.0,1644845982.34375,P08,D08,1,1,1
2015,-34.0,-6.0,53.0,1644845982.375,P08,D08,1,1,1
2016,-34.0,-6.0,53.0,1644845982.40625,P08,D08,1,1,1
2017,-34.0,-6.0,54.0,1644845982.4375,P08,D08,1,1,1
2018,-34.0,-6.0,53.0,1644845982.46875,P08,D08,1,1,1
2019,-33.0,-6.0,53.0,1644845982.5,P08,D08,1,1,1
2020,-33.0,-6.0,53.0,1644845982.53125,P08,D08,1,1,1
2021,-34.0,-6.0,53.0,1644845982.5625,P08,D08,1,1,1
2022,-34.0,-6.0,53.0,1644845982.59375,P08,D08,1,1,1
2023,-33.0,-6.0,53.0,1644845982.625,P08,D08,1,1,1
2024,-33.0,-6.0,53.0,1644845982.65625,P08,D08,1,1,1
2025,-34.0,-6.0,53.0,1644845982.6875,P08,D08,1,1,1
2026,-34.0,-6.0,53.0,1644845982.71875,P08,D08,1,1,1
2027,-34.0,-6.0,53.0,1644845982.75,P08,D08,1,1,1
2028,-34.0,-6.0,53.0,1644845982.78125,P08,D08,1,1,1
2029,-33.0,-6.0,53.0,1644845982.8125,P08,D08,1,1,1
2030,-34.0,-6.0,53.0,1644845982.84375,P08,D08,1,1,1
2031,-34.0,-6.0,53.0,1644845982.875,P08,D08,1,1,1
2032,-34.0,-6.0,53.0,1644845982.90625,P08,D08,1,1,1
2033,-33.0,-6.0,53.0,1644845982.9375,P08,D08,1,1,1
2034,-34.0,-6.0,53.0,1644845982.96875,P08,D08,1,1,1
2035,-33.0,-6.0,53.0,1644845983.0,P08,D08,1,1,1
2036,-33.0,-6.0,53.0,1644845983.03125,P08,D08,1,1,1
2037,-34.0,-6.0,53.0,1644845983.0625,P08,D08,1,1,1
2038,-34.0,-6.0,53.0,1644845983.09375,P08,D08,1,1,1
2039,-33.0,-6.0,53.0,1644845983.125,P08,D08,1,1,1
2040,-33.0,-6.0,53.0,1644845983.15625,P08,D08,1,1,1
2041,-34.0,-6.0,53.0,1644845983.1875,P08,D08,1,1,1
2042,-34.0,-6.0,53.0,1644845983.21875,P08,D08,1,1,1
2043,-33.0,-6.0,54.0,1644845983.25,P08,D08,1,1,1
2044,-34.0,-6.0,53.0,1644845983.28125,P08,D08,1,1,1
2045,-34.0,-6.0,53.0,1644845983.3125,P08,D08,1,1,1
2046,-34.0,-6.0,53.0,1644845983.34375,P08,D08,1,1,1
2047,-33.0,-6.0,53.0,1644845983.375,P08,D08,1,1,1
2048,-33.0,-6.0,53.0,1644845983.40625,P08,D08,1,1,1
2049,-33.0,-6.0,54.0,1644845983.4375,P08,D08,1,1,1
2050,-33.0,-6.0,54.0,1644845983.46875,P08,D08,1,1,1
2051,-33.0,-6.0,53.0,1644845983.5,P08,D08,1,1,1
2052,-33.0,-6.0,53.0,1644845983.53125,P08,D08,1,1,1
2053,-33.0,-6.0,54.0,1644845983.5625,P08,D08,1,1,1
2054,-33.0,-6.0,54.0,1644845983.59375,P08,D08,1,1,1
2055,-33.0,-6.0,54.0,1644845983.625,P08,D08,1,1,1
2056,-34.0,-6.0,53.0,1644845983.65625,P08,D08,1,1,1
2057,-34.0,-6.0,54.0,1644845983.6875,P08,D08,1,1,1
2058,-33.0,-6.0,53.0,1644845983.71875,P08,D08,1,1,1
2059,-33.0,-6.0,53.0,1644845983.75,P08,D08,1,1,1
2060,-33.0,-6.0,53.0,1644845983.78125,P08,D08,1,1,1
2061,-33.0,-6.0,54.0,1644845983.8125,P08,D08,1,1,1
2062,-33.0,-6.0,54.0,1644845983.84375,P08,D08,1,1,1
2063,-33.0,-6.0,54.0,1644845983.875,P08,D08,1,1,1
2064,-33.0,-6.0,53.0,1644845983.90625,P08,D08,1,1,1
2065,-34.0,-6.0,53.0,1644845983.9375,P08,D08,1,1,1
2066,-33.0,-6.0,53.0,1644845983.96875,P08,D08,1,1,1
2067,-34.0,-6.0,53.0,1644845984.0,P08,D08,1,1,1
2068,-33.0,-6.0,53.0,1644845984.03125,P08,D08,1,1,1
2069,-34.0,-6.0,54.0,1644845984.0625,P08,D08,1,1,1
2070,-34.0,-6.0,54.0,1644845984.09375,P08,D08,1,1,1
2071,-33.0,-6.0,53.0,1644845984.125,P08,D08,1,1,1
2072,-33.0,-6.0,53.0,1644845984.15625,P08,D08,1,1,1
2073,-34.0,-6.0,54.0,1644845984.1875,P08,D08,1,1,1
2074,-33.0,-6.0,53.0,1644845984.21875,P08,D08,1,1,1
2075,-33.0,-6.0,53.0,1644845984.25,P08,D08,1,1,1
2076,-34.0,-6.0,53.0,1644845984.28125,P08,D08,1,1,1
2077,-34.0,-6.0,53.0,1644845984.3125,P08,D08,1,1,1
2078,-33.0,-6.0,54.0,1644845984.34375,P08,D08,1,1,1
2079,-33.0,-6.0,53.0,1644845984.375,P08,D08,1,1,1
2080,-33.0,-6.0,54.0,1644845984.40625,P08,D08,1,1,1
2081,-34.0,-6.0,54.0,1644845984.4375,P08,D08,1,1,1
2082,-34.0,-6.0,53.0,1644845984.46875,P08,D08,1,1,1
2083,-33.0,-6.0,53.0,1644845984.5,P08,D08,1,1,1
2084,-34.0,-6.0,53.0,1644845984.53125,P08,D08,1,1,1
2085,-34.0,-6.0,53.0,1644845984.5625,P08,D08,1,1,1
2086,-33.0,-6.0,53.0,1644845984.59375,P08,D08,1,1,1
2087,-33.0,-6.0,53.0,1644845984.625,P08,D08,1,1,1
2088,-33.0,-6.0,54.0,1644845984.65625,P08,D08,1,1,1
2089,-34.0,-6.0,53.0,1644845984.6875,P08,D08,1,1,1
2090,-34.0,-6.0,53.0,1644845984.71875,P08,D08,1,1,1
2091,-33.0,-6.0,53.0,1644845984.75,P08,D08,1,1,1
2092,-33.0,-6.0,54.0,1644845984.78125,P08,D08,1,1,1
2093,-33.0,-6.0,54.0,1644845984.8125,P08,D08,1,1,1
2094,-34.0,-6.0,53.0,1644845984.84375,P08,D08,1,1,1
2095,-34.0,-6.0,53.0,1644845984.875,P08,D08,1,1,1
2096,-34.0,-6.0,53.0,1644845984.90625,P08,D08,1,1,1
2097,-34.0,-6.0,53.0,1644845984.9375,P08,D08,1,1,1
2098,-33.0,-6.0,53.0,1644845984.96875,P08,D08,1,1,1
2099,-33.0,-6.0,54.0,1644845985.0,P08,D08,1,1,1
2100,-33.0,-6.0,54.0,1644845985.03125,P08,D08,1,1,1
2101,-33.0,-6.0,53.0,1644845985.0625,P08,D08,1,1,1
2102,-34.0,-7.0,53.0,1644845985.09375,P08,D08,1,1,1
2103,-34.0,-6.0,53.0,1644845985.125,P08,D08,1,1,1
2104,-34.0,-6.0,53.0,1644845985.15625,P08,D08,1,1,1
2105,-33.0,-6.0,53.0,1644845985.1875,P08,D08,1,1,1
2106,-33.0,-6.0,53.0,1644845985.21875,P08,D08,1,1,1
2107,-34.0,-6.0,53.0,1644845985.25,P08,D08,1,1,1
2108,-33.0,-6.0,54.0,1644845985.28125,P08,D08,1,1,1
2109,-34.0,-6.0,54.0,1644845985.3125,P08,D08,1,1,1
2110,-34.0,-6.0,53.0,1644845985.34375,P08,D08,1,1,1
2111,-34.0,-6.0,53.0,1644845985.375,P08,D08,1,1,1
2112,-33.0,-6.0,53.0,1644845985.40625,P08,D08,1,1,1
2113,-34.0,-7.0,53.0,1644845985.4375,P08,D08,1,1,1
2114,-34.0,-6.0,53.0,1644845985.46875,P08,D08,1,1,1
2115,-33.0,-6.0,53.0,1644845985.5,P08,D08,1,1,1
2116,-34.0,-7.0,53.0,1644845985.53125,P08,D08,1,1,1
2117,-34.0,-6.0,53.0,1644845985.5625,P08,D08,1,1,1
2118,-34.0,-6.0,53.0,1644845985.59375,P08,D08,1,1,1
2119,-33.0,-6.0,53.0,1644845985.625,P08,D08,1,1,1
2120,-34.0,-7.0,53.0,1644845985.65625,P08,D08,1,1,1
2121,-33.0,-6.0,54.0,1644845985.6875,P08,D08,1,1,1
2122,-33.0,-6.0,53.0,1644845985.71875,P08,D08,1,1,1
2123,-33.0,-6.0,53.0,1644845985.75,P08,D08,1,1,1
2124,-34.0,-6.0,53.0,1644845985.78125,P08,D08,1,1,1
2125,-34.0,-6.0,53.0,1644845985.8125,P08,D08,1,1,1
2126,-33.0,-6.0,54.0,1644845985.84375,P08,D08,1,1,1
2127,-33.0,-6.0,53.0,1644845985.875,P08,D08,1,1,1
2128,-33.0,-6.0,53.0,1644845985.90625,P08,D08,1,1,1
2129,-34.0,-6.0,53.0,1644845985.9375,P08,D08,1,1,1
2130,-34.0,-6.0,53.0,1644845985.96875,P08,D08,1,1,1
2131,-34.0,-7.0,53.0,1644845986.0,P08,D08,1,1,1
2132,-34.0,-6.0,53.0,1644845986.03125,P08,D08,1,1,1
2133,-33.0,-6.0,53.0,1644845986.0625,P08,D08,1,1,1
2134,-33.0,-6.0,53.0,1644845986.09375,P08,D08,1,1,1
2135,-34.0,-6.0,54.0,1644845986.125,P08,D08,1,1,1
2136,-33.0,-7.0,53.0,1644845986.15625,P08,D08,1,1,1
2137,-34.0,-7.0,53.0,1644845986.1875,P08,D08,1,1,1
2138,-34.0,-6.0,53.0,1644845986.21875,P08,D08,1,1,1
2139,-34.0,-6.0,53.0,1644845986.25,P08,D08,1,1,1
2140,-33.0,-7.0,53.0,1644845986.28125,P08,D08,1,1,1
2141,-33.0,-6.0,53.0,1644845986.3125,P08,D08,1,1,1
2142,-33.0,-6.0,54.0,1644845986.34375,P08,D08,1,1,1
2143,-33.0,-6.0,53.0,1644845986.375,P08,D08,1,1,1
2144,-33.0,-7.0,54.0,1644845986.40625,P08,D08,1,1,1
2145,-33.0,-7.0,53.0,1644845986.4375,P08,D08,1,1,1
2146,-33.0,-7.0,53.0,1644845986.46875,P08,D08,1,1,1
2147,-34.0,-6.0,53.0,1644845986.5,P08,D08,1,1,1
2148,-33.0,-6.0,53.0,1644845986.53125,P08,D08,1,1,1
2149,-33.0,-7.0,53.0,1644845986.5625,P08,D08,1,1,1
2150,-33.0,-7.0,53.0,1644845986.59375,P08,D08,1,1,1
2151,-34.0,-6.0,53.0,1644845986.625,P08,D08,1,1,1
2152,-34.0,-7.0,53.0,1644845986.65625,P08,D08,1,1,1
2153,-33.0,-7.0,53.0,1644845986.6875,P08,D08,1,1,1
2154,-33.0,-6.0,54.0,1644845986.71875,P08,D08,1,1,1
2155,-34.0,-7.0,53.0,1644845986.75,P08,D08,1,1,1
2156,-34.0,-6.0,53.0,1644845986.78125,P08,D08,1,1,1
2157,-33.0,-6.0,54.0,1644845986.8125,P08,D08,1,1,1
2158,-33.0,-6.0,53.0,1644845986.84375,P08,D08,1,1,1
2159,-33.0,-6.0,53.0,1644845986.875,P08,D08,1,1,1
2160,-33.0,-7.0,53.0,1644845986.90625,P08,D08,1,1,1
2161,-33.0,-7.0,53.0,1644845986.9375,P08,D08,1,1,1
2162,-33.0,-7.0,54.0,1644845986.96875,P08,D08,1,1,1
2163,-33.0,-6.0,53.0,1644845987.0,P08,D08,1,1,1
2164,-33.0,-6.0,53.0,1644845987.03125,P08,D08,1,1,1
2165,-33.0,-6.0,53.0,1644845987.0625,P08,D08,1,1,1
2166,-33.0,-6.0,53.0,1644845987.09375,P08,D08,1,1,1
2167,-34.0,-6.0,53.0,1644845987.125,P08,D08,1,1,1
2168,-33.0,-6.0,54.0,1644845987.15625,P08,D08,1,1,1
2169,-33.0,-6.0,54.0,1644845987.1875,P08,D08,1,1,1
2170,-32.0,-7.0,54.0,1644845987.21875,P08,D08,1,1,1
2171,-33.0,-6.0,54.0,1644845987.25,P08,D08,1,1,1
2172,-33.0,-6.0,54.0,1644845987.28125,P08,D08,1,1,1
2173,-34.0,-7.0,54.0,1644845987.3125,P08,D08,1,1,1
2174,-33.0,-6.0,53.0,1644845987.34375,P08,D08,1,1,1
2175,-33.0,-6.0,54.0,1644845987.375,P08,D08,1,1,1
2176,-33.0,-7.0,53.0,1644845987.40625,P08,D08,1,1,1
2177,-33.0,-6.0,54.0,1644845987.4375,P08,D08,1,1,1
2178,-33.0,-7.0,53.0,1644845987.46875,P08,D08,1,1,1
2179,-33.0,-7.0,54.0,1644845987.5,P08,D08,1,1,1
2180,-33.0,-7.0,53.0,1644845987.53125,P08,D08,1,1,1
2181,-33.0,-7.0,53.0,1644845987.5625,P08,D08,1,1,1
2182,-33.0,-6.0,54.0,1644845987.59375,P08,D08,1,1,1
2183,-33.0,-7.0,53.0,1644845987.625,P08,D08,1,1,1
2184,-33.0,-6.0,54.0,1644845987.65625,P08,D08,1,1,1
2185,-33.0,-6.0,54.0,1644845987.6875,P08,D08,1,1,1
2186,-33.0,-7.0,53.0,1644845987.71875,P08,D08,1,1,1
2187,-33.0,-6.0,53.0,1644845987.75,P08,D08,1,1,1
2188,-33.0,-6.0,54.0,1644845987.78125,P08,D08,1,1,1
2189,-33.0,-7.0,54.0,1644845987.8125,P08,D08,1,1,1
2190,-33.0,-6.0,54.0,1644845987.84375,P08,D08,1,1,1
2191,-33.0,-7.0,53.0,1644845987.875,P08,D08,1,1,1
2192,-33.0,-7.0,53.0,1644845987.90625,P08,D08,1,1,1
2193,-33.0,-7.0,54.0,1644845987.9375,P08,D08,1,1,1
2194,-33.0,-6.0,54.0,1644845987.96875,P08,D08,1,1,1
2195,-33.0,-6.0,53.0,1644845988.0,P08,D08,1,1,1
2196,-33.0,-6.0,53.0,1644845988.03125,P08,D08,1,1,1
2197,-33.0,-7.0,53.0,1644845988.0625,P08,D08,1,1,1
2198,-33.0,-7.0,54.0,1644845988.09375,P08,D08,1,1,1
2199,-33.0,-7.0,53.0,1644845988.125,P08,D08,1,1,1
2200,-33.0,-7.0,54.0,1644845988.15625,P08,D08,1,1,1
2201,-33.0,-7.0,53.0,1644845988.1875,P08,D08,1,1,1
2202,-33.0,-6.0,54.0,1644845988.21875,P08,D08,1,1,1
2203,-33.0,-7.0,54.0,1644845988.25,P08,D08,1,1,1
2204,-33.0,-6.0,54.0,1644845988.28125,P08,D08,1,1,1
2205,-33.0,-7.0,54.0,1644845988.3125,P08,D08,1,1,1
2206,-33.0,-6.0,54.0,1644845988.34375,P08,D08,1,1,1
2207,-33.0,-7.0,53.0,1644845988.375,P08,D08,1,1,1
2208,-33.0,-6.0,54.0,1644845988.40625,P08,D08,1,1,1
2209,-33.0,-6.0,54.0,1644845988.4375,P08,D08,1,1,1
2210,-33.0,-6.0,53.0,1644845988.46875,P08,D08,1,1,1
2211,-33.0,-6.0,53.0,1644845988.5,P08,D08,1,1,1
2212,-33.0,-7.0,54.0,1644845988.53125,P08,D08,1,1,1
2213,-34.0,-7.0,54.0,1644845988.5625,P08,D08,1,1,1
2214,-33.0,-7.0,53.0,1644845988.59375,P08,D08,1,1,1
2215,-33.0,-6.0,54.0,1644845988.625,P08,D08,1,1,1
2216,-33.0,-7.0,53.0,1644845988.65625,P08,D08,1,1,1
2217,-33.0,-6.0,54.0,1644845988.6875,P08,D08,1,1,1
2218,-33.0,-7.0,54.0,1644845988.71875,P08,D08,1,1,1
2219,-34.0,-7.0,53.0,1644845988.75,P08,D08,1,1,1
2220,-33.0,-7.0,53.0,1644845988.78125,P08,D08,1,1,1
2221,-33.0,-7.0,53.0,1644845988.8125,P08,D08,1,1,1
2222,-33.0,-6.0,53.0,1644845988.84375,P08,D08,1,1,1
2223,-34.0,-6.0,53.0,1644845988.875,P08,D08,1,1,1
2224,-33.0,-6.0,54.0,1644845988.90625,P08,D08,1,1,1
2225,-33.0,-7.0,54.0,1644845988.9375,P08,D08,1,1,1
2226,-33.0,-7.0,53.0,1644845988.96875,P08,D08,1,1,1
2227,-33.0,-7.0,53.0,1644845989.0,P08,D08,1,1,1
2228,-33.0,-6.0,53.0,1644845989.03125,P08,D08,1,1,1
2229,-34.0,-6.0,53.0,1644845989.0625,P08,D08,1,1,1
2230,-34.0,-6.0,53.0,1644845989.09375,P08,D08,1,1,1
2231,-34.0,-6.0,53.0,1644845989.125,P08,D08,1,1,1
2232,-34.0,-6.0,54.0,1644845989.15625,P08,D08,1,1,1
2233,-34.0,-6.0,53.0,1644845989.1875,P08,D08,1,1,1
2234,-33.0,-5.0,53.0,1644845989.21875,P08,D08,1,1,1
2235,-34.0,-6.0,53.0,1644845989.25,P08,D08,1,1,1
2236,-34.0,-6.0,54.0,1644845989.28125,P08,D08,1,1,1
2237,-34.0,-6.0,54.0,1644845989.3125,P08,D08,1,1,1
2238,-33.0,-6.0,53.0,1644845989.34375,P08,D08,1,1,1
2239,-34.0,-6.0,53.0,1644845989.375,P08,D08,1,1,1
2240,-34.0,-6.0,53.0,1644845989.40625,P08,D08,1,1,1
2241,-34.0,-6.0,53.0,1644845989.4375,P08,D08,1,1,1
2242,-33.0,-6.0,53.0,1644845989.46875,P08,D08,1,1,1
2243,-34.0,-6.0,53.0,1644845989.5,P08,D08,1,1,1
2244,-34.0,-6.0,53.0,1644845989.53125,P08,D08,1,1,1
2245,-34.0,-6.0,53.0,1644845989.5625,P08,D08,1,1,1
2246,-34.0,-6.0,53.0,1644845989.59375,P08,D08,1,1,1
2247,-34.0,-6.0,53.0,1644845989.625,P08,D08,1,1,1
2248,-34.0,-6.0,53.0,1644845989.65625,P08,D08,1,1,1
2249,-34.0,-5.0,53.0,1644845989.6875,P08,D08,1,1,1
2250,-34.0,-6.0,53.0,1644845989.71875,P08,D08,1,1,1
2251,-33.0,-6.0,54.0,1644845989.75,P08,D08,1,1,1
2252,-34.0,-6.0,53.0,1644845989.78125,P08,D08,1,1,1
2253,-34.0,-6.0,53.0,1644845989.8125,P08,D08,1,1,1
2254,-34.0,-6.0,53.0,1644845989.84375,P08,D08,1,1,1
2255,-34.0,-6.0,53.0,1644845989.875,P08,D08,1,1,1
2256,-34.0,-6.0,53.0,1644845989.90625,P08,D08,1,1,1
2257,-34.0,-6.0,53.0,1644845989.9375,P08,D08,1,1,1
2258,-34.0,-6.0,53.0,1644845989.96875,P08,D08,1,1,1
2259,-34.0,-6.0,53.0,1644845990.0,P08,D08,1,1,1
2260,-34.0,-6.0,53.0,1644845990.03125,P08,D08,1,1,1
2261,-34.0,-6.0,53.0,1644845990.0625,P08,D08,1,1,1
2262,-34.0,-6.0,53.0,1644845990.09375,P08,D08,1,1,1
2263,-34.0,-6.0,53.0,1644845990.125,P08,D08,1,1,1
2264,-34.0,-7.0,53.0,1644845990.15625,P08,D08,1,1,1
2265,-34.0,-6.0,53.0,1644845990.1875,P08,D08,1,1,1
2266,-34.0,-6.0,53.0,1644845990.21875,P08,D08,1,1,1
2267,-34.0,-6.0,53.0,1644845990.25,P08,D08,1,1,1
2268,-34.0,-6.0,54.0,1644845990.28125,P08,D08,1,1,1
2269,-33.0,-6.0,54.0,1644845990.3125,P08,D08,1,1,1
2270,-34.0,-6.0,53.0,1644845990.34375,P08,D08,1,1,1
2271,-34.0,-6.0,53.0,1644845990.375,P08,D08,1,1,1
2272,-34.0,-7.0,53.0,1644845990.40625,P08,D08,1,1,1
2273,-34.0,-7.0,53.0,1644845990.4375,P08,D08,1,1,1
2274,-34.0,-6.0,53.0,1644845990.46875,P08,D08,1,1,1
2275,-34.0,-6.0,53.0,1644845990.5,P08,D08,1,1,1
2276,-33.0,-6.0,53.0,1644845990.53125,P08,D08,1,1,1
2277,-34.0,-7.0,53.0,1644845990.5625,P08,D08,1,1,1
2278,-34.0,-6.0,53.0,1644845990.59375,P08,D08,1,1,1
2279,-34.0,-6.0,53.0,1644845990.625,P08,D08,1,1,1
2280,-34.0,-6.0,53.0,1644845990.65625,P08,D08,1,1,1
2281,-34.0,-6.0,53.0,1644845990.6875,P08,D08,1,1,1
2282,-33.0,-7.0,53.0,1644845990.71875,P08,D08,1,1,1
2283,-33.0,-7.0,53.0,1644845990.75,P08,D08,1,1,1
2284,-34.0,-7.0,53.0,1644845990.78125,P08,D08,1,1,1
2285,-34.0,-6.0,53.0,1644845990.8125,P08,D08,1,1,1
2286,-34.0,-7.0,53.0,1644845990.84375,P08,D08,1,1,1
2287,-34.0,-7.0,53.0,1644845990.875,P08,D08,1,1,1
2288,-34.0,-6.0,53.0,1644845990.90625,P08,D08,1,1,1
2289,-34.0,-6.0,53.0,1644845990.9375,P08,D08,1,1,1
2290,-34.0,-6.0,54.0,1644845990.96875,P08,D08,1,1,1
2291,-34.0,-7.0,53.0,1644845991.0,P08,D08,1,1,1
2292,-34.0,-7.0,53.0,1644845991.03125,P08,D08,1,1,1
2293,-34.0,-6.0,53.0,1644845991.0625,P08,D08,1,1,1
2294,-34.0,-6.0,53.0,1644845991.09375,P08,D08,1,1,1
2295,-33.0,-7.0,53.0,1644845991.125,P08,D08,1,1,1
2296,-34.0,-6.0,53.0,1644845991.15625,P08,D08,1,1,1
2297,-34.0,-7.0,53.0,1644845991.1875,P08,D08,1,1,1
2298,-33.0,-6.0,53.0,1644845991.21875,P08,D08,1,1,1
2299,-33.0,-6.0,53.0,1644845991.25,P08,D08,1,1,1
2300,-33.0,-7.0,53.0,1644845991.28125,P08,D08,1,1,1
2301,-34.0,-7.0,53.0,1644845991.3125,P08,D08,1,1,1
2302,-34.0,-7.0,53.0,1644845991.34375,P08,D08,1,1,1
2303,-34.0,-7.0,53.0,1644845991.375,P08,D08,1,1,1
2304,-34.0,-7.0,53.0,1644845991.40625,P08,D08,1,1,1
2305,-34.0,-7.0,53.0,1644845991.4375,P08,D08,1,1,1
2306,-34.0,-7.0,53.0,1644845991.46875,P08,D08,1,1,1
2307,-34.0,-7.0,53.0,1644845991.5,P08,D08,1,1,1
2308,-34.0,-6.0,53.0,1644845991.53125,P08,D08,1,1,1
2309,-33.0,-7.0,53.0,1644845991.5625,P08,D08,1,1,1
2310,-33.0,-7.0,53.0,1644845991.59375,P08,D08,1,1,1
2311,-34.0,-6.0,53.0,1644845991.625,P08,D08,1,1,1
2312,-34.0,-6.0,53.0,1644845991.65625,P08,D08,1,1,1
2313,-34.0,-7.0,53.0,1644845991.6875,P08,D08,1,1,1
2314,-34.0,-7.0,53.0,1644845991.71875,P08,D08,1,1,1
2315,-34.0,-6.0,53.0,1644845991.75,P08,D08,1,1,1
2316,-34.0,-7.0,53.0,1644845991.78125,P08,D08,1,1,1
2317,-34.0,-6.0,53.0,1644845991.8125,P08,D08,1,1,1
2318,-34.0,-7.0,53.0,1644845991.84375,P08,D08,1,1,1
2319,-33.0,-7.0,53.0,1644845991.875,P08,D08,1,1,1
2320,-34.0,-7.0,53.0,1644845991.90625,P08,D08,1,1,1
2321,-34.0,-7.0,53.0,1644845991.9375,P08,D08,1,1,1
2322,-33.0,-7.0,53.0,1644845991.96875,P08,D08,1,1,1
2323,-34.0,-7.0,53.0,1644845992.0,P08,D08,1,1,1
2324,-34.0,-7.0,53.0,1644845992.03125,P08,D08,1,1,1
2325,-33.0,-7.0,53.0,1644845992.0625,P08,D08,1,1,1
2326,-34.0,-6.0,53.0,1644845992.09375,P08,D08,1,1,1
2327,-33.0,-7.0,53.0,1644845992.125,P08,D08,1,1,1
2328,-33.0,-7.0,53.0,1644845992.15625,P08,D08,1,1,1
2329,-34.0,-7.0,53.0,1644845992.1875,P08,D08,1,1,1
2330,-33.0,-6.0,53.0,1644845992.21875,P08,D08,1,1,1
2331,-33.0,-7.0,53.0,1644845992.25,P08,D08,1,1,1
2332,-33.0,-7.0,53.0,1644845992.28125,P08,D08,1,1,1
2333,-34.0,-7.0,53.0,1644845992.3125,P08,D08,1,1,1
2334,-34.0,-7.0,53.0,1644845992.34375,P08,D08,1,1,1
2335,-33.0,-7.0,53.0,1644845992.375,P08,D08,1,1,1
2336,-33.0,-7.0,53.0,1644845992.40625,P08,D08,1,1,1
2337,-34.0,-7.0,53.0,1644845992.4375,P08,D08,1,1,1
2338,-34.0,-7.0,53.0,1644845992.46875,P08,D08,1,1,1
2339,-34.0,-7.0,53.0,1644845992.5,P08,D08,1,1,1
2340,-33.0,-7.0,54.0,1644845992.53125,P08,D08,1,1,1
2341,-33.0,-7.0,53.0,1644845992.5625,P08,D08,1,1,1
2342,-33.0,-7.0,53.0,1644845992.59375,P08,D08,1,1,1
2343,-34.0,-7.0,53.0,1644845992.625,P08,D08,1,1,1
2344,-34.0,-7.0,53.0,1644845992.65625,P08,D08,1,1,1
2345,-34.0,-7.0,53.0,1644845992.6875,P08,D08,1,1,1
2346,-33.0,-7.0,53.0,1644845992.71875,P08,D08,1,1,1
2347,-34.0,-7.0,53.0,1644845992.75,P08,D08,1,1,1
2348,-33.0,-7.0,53.0,1644845992.78125,P08,D08,1,1,1
2349,-34.0,-7.0,53.0,1644845992.8125,P08,D08,1,1,1
2350,-34.0,-7.0,53.0,1644845992.84375,P08,D08,1,1,1
2351,-33.0,-7.0,53.0,1644845992.875,P08,D08,1,1,1
2352,-34.0,-7.0,53.0,1644845992.90625,P08,D08,1,1,1
2353,-34.0,-7.0,53.0,1644845992.9375,P08,D08,1,1,1
2354,-33.0,-7.0,53.0,1644845992.96875,P08,D08,1,1,1
2355,-33.0,-7.0,53.0,1644845993.0,P08,D08,1,1,1
2356,-33.0,-7.0,53.0,1644845993.03125,P08,D08,1,1,1
2357,-33.0,-7.0,53.0,1644845993.0625,P08,D08,1,1,1
2358,-33.0,-7.0,53.0,1644845993.09375,P08,D08,1,1,1
2359,-34.0,-7.0,53.0,1644845993.125,P08,D08,1,1,1
2360,-34.0,-7.0,53.0,1644845993.15625,P08,D08,1,1,1
2361,-34.0,-7.0,53.0,1644845993.1875,P08,D08,1,1,1
2362,-34.0,-7.0,53.0,1644845993.21875,P08,D08,1,1,1
2363,-33.0,-7.0,53.0,1644845993.25,P08,D08,1,1,1
2364,-33.0,-7.0,54.0,1644845993.28125,P08,D08,1,1,1
2365,-33.0,-7.0,54.0,1644845993.3125,P08,D08,1,1,1
2366,-32.0,-7.0,54.0,1644845993.34375,P08,D08,1,1,1
2367,-34.0,-7.0,53.0,1644845993.375,P08,D08,1,1,1
2368,-34.0,-7.0,53.0,1644845993.40625,P08,D08,1,1,1
2369,-33.0,-7.0,53.0,1644845993.4375,P08,D08,1,1,1
