,acc_x,acc_y,acc_z,timestamp,participant,document,val,arou,eng
0,-36.0,1.0,52.0,1644846610.09375,P08,D13,1,0,0
1,-36.0,1.0,52.0,1644846610.125,P08,D13,1,0,0
2,-36.0,1.0,52.0,1644846610.15625,P08,D13,1,0,0
3,-37.0,1.0,52.0,1644846610.1875,P08,D13,1,0,0
4,-36.0,1.0,52.0,1644846610.21875,P08,D13,1,0,0
5,-36.0,1.0,52.0,1644846610.25,P08,D13,1,0,0
6,-36.0,1.0,52.0,1644846610.28125,P08,D13,1,0,0
7,-36.0,1.0,52.0,1644846610.3125,P08,D13,1,0,0
8,-36.0,1.0,52.0,1644846610.34375,P08,D13,1,0,0
9,-37.0,1.0,52.0,1644846610.375,P08,D13,1,0,0
10,-36.0,1.0,52.0,1644846610.40625,P08,D13,1,0,0
11,-36.0,1.0,52.0,1644846610.4375,P08,D13,1,0,0
12,-36.0,1.0,52.0,1644846610.46875,P08,D13,1,0,0
13,-37.0,1.0,52.0,1644846610.5,P08,D13,1,0,0
14,-36.0,1.0,52.0,1644846610.53125,P08,D13,1,0,0
15,-36.0,1.0,52.0,1644846610.5625,P08,D13,1,0,0
16,-36.0,1.0,52.0,1644846610.59375,P08,D13,1,0,0
17,-36.0,1.0,52.0,1644846610.625,P08,D13,1,0,0
18,-37.0,1.0,52.0,1644846610.65625,P08,D13,1,0,0
19,-36.0,1.0,52.0,1644846610.6875,P08,D13,1,0,0
20,-36.0,1.0,52.0,1644846610.71875,P08,D13,1,0,0
21,-36.0,1.0,52.0,1644846610.75,P08,D13,1,0,0
22,-36.0,1.0,52.0,1644846610.78125,P08,D13,1,0,0
23,-36.0,1.0,52.0,1644846610.8125,P08,D13,1,0,0
24,-36.0,1.0,52.0,1644846610.84375,P08,D13,1,0,0
25,-37.0,1.0,52.0,1644846610.875,P08,D13,1,0,0
26,-36.0,1.0,52.0,1644846610.90625,P08,D13,1,0,0
27,-36.0,1.0,52.0,1644846610.9375,P08,D13,1,0,0
28,-36.0,1.0,52.0,1644846610.96875,P08,D13,1,0,0
29,-36.0,1.0,52.0,1644846611.0,P08,D13,1,0,0
30,-36.0,1.0,52.0,1644846611.03125,P08,D13,1,0,0
31,-37.0,1.0,52.0,1644846611.0625,P08,D13,1,0,0
32,-36.0,1.0,52.0,1644846611.09375,P08,D13,1,0,0
33,-36.0,1.0,52.0,1644846611.125,P08,D13,1,0,0
34,-36.0,1.0,52.0,1644846611.15625,P08,D13,1,0,0
35,-36.0,1.0,52.0,1644846611.1875,P08,D13,1,0,0
36,-36.0,1.0,52.0,1644846611.21875,P08,D13,1,0,0
37,-36.0,1.0,52.0,1644846611.25,P08,D13,1,0,0
38,-36.0,1.0,52.0,1644846611.28125,P08,D13,1,0,0
39,-36.0,1.0,52.0,1644846611.3125,P08,D13,1,0,0
40,-36.0,1.0,52.0,1644846611.34375,P08,D13,1,0,0
41,-36.0,1.0,52.0,1644846611.375,P08,D13,1,0,0
42,-36.0,1.0,52.0,1644846611.40625,P08,D13,1,0,0
43,-37.0,1.0,52.0,1644846611.4375,P08,D13,1,0,0
44,-36.0,1.0,52.0,1644846611.46875,P08,D13,1,0,0
45,-36.0,1.0,52.0,1644846611.5,P08,D13,1,0,0
46,-36.0,1.0,52.0,1644846611.53125,P08,D13,1,0,0
47,-36.0,1.0,52.0,1644846611.5625,P08,D13,1,0,0
48,-36.0,1.0,52.0,1644846611.59375,P08,D13,1,0,0
49,-36.0,1.0,52.0,1644846611.625,P08,D13,1,0,0
50,-37.0,1.0,52.0,1644846611.65625,P08,D13,1,0,0
51,-36.0,1.0,52.0,1644846611.6875,P08,D13,1,0,0
52,-36.0,1.0,52.0,1644846611.71875,P08,D13,1,0,0
53,-36.0,1.0,52.0,1644846611.75,P08,D13,1,0,0
54,-36.0,1.0,52.0,1644846611.78125,P08,D13,1,0,0
55,-36.0,1.0,52.0,1644846611.8125,P08,D13,1,0,0
56,-36.0,1.0,52.0,1644846611.84375,P08,D13,1,0,0
57,-36.0,1.0,52.0,1644846611.875,P08,D13,1,0,0
58,-36.0,1.0,52.0,1644846611.90625,P08,D13,1,0,0
59,-36.0,1.0,52.0,1644846611.9375,P08,D13,1,0,0
60,-36.0,1.0,52.0,1644846611.96875,P08,D13,1,0,0
61,-36.0,1.0,52.0,1644846612.0,P08,D13,1,0,0
62,-36.0,1.0,52.0,1644846612.03125,P08,D13,1,0,0
63,-36.0,1.0,52.0,1644846612.0625,P08,D13,1,0,0
64,-36.0,1.0,52.0,1644846612.09375,P08,D13,1,0,0
65,-36.0,1.0,52.0,1644846612.125,P08,D13,1,0,0
66,-36.0,1.0,52.0,1644846612.15625,P08,D13,1,0,0
67,-36.0,1.0,52.0,1644846612.1875,P08,D13,1,0,0
68,-36.0,1.0,52.0,1644846612.21875,P08,D13,1,0,0
69,-36.0,1.0,52.0,1644846612.25,P08,D13,1,0,0
70,-36.0,1.0,52.0,1644846612.28125,P08,D13,1,0,0
71,-36.0,1.0,52.0,1644846612.3125,P08,D13,1,0,0
72,-36.0,1.0,52.0,1644846612.34375,P08,D13,1,0,0
73,-36.0,1.0,52.0,1644846612.375,P08,D13,1,0,0
74,-36.0,1.0,52.0,1644846612.40625,P08,D13,1,0,0
75,-36.0,1.0,52.0,1644846612.4375,P08,D13,1,0,0
76,-36.0,1.0,52.0,1644846612.46875,P08,D13,1,0,0
77,-36.0,1.0,52.0,1644846612.5,P08,D13,1,0,0
78,-36.0,1.0,52.0,1644846612.53125,P08,D13,1,0,0
79,-36.0,1.0,52.0,1644846612.5625,P08,D13,1,0,0
80,-36.0,1.0,52.0,1644846612.59375,P08,D13,1,0,0
81,-36.0,1.0,52.0,1644846612.625,P08,D13,1,0,0
82,-36.0,1.0,52.0,1644846612.65625,P08,D13,1,0,0
83,-36.0,1.0,52.0,1644846612.6875,P08,D13,1,0,0
84,-36.0,1.0,52.0,1644846612.71875,P08,D13,1,0,0
85,-36.0,1.0,52.0,1644846612.75,P08,D13,1,0,0
86,-36.0,1.0,52.0,1644846612.78125,P08,D13,1,0,0
87,-35.0,1.0,52.0,1644846612.8125,P08,D13,1,0,0
88,-36.0,1.0,52.0,1644846612.84375,P08,D13,1,0,0
89,-36.0,1.0,52.0,1644846612.875,P08,D13,1,0,0
90,-36.0,1.0,52.0,1644846612.90625,P08,D13,1,0,0
91,-36.0,1.0,52.0,1644846612.9375,P08,D13,1,0,0
92,-36.0,1.0,52.0,1644846612.96875,P08,D13,1,0,0
93,-36.0,1.0,52.0,1644846613.0,P08,D13,1,0,0
94,-36.0,1.0,52.0,1644846613.03125,P08,D13,1,0,0
95,-36.0,1.0,52.0,1644846613.0625,P08,D13,1,0,0
96,-36.0,1.0,52.0,1644846613.09375,P08,D13,1,0,0
97,-37.0,1.0,52.0,1644846613.125,P08,D13,1,0,0
98,-36.0,1.0,52.0,1644846613.15625,P08,D13,1,0,0
99,-36.0,1.0,52.0,1644846613.1875,P08,D13,1,0,0
100,-36.0,1.0,52.0,1644846613.21875,P08,D13,1,0,0
101,-36.0,1.0,52.0,1644846613.25,P08,D13,1,0,0
102,-36.0,1.0,52.0,1644846613.28125,P08,D13,1,0,0
103,-36.0,1.0,52.0,1644846613.3125,P08,D13,1,0,0
104,-35.0,1.0,52.0,1644846613.34375,P08,D13,1,0,0
105,-36.0,1.0,52.0,1644846613.375,P08,D13,1,0,0
106,-36.0,1.0,52.0,1644846613.40625,P08,D13,1,0,0
107,-36.0,1.0,52.0,1644846613.4375,P08,D13,1,0,0
108,-36.0,1.0,52.0,1644846613.46875,P08,D13,1,0,0
109,-36.0,1.0,52.0,1644846613.5,P08,D13,1,0,0
110,-36.0,1.0,52.0,1644846613.53125,P08,D13,1,0,0
111,-36.0,1.0,52.0,1644846613.5625,P08,D13,1,0,0
112,-36.0,1.0,52.0,1644846613.59375,P08,D13,1,0,0
113,-36.0,1.0,52.0,1644846613.625,P08,D13,1,0,0
114,-36.0,1.0,52.0,1644846613.65625,P08,D13,1,0,0
115,-36.0,1.0,52.0,1644846613.6875,P08,D13,1,0,0
116,-35.0,0.0,52.0,1644846613.71875,P08,D13,1,0,0
117,-36.0,1.0,53.0,1644846613.75,P08,D13,1,0,0
118,-36.0,1.0,52.0,1644846613.78125,P08,D13,1,0,0
119,-36.0,1.0,52.0,1644846613.8125,P08,D13,1,0,0
120,-35.0,1.0,52.0,1644846613.84375,P08,D13,1,0,0
121,-36.0,1.0,52.0,1644846613.875,P08,D13,1,0,0
122,-36.0,1.0,52.0,1644846613.90625,P08,D13,1,0,0
123,-36.0,1.0,52.0,1644846613.9375,P08,D13,1,0,0
124,-35.0,1.0,52.0,1644846613.96875,P08,D13,1,0,0
125,-36.0,1.0,52.0,1644846614.0,P08,D13,1,0,0
126,-36.0,1.0,52.0,1644846614.03125,P08,D13,1,0,0
127,-35.0,1.0,53.0,1644846614.0625,P08,D13,1,0,0
128,-36.0,1.0,52.0,1644846614.09375,P08,D13,1,0,0
129,-36.0,1.0,52.0,1644846614.125,P08,D13,1,0,0
130,-36.0,1.0,53.0,1644846614.15625,P08,D13,1,0,0
131,-35.0,0.0,52.0,1644846614.1875,P08,D13,1,0,0
132,-36.0,1.0,52.0,1644846614.21875,P08,D13,1,0,0
133,-36.0,1.0,52.0,1644846614.25,P08,D13,1,0,0
134,-36.0,0.0,53.0,1644846614.28125,P08,D13,1,0,0
135,-35.0,1.0,53.0,1644846614.3125,P08,D13,1,0,0
136,-36.0,1.0,52.0,1644846614.34375,P08,D13,1,0,0
137,-36.0,1.0,53.0,1644846614.375,P08,D13,1,0,0
138,-35.0,0.0,53.0,1644846614.40625,P08,D13,1,0,0
139,-36.0,1.0,52.0,1644846614.4375,P08,D13,1,0,0
140,-36.0,1.0,52.0,1644846614.46875,P08,D13,1,0,0
141,-36.0,1.0,52.0,1644846614.5,P08,D13,1,0,0
142,-36.0,0.0,52.0,1644846614.53125,P08,D13,1,0,0
143,-36.0,1.0,52.0,1644846614.5625,P08,D13,1,0,0
144,-36.0,1.0,52.0,1644846614.59375,P08,D13,1,0,0
145,-36.0,1.0,52.0,1644846614.625,P08,D13,1,0,0
146,-36.0,1.0,53.0,1644846614.65625,P08,D13,1,0,0
147,-36.0,1.0,52.0,1644846614.6875,P08,D13,1,0,0
148,-36.0,1.0,52.0,1644846614.71875,P08,D13,1,0,0
149,-35.0,0.0,53.0,1644846614.75,P08,D13,1,0,0
150,-36.0,0.0,52.0,1644846614.78125,P08,D13,1,0,0
151,-36.0,0.0,53.0,1644846614.8125,P08,D13,1,0,0
152,-35.0,0.0,52.0,1644846614.84375,P08,D13,1,0,0
153,-36.0,1.0,52.0,1644846614.875,P08,D13,1,0,0
154,-36.0,1.0,53.0,1644846614.90625,P08,D13,1,0,0
155,-36.0,1.0,53.0,1644846614.9375,P08,D13,1,0,0
156,-35.0,0.0,53.0,1644846614.96875,P08,D13,1,0,0
157,-36.0,0.0,53.0,1644846615.0,P08,D13,1,0,0
158,-36.0,0.0,52.0,1644846615.03125,P08,D13,1,0,0
159,-36.0,1.0,52.0,1644846615.0625,P08,D13,1,0,0
160,-35.0,0.0,53.0,1644846615.09375,P08,D13,1,0,0
161,-36.0,1.0,52.0,1644846615.125,P08,D13,1,0,0
162,-36.0,1.0,53.0,1644846615.15625,P08,D13,1,0,0
163,-35.0,1.0,53.0,1644846615.1875,P08,D13,1,0,0
164,-36.0,1.0,52.0,1644846615.21875,P08,D13,1,0,0
165,-35.0,0.0,53.0,1644846615.25,P08,D13,1,0,0
166,-35.0,1.0,53.0,1644846615.28125,P08,D13,1,0,0
167,-36.0,0.0,52.0,1644846615.3125,P08,D13,1,0,0
168,-35.0,1.0,53.0,1644846615.34375,P08,D13,1,0,0
169,-36.0,0.0,53.0,1644846615.375,P08,D13,1,0,0
170,-35.0,0.0,52.0,1644846615.40625,P08,D13,1,0,0
171,-36.0,1.0,52.0,1644846615.4375,P08,D13,1,0,0
172,-35.0,1.0,53.0,1644846615.46875,P08,D13,1,0,0
173,-35.0,0.0,53.0,1644846615.5,P08,D13,1,0,0
174,-36.0,0.0,53.0,1644846615.53125,P08,D13,1,0,0
175,-36.0,1.0,52.0,1644846615.5625,P08,D13,1,0,0
176,-35.0,0.0,52.0,1644846615.59375,P08,D13,1,0,0
177,-35.0,1.0,53.0,1644846615.625,P08,D13,1,0,0
178,-36.0,1.0,52.0,1644846615.65625,P08,D13,1,0,0
179,-35.0,0.0,52.0,1644846615.6875,P08,D13,1,0,0
180,-35.0,1.0,52.0,1644846615.71875,P08,D13,1,0,0
181,-35.0,0.0,53.0,1644846615.75,P08,D13,1,0,0
182,-36.0,1.0,53.0,1644846615.78125,P08,D13,1,0,0
183,-35.0,0.0,53.0,1644846615.8125,P08,D13,1,0,0
184,-35.0,1.0,53.0,1644846615.84375,P08,D13,1,0,0
185,-36.0,0.0,52.0,1644846615.875,P08,D13,1,0,0
186,-35.0,0.0,53.0,1644846615.90625,P08,D13,1,0,0
187,-35.0,0.0,53.0,1644846615.9375,P08,D13,1,0,0
188,-35.0,0.0,53.0,1644846615.96875,P08,D13,1,0,0
189,-35.0,1.0,53.0,1644846616.0,P08,D13,1,0,0
190,-36.0,1.0,52.0,1644846616.03125,P08,D13,1,0,0
191,-36.0,1.0,52.0,1644846616.0625,P08,D13,1,0,0
192,-36.0,1.0,52.0,1644846616.09375,P08,D13,1,0,0
193,-35.0,0.0,53.0,1644846616.125,P08,D13,1,0,0
194,-34.0,0.0,53.0,1644846616.15625,P08,D13,1,0,0
195,-36.0,1.0,53.0,1644846616.1875,P08,D13,1,0,0
196,-35.0,0.0,53.0,1644846616.21875,P08,D13,1,0,0
197,-35.0,0.0,53.0,1644846616.25,P08,D13,1,0,0
198,-35.0,1.0,53.0,1644846616.28125,P08,D13,1,0,0
199,-36.0,1.0,53.0,1644846616.3125,P08,D13,1,0,0
200,-36.0,0.0,53.0,1644846616.34375,P08,D13,1,0,0
201,-35.0,1.0,53.0,1644846616.375,P08,D13,1,0,0
202,-35.0,0.0,53.0,1644846616.40625,P08,D13,1,0,0
203,-36.0,1.0,53.0,1644846616.4375,P08,D13,1,0,0
204,-36.0,1.0,52.0,1644846616.46875,P08,D13,1,0,0
205,-35.0,1.0,53.0,1644846616.5,P08,D13,1,0,0
206,-35.0,1.0,53.0,1644846616.53125,P08,D13,1,0,0
207,-36.0,1.0,53.0,1644846616.5625,P08,D13,1,0,0
208,-35.0,0.0,53.0,1644846616.59375,P08,D13,1,0,0
209,-36.0,0.0,53.0,1644846616.625,P08,D13,1,0,0
210,-36.0,1.0,52.0,1644846616.65625,P08,D13,1,0,0
211,-36.0,1.0,52.0,1644846616.6875,P08,D13,1,0,0
212,-35.0,1.0,53.0,1644846616.71875,P08,D13,1,0,0
213,-35.0,1.0,53.0,1644846616.75,P08,D13,1,0,0
214,-35.0,1.0,53.0,1644846616.78125,P08,D13,1,0,0
215,-35.0,1.0,52.0,1644846616.8125,P08,D13,1,0,0
216,-35.0,1.0,52.0,1644846616.84375,P08,D13,1,0,0
217,-35.0,1.0,53.0,1644846616.875,P08,D13,1,0,0
218,-35.0,1.0,53.0,1644846616.90625,P08,D13,1,0,0
219,-36.0,1.0,53.0,1644846616.9375,P08,D13,1,0,0
220,-36.0,0.0,53.0,1644846616.96875,P08,D13,1,0,0
221,-35.0,1.0,53.0,1644846617.0,P08,D13,1,0,0
222,-36.0,1.0,53.0,1644846617.03125,P08,D13,1,0,0
223,-36.0,1.0,53.0,1644846617.0625,P08,D13,1,0,0
224,-36.0,1.0,52.0,1644846617.09375,P08,D13,1,0,0
225,-35.0,1.0,53.0,1644846617.125,P08,D13,1,0,0
226,-36.0,1.0,52.0,1644846617.15625,P08,D13,1,0,0
227,-36.0,1.0,53.0,1644846617.1875,P08,D13,1,0,0
228,-35.0,1.0,53.0,1644846617.21875,P08,D13,1,0,0
229,-35.0,1.0,53.0,1644846617.25,P08,D13,1,0,0
230,-36.0,1.0,53.0,1644846617.28125,P08,D13,1,0,0
231,-35.0,0.0,52.0,1644846617.3125,P08,D13,1,0,0
232,-36.0,1.0,53.0,1644846617.34375,P08,D13,1,0,0
233,-36.0,1.0,53.0,1644846617.375,P08,D13,1,0,0
234,-35.0,0.0,53.0,1644846617.40625,P08,D13,1,0,0
235,-35.0,1.0,52.0,1644846617.4375,P08,D13,1,0,0
236,-36.0,1.0,52.0,1644846617.46875,P08,D13,1,0,0
237,-36.0,1.0,52.0,1644846617.5,P08,D13,1,0,0
238,-35.0,1.0,53.0,1644846617.53125,P08,D13,1,0,0
239,-35.0,1.0,53.0,1644846617.5625,P08,D13,1,0,0
240,-36.0,1.0,53.0,1644846617.59375,P08,D13,1,0,0
241,-36.0,1.0,53.0,1644846617.625,P08,D13,1,0,0
242,-36.0,1.0,52.0,1644846617.65625,P08,D13,1,0,0
243,-35.0,0.0,52.0,1644846617.6875,P08,D13,1,0,0
244,-35.0,1.0,53.0,1644846617.71875,P08,D13,1,0,0
245,-36.0,1.0,53.0,1644846617.75,P08,D13,1,0,0
246,-35.0,1.0,53.0,1644846617.78125,P08,D13,1,0,0
247,-35.0,0.0,53.0,1644846617.8125,P08,D13,1,0,0
248,-35.0,1.0,53.0,1644846617.84375,P08,D13,1,0,0
249,-35.0,1.0,53.0,1644846617.875,P08,D13,1,0,0
250,-36.0,0.0,53.0,1644846617.90625,P08,D13,1,0,0
251,-35.0,1.0,53.0,1644846617.9375,P08,D13,1,0,0
252,-35.0,1.0,53.0,1644846617.96875,P08,D13,1,0,0
253,-35.0,1.0,52.0,1644846618.0,P08,D13,1,0,0
254,-35.0,1.0,53.0,1644846618.03125,P08,D13,1,0,0
255,-35.0,1.0,52.0,1644846618.0625,P08,D13,1,0,0
256,-36.0,0.0,53.0,1644846618.09375,P08,D13,1,0,0
257,-35.0,1.0,53.0,1644846618.125,P08,D13,1,0,0
258,-36.0,1.0,53.0,1644846618.15625,P08,D13,1,0,0
259,-35.0,1.0,53.0,1644846618.1875,P08,D13,1,0,0
260,-36.0,0.0,53.0,1644846618.21875,P08,D13,1,0,0
261,-35.0,0.0,52.0,1644846618.25,P08,D13,1,0,0
262,-35.0,0.0,53.0,1644846618.28125,P08,D13,1,0,0
263,-36.0,1.0,53.0,1644846618.3125,P08,D13,1,0,0
264,-35.0,1.0,53.0,1644846618.34375,P08,D13,1,0,0
265,-35.0,0.0,53.0,1644846618.375,P08,D13,1,0,0
266,-36.0,1.0,53.0,1644846618.40625,P08,D13,1,0,0
267,-36.0,1.0,53.0,1644846618.4375,P08,D13,1,0,0
268,-35.0,0.0,53.0,1644846618.46875,P08,D13,1,0,0
269,-35.0,1.0,53.0,1644846618.5,P08,D13,1,0,0
270,-36.0,1.0,53.0,1644846618.53125,P08,D13,1,0,0
271,-36.0,1.0,53.0,1644846618.5625,P08,D13,1,0,0
272,-35.0,1.0,53.0,1644846618.59375,P08,D13,1,0,0
273,-35.0,1.0,53.0,1644846618.625,P08,D13,1,0,0
274,-36.0,1.0,52.0,1644846618.65625,P08,D13,1,0,0
275,-35.0,1.0,53.0,1644846618.6875,P08,D13,1,0,0
276,-36.0,0.0,52.0,1644846618.71875,P08,D13,1,0,0
277,-35.0,1.0,53.0,1644846618.75,P08,D13,1,0,0
278,-35.0,1.0,53.0,1644846618.78125,P08,D13,1,0,0
279,-35.0,0.0,53.0,1644846618.8125,P08,D13,1,0,0
280,-35.0,0.0,52.0,1644846618.84375,P08,D13,1,0,0
281,-36.0,1.0,53.0,1644846618.875,P08,D13,1,0,0
282,-35.0,1.0,53.0,1644846618.90625,P08,D13,1,0,0
283,-35.0,1.0,52.0,1644846618.9375,P08,D13,1,0,0
284,-35.0,1.0,52.0,1644846618.96875,P08,D13,1,0,0
285,-35.0,0.0,53.0,1644846619.0,P08,D13,1,0,0
286,-35.0,1.0,53.0,1644846619.03125,P08,D13,1,0,0
287,-35.0,1.0,53.0,1644846619.0625,P08,D13,1,0,0
288,-35.0,1.0,53.0,1644846619.09375,P08,D13,1,0,0
289,-35.0,1.0,53.0,1644846619.125,P08,D13,1,0,0
290,-35.0,1.0,52.0,1644846619.15625,P08,D13,1,0,0
291,-36.0,1.0,52.0,1644846619.1875,P08,D13,1,0,0
292,-36.0,1.0,52.0,1644846619.21875,P08,D13,1,0,0
293,-35.0,1.0,52.0,1644846619.25,P08,D13,1,0,0
294,-36.0,1.0,53.0,1644846619.28125,P08,D13,1,0,0
295,-35.0,1.0,53.0,1644846619.3125,P08,D13,1,0,0
296,-36.0,1.0,52.0,1644846619.34375,P08,D13,1,0,0
297,-36.0,1.0,52.0,1644846619.375,P08,D13,1,0,0
298,-36.0,1.0,52.0,1644846619.40625,P08,D13,1,0,0
299,-36.0,1.0,53.0,1644846619.4375,P08,D13,1,0,0
300,-36.0,1.0,53.0,1644846619.46875,P08,D13,1,0,0
301,-36.0,1.0,53.0,1644846619.5,P08,D13,1,0,0
302,-35.0,0.0,53.0,1644846619.53125,P08,D13,1,0,0
303,-35.0,0.0,53.0,1644846619.5625,P08,D13,1,0,0
304,-36.0,1.0,53.0,1644846619.59375,P08,D13,1,0,0
305,-36.0,1.0,53.0,1644846619.625,P08,D13,1,0,0
306,-36.0,1.0,53.0,1644846619.65625,P08,D13,1,0,0
307,-36.0,1.0,52.0,1644846619.6875,P08,D13,1,0,0
308,-35.0,0.0,53.0,1644846619.71875,P08,D13,1,0,0
309,-36.0,1.0,53.0,1644846619.75,P08,D13,1,0,0
310,-35.0,1.0,53.0,1644846619.78125,P08,D13,1,0,0
311,-35.0,1.0,53.0,1644846619.8125,P08,D13,1,0,0
312,-35.0,1.0,53.0,1644846619.84375,P08,D13,1,0,0
313,-35.0,1.0,53.0,1644846619.875,P08,D13,1,0,0
314,-36.0,1.0,53.0,1644846619.90625,P08,D13,1,0,0
315,-36.0,0.0,52.0,1644846619.9375,P08,D13,1,0,0
316,-35.0,1.0,53.0,1644846619.96875,P08,D13,1,0,0
317,-35.0,1.0,53.0,1644846620.0,P08,D13,1,0,0
318,-36.0,1.0,53.0,1644846620.03125,P08,D13,1,0,0
319,-35.0,1.0,53.0,1644846620.0625,P08,D13,1,0,0
320,-35.0,1.0,52.0,1644846620.09375,P08,D13,1,0,0
321,-35.0,1.0,52.0,1644846620.125,P08,D13,1,0,0
322,-35.0,1.0,52.0,1644846620.15625,P08,D13,1,0,0
323,-35.0,1.0,53.0,1644846620.1875,P08,D13,1,0,0
324,-36.0,1.0,53.0,1644846620.21875,P08,D13,1,0,0
325,-36.0,1.0,52.0,1644846620.25,P08,D13,1,0,0
326,-35.0,1.0,52.0,1644846620.28125,P08,D13,1,0,0
327,-35.0,1.0,53.0,1644846620.3125,P08,D13,1,0,0
328,-36.0,1.0,53.0,1644846620.34375,P08,D13,1,0,0
329,-36.0,1.0,53.0,1644846620.375,P08,D13,1,0,0
330,-35.0,1.0,53.0,1644846620.40625,P08,D13,1,0,0
331,-35.0,1.0,53.0,1644846620.4375,P08,D13,1,0,0
332,-36.0,1.0,53.0,1644846620.46875,P08,D13,1,0,0
333,-36.0,1.0,52.0,1644846620.5,P08,D13,1,0,0
334,-35.0,1.0,53.0,1644846620.53125,P08,D13,1,0,0
335,-36.0,1.0,53.0,1644846620.5625,P08,D13,1,0,0
336,-35.0,1.0,53.0,1644846620.59375,P08,D13,1,0,0
337,-35.0,1.0,53.0,1644846620.625,P08,D13,1,0,0
338,-35.0,1.0,52.0,1644846620.65625,P08,D13,1,0,0
339,-35.0,1.0,52.0,1644846620.6875,P08,D13,1,0,0
340,-35.0,1.0,52.0,1644846620.71875,P08,D13,1,0,0
341,-35.0,0.0,53.0,1644846620.75,P08,D13,1,0,0
342,-36.0,1.0,52.0,1644846620.78125,P08,D13,1,0,0
343,-35.0,1.0,53.0,1644846620.8125,P08,D13,1,0,0
344,-35.0,1.0,53.0,1644846620.84375,P08,D13,1,0,0
345,-35.0,1.0,52.0,1644846620.875,P08,D13,1,0,0
346,-35.0,1.0,53.0,1644846620.90625,P08,D13,1,0,0
347,-35.0,1.0,53.0,1644846620.9375,P08,D13,1,0,0
348,-36.0,0.0,53.0,1644846620.96875,P08,D13,1,0,0
349,-36.0,1.0,53.0,1644846621.0,P08,D13,1,0,0
350,-35.0,1.0,53.0,1644846621.03125,P08,D13,1,0,0
351,-35.0,1.0,53.0,1644846621.0625,P08,D13,1,0,0
352,-36.0,1.0,53.0,1644846621.09375,P08,D13,1,0,0
353,-36.0,1.0,53.0,1644846621.125,P08,D13,1,0,0
354,-36.0,1.0,53.0,1644846621.15625,P08,D13,1,0,0
355,-36.0,1.0,53.0,1644846621.1875,P08,D13,1,0,0
356,-36.0,1.0,52.0,1644846621.21875,P08,D13,1,0,0
357,-35.0,1.0,53.0,1644846621.25,P08,D13,1,0,0
358,-35.0,1.0,52.0,1644846621.28125,P08,D13,1,0,0
359,-35.0,1.0,53.0,1644846621.3125,P08,D13,1,0,0
360,-35.0,1.0,53.0,1644846621.34375,P08,D13,1,0,0
361,-36.0,1.0,52.0,1644846621.375,P08,D13,1,0,0
362,-35.0,1.0,53.0,1644846621.40625,P08,D13,1,0,0
363,-36.0,1.0,53.0,1644846621.4375,P08,D13,1,0,0
364,-36.0,1.0,53.0,1644846621.46875,P08,D13,1,0,0
365,-36.0,1.0,53.0,1644846621.5,P08,D13,1,0,0
366,-36.0,1.0,53.0,1644846621.53125,P08,D13,1,0,0
367,-36.0,1.0,53.0,1644846621.5625,P08,D13,1,0,0
368,-36.0,1.0,52.0,1644846621.59375,P08,D13,1,0,0
369,-36.0,1.0,52.0,1644846621.625,P08,D13,1,0,0
370,-35.0,1.0,52.0,1644846621.65625,P08,D13,1,0,0
371,-36.0,1.0,53.0,1644846621.6875,P08,D13,1,0,0
372,-36.0,1.0,52.0,1644846621.71875,P08,D13,1,0,0
373,-35.0,1.0,52.0,1644846621.75,P08,D13,1,0,0
374,-36.0,1.0,53.0,1644846621.78125,P08,D13,1,0,0
375,-36.0,1.0,53.0,1644846621.8125,P08,D13,1,0,0
376,-36.0,1.0,52.0,1644846621.84375,P08,D13,1,0,0
377,-36.0,1.0,52.0,1644846621.875,P08,D13,1,0,0
378,-36.0,1.0,53.0,1644846621.90625,P08,D13,1,0,0
379,-36.0,1.0,52.0,1644846621.9375,P08,D13,1,0,0
380,-36.0,1.0,52.0,1644846621.96875,P08,D13,1,0,0
381,-36.0,1.0,52.0,1644846622.0,P08,D13,1,0,0
382,-36.0,1.0,53.0,1644846622.03125,P08,D13,1,0,0
383,-36.0,1.0,52.0,1644846622.0625,P08,D13,1,0,0
384,-36.0,1.0,53.0,1644846622.09375,P08,D13,1,0,0
385,-35.0,1.0,53.0,1644846622.125,P08,D13,1,0,0
386,-36.0,1.0,52.0,1644846622.15625,P08,D13,1,0,0
387,-36.0,1.0,53.0,1644846622.1875,P08,D13,1,0,0
388,-36.0,1.0,52.0,1644846622.21875,P08,D13,1,0,0
389,-36.0,1.0,52.0,1644846622.25,P08,D13,1,0,0
390,-36.0,1.0,52.0,1644846622.28125,P08,D13,1,0,0
391,-36.0,1.0,52.0,1644846622.3125,P08,D13,1,0,0
392,-36.0,1.0,52.0,1644846622.34375,P08,D13,1,0,0
393,-36.0,1.0,53.0,1644846622.375,P08,D13,1,0,0
394,-36.0,1.0,52.0,1644846622.40625,P08,D13,1,0,0
395,-36.0,1.0,52.0,1644846622.4375,P08,D13,1,0,0
396,-36.0,1.0,53.0,1644846622.46875,P08,D13,1,0,0
397,-35.0,1.0,52.0,1644846622.5,P08,D13,1,0,0
398,-36.0,1.0,52.0,1644846622.53125,P08,D13,1,0,0
399,-36.0,1.0,52.0,1644846622.5625,P08,D13,1,0,0
400,-36.0,1.0,52.0,1644846622.59375,P08,D13,1,0,0
401,-36.0,1.0,52.0,1644846622.625,P08,D13,1,0,0
402,-36.0,1.0,52.0,1644846622.65625,P08,D13,1,0,0
403,-36.0,1.0,52.0,1644846622.6875,P08,D13,1,0,0
404,-36.0,1.0,52.0,1644846622.71875,P08,D13,1,0,0
405,-36.0,1.0,52.0,1644846622.75,P08,D13,1,0,0
406,-36.0,1.0,52.0,1644846622.78125,P08,D13,1,0,0
407,-36.0,1.0,52.0,1644846622.8125,P08,D13,1,0,0
408,-36.0,1.0,52.0,1644846622.84375,P08,D13,1,0,0
409,-36.0,1.0,52.0,1644846622.875,P08,D13,1,0,0
410,-36.0,1.0,52.0,1644846622.90625,P08,D13,1,0,0
411,-36.0,1.0,52.0,1644846622.9375,P08,D13,1,0,0
412,-36.0,1.0,52.0,1644846622.96875,P08,D13,1,0,0
413,-36.0,1.0,52.0,1644846623.0,P08,D13,1,0,0
414,-36.0,1.0,52.0,1644846623.03125,P08,D13,1,0,0
415,-36.0,1.0,52.0,1644846623.0625,P08,D13,1,0,0
416,-36.0,1.0,52.0,1644846623.09375,P08,D13,1,0,0
417,-36.0,1.0,52.0,1644846623.125,P08,D13,1,0,0
418,-36.0,1.0,52.0,1644846623.15625,P08,D13,1,0,0
419,-36.0,1.0,52.0,1644846623.1875,P08,D13,1,0,0
420,-36.0,1.0,52.0,1644846623.21875,P08,D13,1,0,0
421,-36.0,1.0,52.0,1644846623.25,P08,D13,1,0,0
422,-36.0,1.0,52.0,1644846623.28125,P08,D13,1,0,0
423,-36.0,1.0,52.0,1644846623.3125,P08,D13,1,0,0
424,-36.0,1.0,52.0,1644846623.34375,P08,D13,1,0,0
425,-36.0,1.0,52.0,1644846623.375,P08,D13,1,0,0
426,-36.0,1.0,52.0,1644846623.40625,P08,D13,1,0,0
427,-37.0,1.0,52.0,1644846623.4375,P08,D13,1,0,0
428,-36.0,1.0,52.0,1644846623.46875,P08,D13,1,0,0
429,-36.0,1.0,52.0,1644846623.5,P08,D13,1,0,0
430,-36.0,1.0,52.0,1644846623.53125,P08,D13,1,0,0
431,-36.0,1.0,52.0,1644846623.5625,P08,D13,1,0,0
432,-37.0,1.0,52.0,1644846623.59375,P08,D13,1,0,0
433,-36.0,1.0,52.0,1644846623.625,P08,D13,1,0,0
434,-36.0,1.0,52.0,1644846623.65625,P08,D13,1,0,0
435,-36.0,1.0,52.0,1644846623.6875,P08,D13,1,0,0
436,-37.0,1.0,52.0,1644846623.71875,P08,D13,1,0,0
437,-36.0,1.0,52.0,1644846623.75,P08,D13,1,0,0
438,-37.0,1.0,52.0,1644846623.78125,P08,D13,1,0,0
439,-36.0,1.0,52.0,1644846623.8125,P08,D13,1,0,0
440,-37.0,1.0,52.0,1644846623.84375,P08,D13,1,0,0
441,-36.0,1.0,52.0,1644846623.875,P08,D13,1,0,0
442,-36.0,1.0,52.0,1644846623.90625,P08,D13,1,0,0
443,-37.0,1.0,52.0,1644846623.9375,P08,D13,1,0,0
444,-37.0,1.0,52.0,1644846623.96875,P08,D13,1,0,0
445,-36.0,1.0,52.0,1644846624.0,P08,D13,1,0,0
446,-37.0,1.0,52.0,1644846624.03125,P08,D13,1,0,0
447,-37.0,1.0,52.0,1644846624.0625,P08,D13,1,0,0
448,-37.0,1.0,52.0,1644846624.09375,P08,D13,1,0,0
449,-37.0,1.0,52.0,1644846624.125,P08,D13,1,0,0
450,-37.0,1.0,52.0,1644846624.15625,P08,D13,1,0,0
451,-37.0,2.0,52.0,1644846624.1875,P08,D13,1,0,0
452,-37.0,2.0,52.0,1644846624.21875,P08,D13,1,0,0
453,-37.0,1.0,52.0,1644846624.25,P08,D13,1,0,0
454,-37.0,1.0,52.0,1644846624.28125,P08,D13,1,0,0
455,-37.0,1.0,52.0,1644846624.3125,P08,D13,1,0,0
456,-37.0,1.0,52.0,1644846624.34375,P08,D13,1,0,0
457,-37.0,1.0,52.0,1644846624.375,P08,D13,1,0,0
458,-37.0,1.0,52.0,1644846624.40625,P08,D13,1,0,0
459,-37.0,1.0,52.0,1644846624.4375,P08,D13,1,0,0
460,-37.0,1.0,52.0,1644846624.46875,P08,D13,1,0,0
461,-37.0,1.0,51.0,1644846624.5,P08,D13,1,0,0
462,-37.0,1.0,51.0,1644846624.53125,P08,D13,1,0,0
463,-37.0,2.0,52.0,1644846624.5625,P08,D13,1,0,0
464,-37.0,2.0,51.0,1644846624.59375,P08,D13,1,0,0
465,-37.0,1.0,52.0,1644846624.625,P08,D13,1,0,0
466,-37.0,1.0,52.0,1644846624.65625,P08,D13,1,0,0
467,-37.0,1.0,51.0,1644846624.6875,P08,D13,1,0,0
468,-37.0,1.0,51.0,1644846624.71875,P08,D13,1,0,0
469,-38.0,1.0,51.0,1644846624.75,P08,D13,1,0,0
470,-38.0,2.0,51.0,1644846624.78125,P08,D13,1,0,0
471,-37.0,1.0,51.0,1644846624.8125,P08,D13,1,0,0
472,-37.0,1.0,52.0,1644846624.84375,P08,D13,1,0,0
473,-37.0,1.0,51.0,1644846624.875,P08,D13,1,0,0
474,-38.0,2.0,51.0,1644846624.90625,P08,D13,1,0,0
475,-38.0,2.0,51.0,1644846624.9375,P08,D13,1,0,0
476,-37.0,1.0,51.0,1644846624.96875,P08,D13,1,0,0
477,-38.0,1.0,51.0,1644846625.0,P08,D13,1,0,0
478,-38.0,1.0,51.0,1644846625.03125,P08,D13,1,0,0
479,-37.0,1.0,51.0,1644846625.0625,P08,D13,1,0,0
480,-38.0,2.0,51.0,1644846625.09375,P08,D13,1,0,0
481,-38.0,1.0,51.0,1644846625.125,P08,D13,1,0,0
482,-38.0,1.0,51.0,1644846625.15625,P08,D13,1,0,0
483,-37.0,1.0,52.0,1644846625.1875,P08,D13,1,0,0
484,-38.0,1.0,51.0,1644846625.21875,P08,D13,1,0,0
485,-38.0,1.0,51.0,1644846625.25,P08,D13,1,0,0
486,-38.0,1.0,51.0,1644846625.28125,P08,D13,1,0,0
487,-38.0,1.0,51.0,1644846625.3125,P08,D13,1,0,0
488,-38.0,1.0,51.0,1644846625.34375,P08,D13,1,0,0
489,-38.0,1.0,50.0,1644846625.375,P08,D13,1,0,0
490,-38.0,1.0,51.0,1644846625.40625,P08,D13,1,0,0
491,-39.0,2.0,51.0,1644846625.4375,P08,D13,1,0,0
492,-39.0,2.0,51.0,1644846625.46875,P08,D13,1,0,0
493,-39.0,1.0,50.0,1644846625.5,P08,D13,1,0,0
494,-39.0,2.0,50.0,1644846625.53125,P08,D13,1,0,0
495,-39.0,1.0,50.0,1644846625.5625,P08,D13,1,0,0
496,-39.0,1.0,50.0,1644846625.59375,P08,D13,1,0,0
497,-39.0,2.0,50.0,1644846625.625,P08,D13,1,0,0
498,-39.0,2.0,50.0,1644846625.65625,P08,D13,1,0,0
499,-39.0,2.0,50.0,1644846625.6875,P08,D13,1,0,0
500,-39.0,2.0,50.0,1644846625.71875,P08,D13,1,0,0
501,-39.0,1.0,50.0,1644846625.75,P08,D13,1,0,0
502,-39.0,1.0,50.0,1644846625.78125,P08,D13,1,0,0
503,-39.0,1.0,51.0,1644846625.8125,P08,D13,1,0,0
504,-39.0,1.0,51.0,1644846625.84375,P08,D13,1,0,0
505,-38.0,1.0,51.0,1644846625.875,P08,D13,1,0,0
506,-38.0,1.0,50.0,1644846625.90625,P08,D13,1,0,0
507,-39.0,1.0,50.0,1644846625.9375,P08,D13,1,0,0
508,-39.0,1.0,50.0,1644846625.96875,P08,D13,1,0,0
509,-40.0,1.0,50.0,1644846626.0,P08,D13,1,0,0
510,-39.0,1.0,50.0,1644846626.03125,P08,D13,1,0,0
511,-40.0,1.0,50.0,1644846626.0625,P08,D13,1,0,0
512,-39.0,2.0,50.0,1644846626.09375,P08,D13,1,0,0
513,-39.0,1.0,50.0,1644846626.125,P08,D13,1,0,0
514,-39.0,1.0,50.0,1644846626.15625,P08,D13,1,0,0
515,-39.0,1.0,50.0,1644846626.1875,P08,D13,1,0,0
516,-39.0,2.0,50.0,1644846626.21875,P08,D13,1,0,0
517,-39.0,1.0,50.0,1644846626.25,P08,D13,1,0,0
518,-38.0,1.0,51.0,1644846626.28125,P08,D13,1,0,0
519,-39.0,1.0,51.0,1644846626.3125,P08,D13,1,0,0
520,-39.0,1.0,50.0,1644846626.34375,P08,D13,1,0,0
521,-40.0,1.0,50.0,1644846626.375,P08,D13,1,0,0
522,-40.0,1.0,50.0,1644846626.40625,P08,D13,1,0,0
523,-39.0,2.0,50.0,1644846626.4375,P08,D13,1,0,0
524,-39.0,1.0,50.0,1644846626.46875,P08,D13,1,0,0
525,-39.0,2.0,50.0,1644846626.5,P08,D13,1,0,0
526,-39.0,1.0,50.0,1644846626.53125,P08,D13,1,0,0
527,-39.0,1.0,50.0,1644846626.5625,P08,D13,1,0,0
528,-39.0,1.0,50.0,1644846626.59375,P08,D13,1,0,0
529,-40.0,1.0,50.0,1644846626.625,P08,D13,1,0,0
530,-39.0,1.0,50.0,1644846626.65625,P08,D13,1,0,0
531,-39.0,1.0,50.0,1644846626.6875,P08,D13,1,0,0
532,-39.0,1.0,50.0,1644846626.71875,P08,D13,1,0,0
533,-39.0,2.0,50.0,1644846626.75,P08,D13,1,0,0
534,-39.0,2.0,50.0,1644846626.78125,P08,D13,1,0,0
535,-39.0,1.0,50.0,1644846626.8125,P08,D13,1,0,0
536,-39.0,1.0,50.0,1644846626.84375,P08,D13,1,0,0
537,-39.0,1.0,50.0,1644846626.875,P08,D13,1,0,0
538,-39.0,1.0,50.0,1644846626.90625,P08,D13,1,0,0
539,-39.0,1.0,50.0,1644846626.9375,P08,D13,1,0,0
540,-39.0,1.0,50.0,1644846626.96875,P08,D13,1,0,0
541,-39.0,1.0,50.0,1644846627.0,P08,D13,1,0,0
542,-39.0,1.0,50.0,1644846627.03125,P08,D13,1,0,0
543,-39.0,1.0,50.0,1644846627.0625,P08,D13,1,0,0
544,-39.0,1.0,50.0,1644846627.09375,P08,D13,1,0,0
545,-39.0,1.0,50.0,1644846627.125,P08,D13,1,0,0
546,-39.0,1.0,50.0,1644846627.15625,P08,D13,1,0,0
547,-39.0,1.0,50.0,1644846627.1875,P08,D13,1,0,0
548,-37.0,1.0,51.0,1644846627.21875,P08,D13,1,0,0
549,-39.0,1.0,50.0,1644846627.25,P08,D13,1,0,0
550,-40.0,1.0,50.0,1644846627.28125,P08,D13,1,0,0
551,-40.0,1.0,50.0,1644846627.3125,P08,D13,1,0,0
552,-38.0,1.0,51.0,1644846627.34375,P08,D13,1,0,0
553,-37.0,1.0,52.0,1644846627.375,P08,D13,1,0,0
554,-38.0,1.0,51.0,1644846627.40625,P08,D13,1,0,0
555,-39.0,1.0,50.0,1644846627.4375,P08,D13,1,0,0
556,-39.0,1.0,50.0,1644846627.46875,P08,D13,1,0,0
557,-38.0,1.0,51.0,1644846627.5,P08,D13,1,0,0
558,-39.0,1.0,51.0,1644846627.53125,P08,D13,1,0,0
559,-38.0,1.0,51.0,1644846627.5625,P08,D13,1,0,0
560,-38.0,1.0,51.0,1644846627.59375,P08,D13,1,0,0
561,-39.0,1.0,50.0,1644846627.625,P08,D13,1,0,0
562,-38.0,1.0,50.0,1644846627.65625,P08,D13,1,0,0
563,-38.0,1.0,51.0,1644846627.6875,P08,D13,1,0,0
564,-38.0,1.0,51.0,1644846627.71875,P08,D13,1,0,0
565,-38.0,1.0,51.0,1644846627.75,P08,D13,1,0,0
566,-38.0,1.0,51.0,1644846627.78125,P08,D13,1,0,0
567,-38.0,1.0,51.0,1644846627.8125,P08,D13,1,0,0
568,-38.0,1.0,50.0,1644846627.84375,P08,D13,1,0,0
569,-39.0,1.0,51.0,1644846627.875,P08,D13,1,0,0
570,-38.0,1.0,51.0,1644846627.90625,P08,D13,1,0,0
571,-38.0,1.0,51.0,1644846627.9375,P08,D13,1,0,0
572,-38.0,1.0,51.0,1644846627.96875,P08,D13,1,0,0
573,-39.0,1.0,51.0,1644846628.0,P08,D13,1,0,0
574,-38.0,1.0,51.0,1644846628.03125,P08,D13,1,0,0
575,-38.0,1.0,51.0,1644846628.0625,P08,D13,1,0,0
576,-38.0,1.0,51.0,1644846628.09375,P08,D13,1,0,0
577,-38.0,1.0,51.0,1644846628.125,P08,D13,1,0,0
578,-38.0,1.0,51.0,1644846628.15625,P08,D13,1,0,0
579,-38.0,1.0,51.0,1644846628.1875,P08,D13,1,0,0
580,-38.0,1.0,51.0,1644846628.21875,P08,D13,1,0,0
581,-38.0,1.0,51.0,1644846628.25,P08,D13,1,0,0
582,-37.0,1.0,51.0,1644846628.28125,P08,D13,1,0,0
583,-38.0,1.0,51.0,1644846628.3125,P08,D13,1,0,0
584,-38.0,1.0,51.0,1644846628.34375,P08,D13,1,0,0
585,-38.0,1.0,51.0,1644846628.375,P08,D13,1,0,0
586,-37.0,1.0,51.0,1644846628.40625,P08,D13,1,0,0
587,-38.0,1.0,51.0,1644846628.4375,P08,D13,1,0,0
588,-37.0,1.0,51.0,1644846628.46875,P08,D13,1,0,0
589,-37.0,1.0,51.0,1644846628.5,P08,D13,1,0,0
590,-38.0,1.0,51.0,1644846628.53125,P08,D13,1,0,0
591,-38.0,1.0,51.0,1644846628.5625,P08,D13,1,0,0
592,-37.0,0.0,51.0,1644846628.59375,P08,D13,1,0,0
593,-37.0,1.0,51.0,1644846628.625,P08,D13,1,0,0
594,-38.0,1.0,51.0,1644846628.65625,P08,D13,1,0,0
595,-38.0,1.0,51.0,1644846628.6875,P08,D13,1,0,0
596,-37.0,1.0,52.0,1644846628.71875,P08,D13,1,0,0
597,-37.0,1.0,51.0,1644846628.75,P08,D13,1,0,0
598,-37.0,1.0,51.0,1644846628.78125,P08,D13,1,0,0
599,-37.0,0.0,51.0,1644846628.8125,P08,D13,1,0,0
600,-38.0,1.0,51.0,1644846628.84375,P08,D13,1,0,0
601,-38.0,1.0,51.0,1644846628.875,P08,D13,1,0,0
602,-38.0,1.0,51.0,1644846628.90625,P08,D13,1,0,0
603,-37.0,1.0,52.0,1644846628.9375,P08,D13,1,0,0
604,-37.0,1.0,51.0,1644846628.96875,P08,D13,1,0,0
605,-37.0,1.0,51.0,1644846629.0,P08,D13,1,0,0
606,-37.0,0.0,52.0,1644846629.03125,P08,D13,1,0,0
607,-37.0,0.0,52.0,1644846629.0625,P08,D13,1,0,0
608,-38.0,0.0,51.0,1644846629.09375,P08,D13,1,0,0
609,-37.0,1.0,52.0,1644846629.125,P08,D13,1,0,0
610,-37.0,0.0,52.0,1644846629.15625,P08,D13,1,0,0
611,-37.0,0.0,52.0,1644846629.1875,P08,D13,1,0,0
612,-37.0,0.0,52.0,1644846629.21875,P08,D13,1,0,0
613,-37.0,0.0,52.0,1644846629.25,P08,D13,1,0,0
614,-37.0,0.0,52.0,1644846629.28125,P08,D13,1,0,0
615,-37.0,0.0,52.0,1644846629.3125,P08,D13,1,0,0
616,-37.0,0.0,52.0,1644846629.34375,P08,D13,1,0,0
617,-36.0,0.0,52.0,1644846629.375,P08,D13,1,0,0
618,-37.0,0.0,52.0,1644846629.40625,P08,D13,1,0,0
619,-37.0,1.0,52.0,1644846629.4375,P08,D13,1,0,0
620,-37.0,0.0,52.0,1644846629.46875,P08,D13,1,0,0
621,-37.0,0.0,52.0,1644846629.5,P08,D13,1,0,0
622,-37.0,0.0,52.0,1644846629.53125,P08,D13,1,0,0
623,-37.0,0.0,52.0,1644846629.5625,P08,D13,1,0,0
624,-37.0,0.0,52.0,1644846629.59375,P08,D13,1,0,0
625,-37.0,0.0,52.0,1644846629.625,P08,D13,1,0,0
626,-37.0,0.0,52.0,1644846629.65625,P08,D13,1,0,0
627,-37.0,0.0,52.0,1644846629.6875,P08,D13,1,0,0
628,-37.0,0.0,52.0,1644846629.71875,P08,D13,1,0,0
629,-37.0,0.0,52.0,1644846629.75,P08,D13,1,0,0
630,-37.0,0.0,52.0,1644846629.78125,P08,D13,1,0,0
631,-36.0,1.0,52.0,1644846629.8125,P08,D13,1,0,0
632,-37.0,0.0,52.0,1644846629.84375,P08,D13,1,0,0
633,-37.0,1.0,52.0,1644846629.875,P08,D13,1,0,0
634,-37.0,0.0,52.0,1644846629.90625,P08,D13,1,0,0
635,-37.0,0.0,52.0,1644846629.9375,P08,D13,1,0,0
636,-37.0,0.0,52.0,1644846629.96875,P08,D13,1,0,0
637,-37.0,0.0,52.0,1644846630.0,P08,D13,1,0,0
638,-36.0,0.0,52.0,1644846630.03125,P08,D13,1,0,0
639,-36.0,0.0,52.0,1644846630.0625,P08,D13,1,0,0
640,-36.0,0.0,52.0,1644846630.09375,P08,D13,1,0,0
641,-37.0,0.0,52.0,1644846630.125,P08,D13,1,0,0
642,-36.0,0.0,52.0,1644846630.15625,P08,D13,1,0,0
643,-36.0,0.0,52.0,1644846630.1875,P08,D13,1,0,0
644,-36.0,1.0,52.0,1644846630.21875,P08,D13,1,0,0
645,-36.0,0.0,52.0,1644846630.25,P08,D13,1,0,0
646,-36.0,0.0,52.0,1644846630.28125,P08,D13,1,0,0
647,-36.0,0.0,52.0,1644846630.3125,P08,D13,1,0,0
648,-36.0,0.0,52.0,1644846630.34375,P08,D13,1,0,0
649,-36.0,0.0,52.0,1644846630.375,P08,D13,1,0,0
650,-36.0,0.0,52.0,1644846630.40625,P08,D13,1,0,0
651,-37.0,0.0,52.0,1644846630.4375,P08,D13,1,0,0
652,-36.0,0.0,52.0,1644846630.46875,P08,D13,1,0,0
653,-36.0,1.0,52.0,1644846630.5,P08,D13,1,0,0
654,-37.0,0.0,52.0,1644846630.53125,P08,D13,1,0,0
655,-36.0,0.0,52.0,1644846630.5625,P08,D13,1,0,0
656,-36.0,0.0,52.0,1644846630.59375,P08,D13,1,0,0
657,-36.0,0.0,52.0,1644846630.625,P08,D13,1,0,0
658,-36.0,0.0,52.0,1644846630.65625,P08,D13,1,0,0
659,-37.0,0.0,52.0,1644846630.6875,P08,D13,1,0,0
660,-36.0,0.0,52.0,1644846630.71875,P08,D13,1,0,0
661,-37.0,0.0,52.0,1644846630.75,P08,D13,1,0,0
662,-37.0,0.0,52.0,1644846630.78125,P08,D13,1,0,0
663,-36.0,0.0,52.0,1644846630.8125,P08,D13,1,0,0
664,-37.0,0.0,52.0,1644846630.84375,P08,D13,1,0,0
665,-36.0,0.0,52.0,1644846630.875,P08,D13,1,0,0
666,-36.0,0.0,52.0,1644846630.90625,P08,D13,1,0,0
667,-37.0,0.0,52.0,1644846630.9375,P08,D13,1,0,0
668,-36.0,0.0,52.0,1644846630.96875,P08,D13,1,0,0
669,-36.0,0.0,52.0,1644846631.0,P08,D13,1,0,0
670,-36.0,0.0,52.0,1644846631.03125,P08,D13,1,0,0
671,-36.0,0.0,52.0,1644846631.0625,P08,D13,1,0,0
672,-36.0,0.0,52.0,1644846631.09375,P08,D13,1,0,0
673,-37.0,0.0,52.0,1644846631.125,P08,D13,1,0,0
674,-37.0,0.0,52.0,1644846631.15625,P08,D13,1,0,0
675,-36.0,0.0,52.0,1644846631.1875,P08,D13,1,0,0
676,-36.0,0.0,52.0,1644846631.21875,P08,D13,1,0,0
677,-37.0,0.0,52.0,1644846631.25,P08,D13,1,0,0
678,-36.0,1.0,52.0,1644846631.28125,P08,D13,1,0,0
679,-37.0,0.0,52.0,1644846631.3125,P08,D13,1,0,0
680,-36.0,0.0,52.0,1644846631.34375,P08,D13,1,0,0
681,-37.0,0.0,52.0,1644846631.375,P08,D13,1,0,0
682,-36.0,-1.0,52.0,1644846631.40625,P08,D13,1,0,0
683,-36.0,1.0,52.0,1644846631.4375,P08,D13,1,0,0
684,-37.0,0.0,52.0,1644846631.46875,P08,D13,1,0,0
685,-37.0,0.0,52.0,1644846631.5,P08,D13,1,0,0
686,-37.0,0.0,52.0,1644846631.53125,P08,D13,1,0,0
687,-36.0,0.0,52.0,1644846631.5625,P08,D13,1,0,0
688,-36.0,0.0,52.0,1644846631.59375,P08,D13,1,0,0
689,-37.0,0.0,52.0,1644846631.625,P08,D13,1,0,0
690,-37.0,0.0,52.0,1644846631.65625,P08,D13,1,0,0
691,-36.0,0.0,52.0,1644846631.6875,P08,D13,1,0,0
692,-37.0,0.0,52.0,1644846631.71875,P08,D13,1,0,0
693,-37.0,0.0,52.0,1644846631.75,P08,D13,1,0,0
694,-37.0,0.0,52.0,1644846631.78125,P08,D13,1,0,0
695,-36.0,0.0,52.0,1644846631.8125,P08,D13,1,0,0
696,-36.0,0.0,52.0,1644846631.84375,P08,D13,1,0,0
697,-37.0,0.0,52.0,1644846631.875,P08,D13,1,0,0
698,-37.0,0.0,52.0,1644846631.90625,P08,D13,1,0,0
699,-36.0,0.0,52.0,1644846631.9375,P08,D13,1,0,0
700,-37.0,0.0,52.0,1644846631.96875,P08,D13,1,0,0
701,-37.0,0.0,52.0,1644846632.0,P08,D13,1,0,0
702,-36.0,0.0,52.0,1644846632.03125,P08,D13,1,0,0
703,-37.0,0.0,52.0,1644846632.0625,P08,D13,1,0,0
704,-37.0,0.0,52.0,1644846632.09375,P08,D13,1,0,0
705,-36.0,0.0,52.0,1644846632.125,P08,D13,1,0,0
706,-37.0,0.0,52.0,1644846632.15625,P08,D13,1,0,0
707,-36.0,0.0,52.0,1644846632.1875,P08,D13,1,0,0
708,-37.0,0.0,51.0,1644846632.21875,P08,D13,1,0,0
709,-36.0,0.0,52.0,1644846632.25,P08,D13,1,0,0
710,-36.0,0.0,52.0,1644846632.28125,P08,D13,1,0,0
711,-37.0,0.0,52.0,1644846632.3125,P08,D13,1,0,0
712,-37.0,0.0,52.0,1644846632.34375,P08,D13,1,0,0
713,-36.0,0.0,52.0,1644846632.375,P08,D13,1,0,0
714,-36.0,0.0,52.0,1644846632.40625,P08,D13,1,0,0
715,-37.0,1.0,52.0,1644846632.4375,P08,D13,1,0,0
716,-37.0,0.0,52.0,1644846632.46875,P08,D13,1,0,0
717,-36.0,0.0,52.0,1644846632.5,P08,D13,1,0,0
718,-37.0,0.0,52.0,1644846632.53125,P08,D13,1,0,0
719,-37.0,0.0,52.0,1644846632.5625,P08,D13,1,0,0
720,-37.0,0.0,52.0,1644846632.59375,P08,D13,1,0,0
721,-36.0,0.0,52.0,1644846632.625,P08,D13,1,0,0
722,-37.0,0.0,52.0,1644846632.65625,P08,D13,1,0,0
723,-37.0,0.0,52.0,1644846632.6875,P08,D13,1,0,0
724,-36.0,0.0,52.0,1644846632.71875,P08,D13,1,0,0
725,-36.0,0.0,52.0,1644846632.75,P08,D13,1,0,0
726,-37.0,0.0,51.0,1644846632.78125,P08,D13,1,0,0
727,-37.0,0.0,52.0,1644846632.8125,P08,D13,1,0,0
728,-36.0,0.0,52.0,1644846632.84375,P08,D13,1,0,0
729,-36.0,0.0,52.0,1644846632.875,P08,D13,1,0,0
730,-37.0,0.0,52.0,1644846632.90625,P08,D13,1,0,0
731,-37.0,0.0,52.0,1644846632.9375,P08,D13,1,0,0
732,-37.0,1.0,52.0,1644846632.96875,P08,D13,1,0,0
733,-36.0,0.0,52.0,1644846633.0,P08,D13,1,0,0
734,-36.0,0.0,52.0,1644846633.03125,P08,D13,1,0,0
735,-36.0,0.0,52.0,1644846633.0625,P08,D13,1,0,0
736,-37.0,0.0,52.0,1644846633.09375,P08,D13,1,0,0
737,-37.0,0.0,52.0,1644846633.125,P08,D13,1,0,0
738,-36.0,0.0,52.0,1644846633.15625,P08,D13,1,0,0
739,-36.0,0.0,52.0,1644846633.1875,P08,D13,1,0,0
740,-36.0,0.0,52.0,1644846633.21875,P08,D13,1,0,0
741,-37.0,0.0,52.0,1644846633.25,P08,D13,1,0,0
742,-37.0,0.0,52.0,1644846633.28125,P08,D13,1,0,0
743,-37.0,1.0,52.0,1644846633.3125,P08,D13,1,0,0
744,-37.0,0.0,52.0,1644846633.34375,P08,D13,1,0,0
745,-36.0,1.0,52.0,1644846633.375,P08,D13,1,0,0
746,-37.0,0.0,52.0,1644846633.40625,P08,D13,1,0,0
747,-36.0,0.0,52.0,1644846633.4375,P08,D13,1,0,0
748,-37.0,0.0,52.0,1644846633.46875,P08,D13,1,0,0
749,-37.0,0.0,52.0,1644846633.5,P08,D13,1,0,0
750,-36.0,0.0,52.0,1644846633.53125,P08,D13,1,0,0
751,-37.0,1.0,52.0,1644846633.5625,P08,D13,1,0,0
752,-37.0,0.0,52.0,1644846633.59375,P08,D13,1,0,0
753,-36.0,0.0,52.0,1644846633.625,P08,D13,1,0,0
754,-36.0,0.0,52.0,1644846633.65625,P08,D13,1,0,0
755,-37.0,0.0,52.0,1644846633.6875,P08,D13,1,0,0
756,-36.0,0.0,52.0,1644846633.71875,P08,D13,1,0,0
757,-36.0,0.0,52.0,1644846633.75,P08,D13,1,0,0
758,-37.0,0.0,52.0,1644846633.78125,P08,D13,1,0,0
759,-37.0,1.0,52.0,1644846633.8125,P08,D13,1,0,0
760,-36.0,0.0,52.0,1644846633.84375,P08,D13,1,0,0
761,-36.0,0.0,52.0,1644846633.875,P08,D13,1,0,0
762,-37.0,0.0,52.0,1644846633.90625,P08,D13,1,0,0
763,-37.0,1.0,52.0,1644846633.9375,P08,D13,1,0,0
764,-36.0,0.0,52.0,1644846633.96875,P08,D13,1,0,0
765,-36.0,0.0,52.0,1644846634.0,P08,D13,1,0,0
766,-37.0,0.0,52.0,1644846634.03125,P08,D13,1,0,0
767,-37.0,0.0,52.0,1644846634.0625,P08,D13,1,0,0
768,-36.0,0.0,52.0,1644846634.09375,P08,D13,1,0,0
769,-37.0,1.0,52.0,1644846634.125,P08,D13,1,0,0
770,-37.0,1.0,52.0,1644846634.15625,P08,D13,1,0,0
771,-36.0,0.0,52.0,1644846634.1875,P08,D13,1,0,0
772,-36.0,0.0,52.0,1644846634.21875,P08,D13,1,0,0
773,-37.0,1.0,52.0,1644846634.25,P08,D13,1,0,0
774,-37.0,1.0,52.0,1644846634.28125,P08,D13,1,0,0
775,-36.0,0.0,52.0,1644846634.3125,P08,D13,1,0,0
776,-36.0,0.0,52.0,1644846634.34375,P08,D13,1,0,0
777,-37.0,1.0,52.0,1644846634.375,P08,D13,1,0,0
778,-37.0,1.0,52.0,1644846634.40625,P08,D13,1,0,0
779,-36.0,0.0,52.0,1644846634.4375,P08,D13,1,0,0
780,-36.0,1.0,52.0,1644846634.46875,P08,D13,1,0,0
781,-37.0,0.0,52.0,1644846634.5,P08,D13,1,0,0
782,-36.0,0.0,52.0,1644846634.53125,P08,D13,1,0,0
783,-36.0,0.0,52.0,1644846634.5625,P08,D13,1,0,0
784,-36.0,0.0,52.0,1644846634.59375,P08,D13,1,0,0
785,-36.0,0.0,52.0,1644846634.625,P08,D13,1,0,0
786,-37.0,0.0,52.0,1644846634.65625,P08,D13,1,0,0
787,-36.0,0.0,52.0,1644846634.6875,P08,D13,1,0,0
788,-36.0,1.0,52.0,1644846634.71875,P08,D13,1,0,0
789,-36.0,0.0,52.0,1644846634.75,P08,D13,1,0,0
790,-36.0,0.0,52.0,1644846634.78125,P08,D13,1,0,0
791,-37.0,1.0,52.0,1644846634.8125,P08,D13,1,0,0
792,-36.0,0.0,52.0,1644846634.84375,P08,D13,1,0,0
793,-36.0,0.0,52.0,1644846634.875,P08,D13,1,0,0
794,-36.0,1.0,52.0,1644846634.90625,P08,D13,1,0,0
795,-36.0,1.0,52.0,1644846634.9375,P08,D13,1,0,0
796,-36.0,1.0,52.0,1644846634.96875,P08,D13,1,0,0
797,-36.0,0.0,52.0,1644846635.0,P08,D13,1,0,0
798,-36.0,0.0,52.0,1644846635.03125,P08,D13,1,0,0
799,-36.0,1.0,52.0,1644846635.0625,P08,D13,1,0,0
800,-37.0,0.0,52.0,1644846635.09375,P08,D13,1,0,0
801,-36.0,0.0,52.0,1644846635.125,P08,D13,1,0,0
802,-36.0,0.0,52.0,1644846635.15625,P08,D13,1,0,0
803,-37.0,0.0,52.0,1644846635.1875,P08,D13,1,0,0
804,-36.0,1.0,52.0,1644846635.21875,P08,D13,1,0,0
805,-36.0,0.0,52.0,1644846635.25,P08,D13,1,0,0
806,-36.0,1.0,52.0,1644846635.28125,P08,D13,1,0,0
807,-36.0,0.0,52.0,1644846635.3125,P08,D13,1,0,0
808,-36.0,0.0,52.0,1644846635.34375,P08,D13,1,0,0
809,-36.0,1.0,52.0,1644846635.375,P08,D13,1,0,0
810,-37.0,1.0,52.0,1644846635.40625,P08,D13,1,0,0
811,-36.0,0.0,52.0,1644846635.4375,P08,D13,1,0,0
812,-36.0,0.0,52.0,1644846635.46875,P08,D13,1,0,0
813,-37.0,1.0,52.0,1644846635.5,P08,D13,1,0,0
814,-36.0,0.0,52.0,1644846635.53125,P08,D13,1,0,0
815,-36.0,0.0,52.0,1644846635.5625,P08,D13,1,0,0
816,-36.0,1.0,52.0,1644846635.59375,P08,D13,1,0,0
817,-37.0,0.0,52.0,1644846635.625,P08,D13,1,0,0
818,-36.0,0.0,52.0,1644846635.65625,P08,D13,1,0,0
819,-36.0,0.0,52.0,1644846635.6875,P08,D13,1,0,0
820,-37.0,1.0,52.0,1644846635.71875,P08,D13,1,0,0
821,-37.0,1.0,52.0,1644846635.75,P08,D13,1,0,0
822,-36.0,0.0,52.0,1644846635.78125,P08,D13,1,0,0
823,-36.0,0.0,52.0,1644846635.8125,P08,D13,1,0,0
824,-36.0,0.0,52.0,1644846635.84375,P08,D13,1,0,0
825,-37.0,1.0,52.0,1644846635.875,P08,D13,1,0,0
826,-36.0,0.0,52.0,1644846635.90625,P08,D13,1,0,0
827,-36.0,0.0,52.0,1644846635.9375,P08,D13,1,0,0
828,-36.0,1.0,52.0,1644846635.96875,P08,D13,1,0,0
829,-36.0,1.0,52.0,1644846636.0,P08,D13,1,0,0
830,-36.0,0.0,52.0,1644846636.03125,P08,D13,1,0,0
831,-36.0,0.0,52.0,1644846636.0625,P08,D13,1,0,0
832,-36.0,0.0,52.0,1644846636.09375,P08,D13,1,0,0
833,-36.0,0.0,52.0,1644846636.125,P08,D13,1,0,0
834,-36.0,0.0,52.0,1644846636.15625,P08,D13,1,0,0
835,-36.0,0.0,52.0,1644846636.1875,P08,D13,1,0,0
836,-36.0,0.0,52.0,1644846636.21875,P08,D13,1,0,0
837,-36.0,1.0,52.0,1644846636.25,P08,D13,1,0,0
838,-36.0,0.0,52.0,1644846636.28125,P08,D13,1,0,0
839,-36.0,1.0,52.0,1644846636.3125,P08,D13,1,0,0
840,-36.0,0.0,52.0,1644846636.34375,P08,D13,1,0,0
841,-36.0,0.0,52.0,1644846636.375,P08,D13,1,0,0
842,-36.0,1.0,52.0,1644846636.40625,P08,D13,1,0,0
843,-36.0,0.0,52.0,1644846636.4375,P08,D13,1,0,0
844,-36.0,1.0,52.0,1644846636.46875,P08,D13,1,0,0
845,-36.0,1.0,52.0,1644846636.5,P08,D13,1,0,0
846,-36.0,0.0,52.0,1644846636.53125,P08,D13,1,0,0
847,-36.0,1.0,52.0,1644846636.5625,P08,D13,1,0,0
848,-36.0,1.0,52.0,1644846636.59375,P08,D13,1,0,0
849,-36.0,0.0,52.0,1644846636.625,P08,D13,1,0,0
850,-36.0,0.0,52.0,1644846636.65625,P08,D13,1,0,0
851,-36.0,1.0,52.0,1644846636.6875,P08,D13,1,0,0
852,-36.0,1.0,52.0,1644846636.71875,P08,D13,1,0,0
853,-36.0,0.0,52.0,1644846636.75,P08,D13,1,0,0
854,-36.0,0.0,52.0,1644846636.78125,P08,D13,1,0,0
855,-36.0,1.0,52.0,1644846636.8125,P08,D13,1,0,0
856,-36.0,1.0,52.0,1644846636.84375,P08,D13,1,0,0
857,-36.0,0.0,52.0,1644846636.875,P08,D13,1,0,0
858,-36.0,1.0,52.0,1644846636.90625,P08,D13,1,0,0
859,-36.0,0.0,52.0,1644846636.9375,P08,D13,1,0,0
860,-36.0,1.0,52.0,1644846636.96875,P08,D13,1,0,0
861,-36.0,1.0,52.0,1644846637.0,P08,D13,1,0,0
862,-36.0,1.0,52.0,1644846637.03125,P08,D13,1,0,0
863,-36.0,1.0,52.0,1644846637.0625,P08,D13,1,0,0
864,-36.0,1.0,52.0,1644846637.09375,P08,D13,1,0,0
865,-36.0,1.0,52.0,1644846637.125,P08,D13,1,0,0
866,-36.0,0.0,52.0,1644846637.15625,P08,D13,1,0,0
867,-36.0,1.0,52.0,1644846637.1875,P08,D13,1,0,0
868,-36.0,1.0,52.0,1644846637.21875,P08,D13,1,0,0
869,-36.0,1.0,52.0,1644846637.25,P08,D13,1,0,0
870,-36.0,0.0,52.0,1644846637.28125,P08,D13,1,0,0
871,-36.0,1.0,52.0,1644846637.3125,P08,D13,1,0,0
872,-36.0,0.0,52.0,1644846637.34375,P08,D13,1,0,0
873,-36.0,0.0,52.0,1644846637.375,P08,D13,1,0,0
874,-36.0,1.0,52.0,1644846637.40625,P08,D13,1,0,0
875,-36.0,1.0,52.0,1644846637.4375,P08,D13,1,0,0
876,-36.0,0.0,52.0,1644846637.46875,P08,D13,1,0,0
877,-36.0,0.0,52.0,1644846637.5,P08,D13,1,0,0
878,-36.0,1.0,52.0,1644846637.53125,P08,D13,1,0,0
879,-36.0,1.0,52.0,1644846637.5625,P08,D13,1,0,0
880,-36.0,1.0,52.0,1644846637.59375,P08,D13,1,0,0
881,-36.0,1.0,52.0,1644846637.625,P08,D13,1,0,0
882,-37.0,1.0,52.0,1644846637.65625,P08,D13,1,0,0
883,-36.0,1.0,52.0,1644846637.6875,P08,D13,1,0,0
884,-36.0,1.0,52.0,1644846637.71875,P08,D13,1,0,0
885,-36.0,1.0,52.0,1644846637.75,P08,D13,1,0,0
886,-36.0,1.0,52.0,1644846637.78125,P08,D13,1,0,0
887,-36.0,1.0,52.0,1644846637.8125,P08,D13,1,0,0
888,-36.0,1.0,52.0,1644846637.84375,P08,D13,1,0,0
889,-36.0,1.0,52.0,1644846637.875,P08,D13,1,0,0
890,-36.0,1.0,52.0,1644846637.90625,P08,D13,1,0,0
891,-36.0,1.0,52.0,1644846637.9375,P08,D13,1,0,0
892,-36.0,1.0,52.0,1644846637.96875,P08,D13,1,0,0
893,-36.0,0.0,52.0,1644846638.0,P08,D13,1,0,0
894,-36.0,1.0,52.0,1644846638.03125,P08,D13,1,0,0
895,-36.0,1.0,52.0,1644846638.0625,P08,D13,1,0,0
896,-36.0,1.0,52.0,1644846638.09375,P08,D13,1,0,0
897,-36.0,1.0,52.0,1644846638.125,P08,D13,1,0,0
898,-36.0,1.0,52.0,1644846638.15625,P08,D13,1,0,0
899,-36.0,1.0,52.0,1644846638.1875,P08,D13,1,0,0
900,-36.0,1.0,52.0,1644846638.21875,P08,D13,1,0,0
901,-36.0,1.0,52.0,1644846638.25,P08,D13,1,0,0
902,-36.0,1.0,52.0,1644846638.28125,P08,D13,1,0,0
903,-36.0,1.0,52.0,1644846638.3125,P08,D13,1,0,0
904,-36.0,1.0,52.0,1644846638.34375,P08,D13,1,0,0
905,-36.0,1.0,52.0,1644846638.375,P08,D13,1,0,0
906,-36.0,1.0,52.0,1644846638.40625,P08,D13,1,0,0
907,-36.0,1.0,52.0,1644846638.4375,P08,D13,1,0,0
908,-36.0,1.0,52.0,1644846638.46875,P08,D13,1,0,0
909,-36.0,1.0,52.0,1644846638.5,P08,D13,1,0,0
910,-36.0,1.0,52.0,1644846638.53125,P08,D13,1,0,0
911,-36.0,1.0,52.0,1644846638.5625,P08,D13,1,0,0
912,-36.0,1.0,52.0,1644846638.59375,P08,D13,1,0,0
913,-36.0,1.0,52.0,1644846638.625,P08,D13,1,0,0
914,-36.0,1.0,52.0,1644846638.65625,P08,D13,1,0,0
915,-36.0,1.0,52.0,1644846638.6875,P08,D13,1,0,0
916,-36.0,1.0,52.0,1644846638.71875,P08,D13,1,0,0
917,-36.0,1.0,52.0,1644846638.75,P08,D13,1,0,0
918,-36.0,1.0,52.0,1644846638.78125,P08,D13,1,0,0
919,-36.0,1.0,52.0,1644846638.8125,P08,D13,1,0,0
920,-36.0,1.0,52.0,1644846638.84375,P08,D13,1,0,0
921,-36.0,1.0,52.0,1644846638.875,P08,D13,1,0,0
922,-36.0,1.0,52.0,1644846638.90625,P08,D13,1,0,0
923,-36.0,1.0,52.0,1644846638.9375,P08,D13,1,0,0
924,-36.0,1.0,52.0,1644846638.96875,P08,D13,1,0,0
925,-36.0,1.0,52.0,1644846639.0,P08,D13,1,0,0
926,-36.0,1.0,52.0,1644846639.03125,P08,D13,1,0,0
927,-36.0,1.0,52.0,1644846639.0625,P08,D13,1,0,0
928,-36.0,1.0,52.0,1644846639.09375,P08,D13,1,0,0
929,-36.0,1.0,52.0,1644846639.125,P08,D13,1,0,0
930,-36.0,1.0,52.0,1644846639.15625,P08,D13,1,0,0
931,-36.0,1.0,52.0,1644846639.1875,P08,D13,1,0,0
932,-36.0,1.0,52.0,1644846639.21875,P08,D13,1,0,0
933,-36.0,1.0,52.0,1644846639.25,P08,D13,1,0,0
934,-36.0,1.0,52.0,1644846639.28125,P08,D13,1,0,0
935,-36.0,1.0,52.0,1644846639.3125,P08,D13,1,0,0
936,-36.0,1.0,52.0,1644846639.34375,P08,D13,1,0,0
937,-36.0,1.0,52.0,1644846639.375,P08,D13,1,0,0
938,-36.0,1.0,52.0,1644846639.40625,P08,D13,1,0,0
939,-36.0,1.0,52.0,1644846639.4375,P08,D13,1,0,0
940,-36.0,1.0,52.0,1644846639.46875,P08,D13,1,0,0
941,-36.0,1.0,52.0,1644846639.5,P08,D13,1,0,0
942,-36.0,1.0,52.0,1644846639.53125,P08,D13,1,0,0
943,-36.0,1.0,52.0,1644846639.5625,P08,D13,1,0,0
944,-36.0,1.0,52.0,1644846639.59375,P08,D13,1,0,0
945,-36.0,1.0,52.0,1644846639.625,P08,D13,1,0,0
946,-36.0,1.0,52.0,1644846639.65625,P08,D13,1,0,0
947,-36.0,1.0,52.0,1644846639.6875,P08,D13,1,0,0
948,-36.0,1.0,52.0,1644846639.71875,P08,D13,1,0,0
949,-36.0,1.0,52.0,1644846639.75,P08,D13,1,0,0
950,-36.0,1.0,52.0,1644846639.78125,P08,D13,1,0,0
951,-37.0,1.0,52.0,1644846639.8125,P08,D13,1,0,0
952,-36.0,1.0,52.0,1644846639.84375,P08,D13,1,0,0
953,-36.0,1.0,52.0,1644846639.875,P08,D13,1,0,0
954,-36.0,1.0,52.0,1644846639.90625,P08,D13,1,0,0
955,-36.0,1.0,52.0,1644846639.9375,P08,D13,1,0,0
956,-36.0,1.0,52.0,1644846639.96875,P08,D13,1,0,0
957,-36.0,1.0,52.0,1644846640.0,P08,D13,1,0,0
958,-36.0,1.0,52.0,1644846640.03125,P08,D13,1,0,0
959,-36.0,1.0,52.0,1644846640.0625,P08,D13,1,0,0
960,-36.0,1.0,52.0,1644846640.09375,P08,D13,1,0,0
961,-36.0,1.0,52.0,1644846640.125,P08,D13,1,0,0
962,-36.0,1.0,52.0,1644846640.15625,P08,D13,1,0,0
963,-36.0,1.0,52.0,1644846640.1875,P08,D13,1,0,0
964,-36.0,1.0,52.0,1644846640.21875,P08,D13,1,0,0
965,-36.0,1.0,52.0,1644846640.25,P08,D13,1,0,0
966,-36.0,1.0,52.0,1644846640.28125,P08,D13,1,0,0
967,-36.0,1.0,52.0,1644846640.3125,P08,D13,1,0,0
968,-36.0,1.0,52.0,1644846640.34375,P08,D13,1,0,0
969,-36.0,1.0,52.0,1644846640.375,P08,D13,1,0,0
970,-37.0,1.0,52.0,1644846640.40625,P08,D13,1,0,0
971,-36.0,1.0,52.0,1644846640.4375,P08,D13,1,0,0
972,-36.0,1.0,52.0,1644846640.46875,P08,D13,1,0,0
973,-36.0,1.0,52.0,1644846640.5,P08,D13,1,0,0
974,-36.0,1.0,52.0,1644846640.53125,P08,D13,1,0,0
975,-37.0,1.0,52.0,1644846640.5625,P08,D13,1,0,0
976,-36.0,1.0,52.0,1644846640.59375,P08,D13,1,0,0
977,-36.0,1.0,52.0,1644846640.625,P08,D13,1,0,0
978,-36.0,1.0,52.0,1644846640.65625,P08,D13,1,0,0
979,-36.0,1.0,52.0,1644846640.6875,P08,D13,1,0,0
980,-36.0,1.0,52.0,1644846640.71875,P08,D13,1,0,0
981,-36.0,1.0,52.0,1644846640.75,P08,D13,1,0,0
982,-36.0,1.0,52.0,1644846640.78125,P08,D13,1,0,0
983,-36.0,1.0,52.0,1644846640.8125,P08,D13,1,0,0
984,-36.0,1.0,52.0,1644846640.84375,P08,D13,1,0,0
985,-36.0,1.0,52.0,1644846640.875,P08,D13,1,0,0
986,-36.0,1.0,52.0,1644846640.90625,P08,D13,1,0,0
987,-36.0,1.0,52.0,1644846640.9375,P08,D13,1,0,0
988,-36.0,1.0,52.0,1644846640.96875,P08,D13,1,0,0
989,-36.0,1.0,52.0,1644846641.0,P08,D13,1,0,0
990,-36.0,1.0,52.0,1644846641.03125,P08,D13,1,0,0
991,-36.0,1.0,52.0,1644846641.0625,P08,D13,1,0,0
992,-36.0,1.0,52.0,1644846641.09375,P08,D13,1,0,0
993,-36.0,1.0,52.0,1644846641.125,P08,D13,1,0,0
994,-36.0,1.0,52.0,1644846641.15625,P08,D13,1,0,0
995,-36.0,1.0,52.0,1644846641.1875,P08,D13,1,0,0
996,-36.0,1.0,52.0,1644846641.21875,P08,D13,1,0,0
997,-36.0,1.0,52.0,1644846641.25,P08,D13,1,0,0
998,-36.0,1.0,52.0,1644846641.28125,P08,D13,1,0,0
999,-36.0,1.0,52.0,1644846641.3125,P08,D13,1,0,0
1000,-36.0,1.0,52.0,1644846641.34375,P08,D13,1,0,0
1001,-36.0,1.0,52.0,1644846641.375,P08,D13,1,0,0
1002,-36.0,1.0,52.0,1644846641.40625,P08,D13,1,0,0
1003,-36.0,1.0,52.0,1644846641.4375,P08,D13,1,0,0
1004,-36.0,1.0,52.0,1644846641.46875,P08,D13,1,0,0
1005,-36.0,1.0,52.0,1644846641.5,P08,D13,1,0,0
1006,-37.0,1.0,52.0,1644846641.53125,P08,D13,1,0,0
1007,-36.0,1.0,52.0,1644846641.5625,P08,D13,1,0,0
1008,-35.0,1.0,52.0,1644846641.59375,P08,D13,1,0,0
1009,-36.0,1.0,52.0,1644846641.625,P08,D13,1,0,0
1010,-37.0,1.0,52.0,1644846641.65625,P08,D13,1,0,0
1011,-36.0,1.0,52.0,1644846641.6875,P08,D13,1,0,0
1012,-36.0,1.0,52.0,1644846641.71875,P08,D13,1,0,0
1013,-36.0,1.0,52.0,1644846641.75,P08,D13,1,0,0
1014,-36.0,1.0,52.0,1644846641.78125,P08,D13,1,0,0
1015,-36.0,1.0,52.0,1644846641.8125,P08,D13,1,0,0
1016,-36.0,1.0,52.0,1644846641.84375,P08,D13,1,0,0
1017,-36.0,1.0,52.0,1644846641.875,P08,D13,1,0,0
1018,-36.0,1.0,52.0,1644846641.90625,P08,D13,1,0,0
1019,-36.0,1.0,52.0,1644846641.9375,P08,D13,1,0,0
1020,-36.0,1.0,52.0,1644846641.96875,P08,D13,1,0,0
1021,-36.0,1.0,52.0,1644846642.0,P08,D13,1,0,0
1022,-36.0,1.0,52.0,1644846642.03125,P08,D13,1,0,0
1023,-36.0,1.0,52.0,1644846642.0625,P08,D13,1,0,0
1024,-36.0,1.0,52.0,1644846642.09375,P08,D13,1,0,0
1025,-36.0,1.0,52.0,1644846642.125,P08,D13,1,0,0
1026,-36.0,1.0,52.0,1644846642.15625,P08,D13,1,0,0
1027,-36.0,1.0,52.0,1644846642.1875,P08,D13,1,0,0
1028,-36.0,1.0,52.0,1644846642.21875,P08,D13,1,0,0
1029,-36.0,1.0,52.0,1644846642.25,P08,D13,1,0,0
1030,-36.0,1.0,52.0,1644846642.28125,P08,D13,1,0,0
1031,-36.0,1.0,52.0,1644846642.3125,P08,D13,1,0,0
1032,-36.0,1.0,52.0,1644846642.34375,P08,D13,1,0,0
1033,-36.0,1.0,52.0,1644846642.375,P08,D13,1,0,0
1034,-36.0,1.0,52.0,1644846642.40625,P08,D13,1,0,0
1035,-36.0,1.0,52.0,1644846642.4375,P08,D13,1,0,0
1036,-36.0,1.0,52.0,1644846642.46875,P08,D13,1,0,0
1037,-36.0,1.0,52.0,1644846642.5,P08,D13,1,0,0
1038,-36.0,1.0,52.0,1644846642.53125,P08,D13,1,0,0
1039,-36.0,1.0,52.0,1644846642.5625,P08,D13,1,0,0
1040,-36.0,1.0,52.0,1644846642.59375,P08,D13,1,0,0
1041,-36.0,1.0,52.0,1644846642.625,P08,D13,1,0,0
1042,-36.0,1.0,52.0,1644846642.65625,P08,D13,1,0,0
1043,-36.0,1.0,52.0,1644846642.6875,P08,D13,1,0,0
1044,-36.0,1.0,52.0,1644846642.71875,P08,D13,1,0,0
1045,-36.0,1.0,52.0,1644846642.75,P08,D13,1,0,0
1046,-36.0,1.0,52.0,1644846642.78125,P08,D13,1,0,0
1047,-36.0,1.0,52.0,1644846642.8125,P08,D13,1,0,0
1048,-36.0,1.0,52.0,1644846642.84375,P08,D13,1,0,0
1049,-36.0,1.0,52.0,1644846642.875,P08,D13,1,0,0
1050,-36.0,1.0,52.0,1644846642.90625,P08,D13,1,0,0
1051,-36.0,1.0,52.0,1644846642.9375,P08,D13,1,0,0
1052,-36.0,1.0,52.0,1644846642.96875,P08,D13,1,0,0
1053,-36.0,1.0,52.0,1644846643.0,P08,D13,1,0,0
1054,-36.0,1.0,52.0,1644846643.03125,P08,D13,1,0,0
1055,-36.0,1.0,52.0,1644846643.0625,P08,D13,1,0,0
1056,-36.0,1.0,52.0,1644846643.09375,P08,D13,1,0,0
1057,-36.0,1.0,52.0,1644846643.125,P08,D13,1,0,0
1058,-36.0,1.0,52.0,1644846643.15625,P08,D13,1,0,0
1059,-36.0,1.0,52.0,1644846643.1875,P08,D13,1,0,0
1060,-36.0,1.0,52.0,1644846643.21875,P08,D13,1,0,0
1061,-36.0,1.0,52.0,1644846643.25,P08,D13,1,0,0
1062,-36.0,1.0,52.0,1644846643.28125,P08,D13,1,0,0
1063,-36.0,1.0,52.0,1644846643.3125,P08,D13,1,0,0
1064,-36.0,1.0,52.0,1644846643.34375,P08,D13,1,0,0
1065,-36.0,1.0,52.0,1644846643.375,P08,D13,1,0,0
1066,-36.0,1.0,52.0,1644846643.40625,P08,D13,1,0,0
1067,-36.0,1.0,52.0,1644846643.4375,P08,D13,1,0,0
1068,-36.0,1.0,52.0,1644846643.46875,P08,D13,1,0,0
1069,-36.0,1.0,52.0,1644846643.5,P08,D13,1,0,0
1070,-36.0,1.0,52.0,1644846643.53125,P08,D13,1,0,0
1071,-36.0,1.0,52.0,1644846643.5625,P08,D13,1,0,0
1072,-36.0,1.0,52.0,1644846643.59375,P08,D13,1,0,0
1073,-36.0,1.0,52.0,1644846643.625,P08,D13,1,0,0
1074,-36.0,1.0,52.0,1644846643.65625,P08,D13,1,0,0
1075,-36.0,1.0,52.0,1644846643.6875,P08,D13,1,0,0
1076,-36.0,1.0,52.0,1644846643.71875,P08,D13,1,0,0
1077,-36.0,1.0,52.0,1644846643.75,P08,D13,1,0,0
1078,-36.0,1.0,52.0,1644846643.78125,P08,D13,1,0,0
1079,-36.0,1.0,52.0,1644846643.8125,P08,D13,1,0,0
1080,-36.0,1.0,52.0,1644846643.84375,P08,D13,1,0,0
1081,-36.0,1.0,52.0,1644846643.875,P08,D13,1,0,0
1082,-36.0,1.0,52.0,1644846643.90625,P08,D13,1,0,0
1083,-36.0,1.0,52.0,1644846643.9375,P08,D13,1,0,0
1084,-36.0,1.0,52.0,1644846643.96875,P08,D13,1,0,0
1085,-36.0,1.0,52.0,1644846644.0,P08,D13,1,0,0
1086,-36.0,1.0,52.0,1644846644.03125,P08,D13,1,0,0
1087,-36.0,1.0,52.0,1644846644.0625,P08,D13,1,0,0
1088,-36.0,1.0,52.0,1644846644.09375,P08,D13,1,0,0
1089,-36.0,1.0,52.0,1644846644.125,P08,D13,1,0,0
1090,-36.0,1.0,52.0,1644846644.15625,P08,D13,1,0,0
1091,-36.0,1.0,52.0,1644846644.1875,P08,D13,1,0,0
1092,-36.0,1.0,52.0,1644846644.21875,P08,D13,1,0,0
1093,-36.0,1.0,52.0,1644846644.25,P08,D13,1,0,0
1094,-36.0,1.0,52.0,1644846644.28125,P08,D13,1,0,0
1095,-36.0,1.0,52.0,1644846644.3125,P08,D13,1,0,0
1096,-36.0,1.0,52.0,1644846644.34375,P08,D13,1,0,0
1097,-36.0,1.0,52.0,1644846644.375,P08,D13,1,0,0
1098,-36.0,1.0,52.0,1644846644.40625,P08,D13,1,0,0
1099,-36.0,1.0,52.0,1644846644.4375,P08,D13,1,0,0
1100,-36.0,1.0,52.0,1644846644.46875,P08,D13,1,0,0
1101,-36.0,1.0,52.0,1644846644.5,P08,D13,1,0,0
1102,-36.0,1.0,52.0,1644846644.53125,P08,D13,1,0,0
1103,-36.0,1.0,52.0,1644846644.5625,P08,D13,1,0,0
1104,-36.0,1.0,52.0,1644846644.59375,P08,D13,1,0,0
1105,-36.0,1.0,52.0,1644846644.625,P08,D13,1,0,0
1106,-36.0,1.0,52.0,1644846644.65625,P08,D13,1,0,0
1107,-36.0,1.0,52.0,1644846644.6875,P08,D13,1,0,0
1108,-36.0,1.0,52.0,1644846644.71875,P08,D13,1,0,0
1109,-36.0,1.0,52.0,1644846644.75,P08,D13,1,0,0
1110,-36.0,1.0,52.0,1644846644.78125,P08,D13,1,0,0
1111,-36.0,1.0,52.0,1644846644.8125,P08,D13,1,0,0
1112,-36.0,1.0,52.0,1644846644.84375,P08,D13,1,0,0
1113,-36.0,1.0,52.0,1644846644.875,P08,D13,1,0,0
1114,-36.0,1.0,52.0,1644846644.90625,P08,D13,1,0,0
1115,-36.0,1.0,52.0,1644846644.9375,P08,D13,1,0,0
1116,-36.0,1.0,52.0,1644846644.96875,P08,D13,1,0,0
1117,-36.0,1.0,52.0,1644846645.0,P08,D13,1,0,0
1118,-36.0,1.0,52.0,1644846645.03125,P08,D13,1,0,0
1119,-36.0,1.0,52.0,1644846645.0625,P08,D13,1,0,0
1120,-36.0,1.0,52.0,1644846645.09375,P08,D13,1,0,0
1121,-36.0,1.0,52.0,1644846645.125,P08,D13,1,0,0
1122,-36.0,1.0,52.0,1644846645.15625,P08,D13,1,0,0
1123,-36.0,1.0,52.0,1644846645.1875,P08,D13,1,0,0
1124,-36.0,1.0,52.0,1644846645.21875,P08,D13,1,0,0
1125,-36.0,1.0,52.0,1644846645.25,P08,D13,1,0,0
1126,-36.0,1.0,52.0,1644846645.28125,P08,D13,1,0,0
1127,-36.0,1.0,52.0,1644846645.3125,P08,D13,1,0,0
1128,-36.0,1.0,52.0,1644846645.34375,P08,D13,1,0,0
1129,-36.0,1.0,52.0,1644846645.375,P08,D13,1,0,0
1130,-37.0,1.0,52.0,1644846645.40625,P08,D13,1,0,0
1131,-36.0,1.0,52.0,1644846645.4375,P08,D13,1,0,0
1132,-36.0,1.0,52.0,1644846645.46875,P08,D13,1,0,0
1133,-36.0,1.0,52.0,1644846645.5,P08,D13,1,0,0
1134,-37.0,1.0,52.0,1644846645.53125,P08,D13,1,0,0
1135,-36.0,1.0,52.0,1644846645.5625,P08,D13,1,0,0
1136,-36.0,1.0,52.0,1644846645.59375,P08,D13,1,0,0
1137,-36.0,1.0,52.0,1644846645.625,P08,D13,1,0,0
1138,-36.0,1.0,52.0,1644846645.65625,P08,D13,1,0,0
1139,-36.0,1.0,52.0,1644846645.6875,P08,D13,1,0,0
1140,-36.0,1.0,52.0,1644846645.71875,P08,D13,1,0,0
1141,-36.0,1.0,52.0,1644846645.75,P08,D13,1,0,0
1142,-36.0,1.0,52.0,1644846645.78125,P08,D13,1,0,0
1143,-36.0,1.0,52.0,1644846645.8125,P08,D13,1,0,0
1144,-36.0,1.0,52.0,1644846645.84375,P08,D13,1,0,0
1145,-36.0,1.0,52.0,1644846645.875,P08,D13,1,0,0
1146,-36.0,1.0,52.0,1644846645.90625,P08,D13,1,0,0
1147,-36.0,1.0,52.0,1644846645.9375,P08,D13,1,0,0
1148,-37.0,1.0,52.0,1644846645.96875,P08,D13,1,0,0
1149,-36.0,1.0,52.0,1644846646.0,P08,D13,1,0,0
1150,-36.0,1.0,52.0,1644846646.03125,P08,D13,1,0,0
1151,-36.0,1.0,52.0,1644846646.0625,P08,D13,1,0,0
1152,-36.0,1.0,52.0,1644846646.09375,P08,D13,1,0,0
1153,-36.0,1.0,52.0,1644846646.125,P08,D13,1,0,0
1154,-36.0,1.0,52.0,1644846646.15625,P08,D13,1,0,0
1155,-36.0,1.0,52.0,1644846646.1875,P08,D13,1,0,0
1156,-36.0,1.0,52.0,1644846646.21875,P08,D13,1,0,0
1157,-36.0,1.0,52.0,1644846646.25,P08,D13,1,0,0
1158,-36.0,1.0,52.0,1644846646.28125,P08,D13,1,0,0
1159,-36.0,1.0,52.0,1644846646.3125,P08,D13,1,0,0
1160,-36.0,1.0,52.0,1644846646.34375,P08,D13,1,0,0
1161,-36.0,1.0,52.0,1644846646.375,P08,D13,1,0,0
1162,-36.0,1.0,52.0,1644846646.40625,P08,D13,1,0,0
1163,-36.0,1.0,52.0,1644846646.4375,P08,D13,1,0,0
1164,-36.0,1.0,52.0,1644846646.46875,P08,D13,1,0,0
1165,-36.0,1.0,52.0,1644846646.5,P08,D13,1,0,0
1166,-36.0,1.0,52.0,1644846646.53125,P08,D13,1,0,0
1167,-36.0,1.0,52.0,1644846646.5625,P08,D13,1,0,0
1168,-36.0,1.0,52.0,1644846646.59375,P08,D13,1,0,0
1169,-36.0,1.0,52.0,1644846646.625,P08,D13,1,0,0
1170,-36.0,1.0,52.0,1644846646.65625,P08,D13,1,0,0
1171,-36.0,1.0,52.0,1644846646.6875,P08,D13,1,0,0
1172,-36.0,1.0,52.0,1644846646.71875,P08,D13,1,0,0
1173,-36.0,1.0,52.0,1644846646.75,P08,D13,1,0,0
1174,-36.0,1.0,52.0,1644846646.78125,P08,D13,1,0,0
1175,-36.0,1.0,52.0,1644846646.8125,P08,D13,1,0,0
1176,-36.0,1.0,52.0,1644846646.84375,P08,D13,1,0,0
1177,-36.0,1.0,52.0,1644846646.875,P08,D13,1,0,0
1178,-36.0,1.0,52.0,1644846646.90625,P08,D13,1,0,0
1179,-36.0,1.0,52.0,1644846646.9375,P08,D13,1,0,0
1180,-36.0,1.0,52.0,1644846646.96875,P08,D13,1,0,0
1181,-37.0,1.0,52.0,1644846647.0,P08,D13,1,0,0
1182,-36.0,1.0,52.0,1644846647.03125,P08,D13,1,0,0
1183,-36.0,1.0,52.0,1644846647.0625,P08,D13,1,0,0
1184,-36.0,1.0,52.0,1644846647.09375,P08,D13,1,0,0
1185,-37.0,1.0,52.0,1644846647.125,P08,D13,1,0,0
1186,-36.0,1.0,52.0,1644846647.15625,P08,D13,1,0,0
1187,-36.0,1.0,52.0,1644846647.1875,P08,D13,1,0,0
1188,-36.0,1.0,52.0,1644846647.21875,P08,D13,1,0,0
1189,-37.0,1.0,52.0,1644846647.25,P08,D13,1,0,0
1190,-36.0,1.0,52.0,1644846647.28125,P08,D13,1,0,0
1191,-36.0,1.0,52.0,1644846647.3125,P08,D13,1,0,0
1192,-36.0,1.0,52.0,1644846647.34375,P08,D13,1,0,0
1193,-36.0,1.0,52.0,1644846647.375,P08,D13,1,0,0
1194,-36.0,1.0,52.0,1644846647.40625,P08,D13,1,0,0
1195,-36.0,1.0,52.0,1644846647.4375,P08,D13,1,0,0
1196,-36.0,1.0,52.0,1644846647.46875,P08,D13,1,0,0
1197,-37.0,1.0,52.0,1644846647.5,P08,D13,1,0,0
1198,-36.0,1.0,52.0,1644846647.53125,P08,D13,1,0,0
1199,-36.0,1.0,52.0,1644846647.5625,P08,D13,1,0,0
1200,-36.0,1.0,52.0,1644846647.59375,P08,D13,1,0,0
1201,-36.0,1.0,52.0,1644846647.625,P08,D13,1,0,0
1202,-36.0,1.0,52.0,1644846647.65625,P08,D13,1,0,0
1203,-36.0,1.0,52.0,1644846647.6875,P08,D13,1,0,0
1204,-36.0,1.0,52.0,1644846647.71875,P08,D13,1,0,0
1205,-36.0,1.0,52.0,1644846647.75,P08,D13,1,0,0
1206,-36.0,1.0,52.0,1644846647.78125,P08,D13,1,0,0
1207,-36.0,1.0,52.0,1644846647.8125,P08,D13,1,0,0
1208,-36.0,1.0,52.0,1644846647.84375,P08,D13,1,0,0
1209,-36.0,1.0,52.0,1644846647.875,P08,D13,1,0,0
1210,-36.0,1.0,52.0,1644846647.90625,P08,D13,1,0,0
1211,-36.0,1.0,52.0,1644846647.9375,P08,D13,1,0,0
1212,-36.0,1.0,52.0,1644846647.96875,P08,D13,1,0,0
1213,-36.0,1.0,52.0,1644846648.0,P08,D13,1,0,0
1214,-36.0,1.0,52.0,1644846648.03125,P08,D13,1,0,0
1215,-36.0,1.0,52.0,1644846648.0625,P08,D13,1,0,0
1216,-36.0,1.0,52.0,1644846648.09375,P08,D13,1,0,0
1217,-36.0,1.0,52.0,1644846648.125,P08,D13,1,0,0
1218,-36.0,1.0,52.0,1644846648.15625,P08,D13,1,0,0
1219,-36.0,1.0,52.0,1644846648.1875,P08,D13,1,0,0
1220,-36.0,1.0,52.0,1644846648.21875,P08,D13,1,0,0
1221,-36.0,1.0,52.0,1644846648.25,P08,D13,1,0,0
1222,-36.0,1.0,52.0,1644846648.28125,P08,D13,1,0,0
1223,-36.0,1.0,52.0,1644846648.3125,P08,D13,1,0,0
1224,-36.0,1.0,52.0,1644846648.34375,P08,D13,1,0,0
1225,-36.0,1.0,52.0,1644846648.375,P08,D13,1,0,0
1226,-36.0,1.0,52.0,1644846648.40625,P08,D13,1,0,0
1227,-36.0,1.0,52.0,1644846648.4375,P08,D13,1,0,0
1228,-36.0,1.0,52.0,1644846648.46875,P08,D13,1,0,0
1229,-36.0,1.0,52.0,1644846648.5,P08,D13,1,0,0
1230,-36.0,1.0,52.0,1644846648.53125,P08,D13,1,0,0
1231,-36.0,1.0,52.0,1644846648.5625,P08,D13,1,0,0
1232,-36.0,1.0,52.0,1644846648.59375,P08,D13,1,0,0
1233,-36.0,1.0,52.0,1644846648.625,P08,D13,1,0,0
1234,-36.0,1.0,52.0,1644846648.65625,P08,D13,1,0,0
1235,-36.0,1.0,52.0,1644846648.6875,P08,D13,1,0,0
1236,-36.0,1.0,52.0,1644846648.71875,P08,D13,1,0,0
1237,-36.0,1.0,52.0,1644846648.75,P08,D13,1,0,0
1238,-36.0,1.0,52.0,1644846648.78125,P08,D13,1,0,0
1239,-36.0,1.0,52.0,1644846648.8125,P08,D13,1,0,0
1240,-36.0,1.0,52.0,1644846648.84375,P08,D13,1,0,0
1241,-36.0,1.0,52.0,1644846648.875,P08,D13,1,0,0
1242,-36.0,1.0,52.0,1644846648.90625,P08,D13,1,0,0
1243,-36.0,1.0,52.0,1644846648.9375,P08,D13,1,0,0
1244,-36.0,1.0,52.0,1644846648.96875,P08,D13,1,0,0
1245,-36.0,1.0,52.0,1644846649.0,P08,D13,1,0,0
1246,-36.0,1.0,52.0,1644846649.03125,P08,D13,1,0,0
1247,-37.0,1.0,52.0,1644846649.0625,P08,D13,1,0,0
1248,-37.0,1.0,52.0,1644846649.09375,P08,D13,1,0,0
1249,-36.0,1.0,52.0,1644846649.125,P08,D13,1,0,0
1250,-37.0,1.0,52.0,1644846649.15625,P08,D13,1,0,0
1251,-36.0,1.0,52.0,1644846649.1875,P08,D13,1,0,0
1252,-36.0,1.0,52.0,1644846649.21875,P08,D13,1,0,0
1253,-36.0,1.0,52.0,1644846649.25,P08,D13,1,0,0
1254,-36.0,1.0,52.0,1644846649.28125,P08,D13,1,0,0
1255,-36.0,1.0,52.0,1644846649.3125,P08,D13,1,0,0
1256,-36.0,1.0,52.0,1644846649.34375,P08,D13,1,0,0
1257,-36.0,1.0,52.0,1644846649.375,P08,D13,1,0,0
1258,-36.0,1.0,52.0,1644846649.40625,P08,D13,1,0,0
1259,-36.0,1.0,52.0,1644846649.4375,P08,D13,1,0,0
1260,-36.0,1.0,52.0,1644846649.46875,P08,D13,1,0,0
1261,-37.0,1.0,52.0,1644846649.5,P08,D13,1,0,0
1262,-36.0,1.0,52.0,1644846649.53125,P08,D13,1,0,0
1263,-36.0,1.0,52.0,1644846649.5625,P08,D13,1,0,0
1264,-37.0,1.0,52.0,1644846649.59375,P08,D13,1,0,0
1265,-36.0,1.0,52.0,1644846649.625,P08,D13,1,0,0
1266,-36.0,1.0,52.0,1644846649.65625,P08,D13,1,0,0
1267,-36.0,1.0,52.0,1644846649.6875,P08,D13,1,0,0
1268,-36.0,1.0,52.0,1644846649.71875,P08,D13,1,0,0
1269,-36.0,1.0,52.0,1644846649.75,P08,D13,1,0,0
1270,-36.0,1.0,52.0,1644846649.78125,P08,D13,1,0,0
1271,-37.0,1.0,52.0,1644846649.8125,P08,D13,1,0,0
1272,-36.0,1.0,52.0,1644846649.84375,P08,D13,1,0,0
1273,-36.0,1.0,52.0,1644846649.875,P08,D13,1,0,0
1274,-36.0,1.0,52.0,1644846649.90625,P08,D13,1,0,0
1275,-36.0,1.0,52.0,1644846649.9375,P08,D13,1,0,0
1276,-36.0,1.0,52.0,1644846649.96875,P08,D13,1,0,0
1277,-36.0,1.0,52.0,1644846650.0,P08,D13,1,0,0
1278,-36.0,1.0,52.0,1644846650.03125,P08,D13,1,0,0
1279,-37.0,1.0,52.0,1644846650.0625,P08,D13,1,0,0
1280,-36.0,1.0,52.0,1644846650.09375,P08,D13,1,0,0
1281,-36.0,1.0,52.0,1644846650.125,P08,D13,1,0,0
1282,-36.0,1.0,52.0,1644846650.15625,P08,D13,1,0,0
1283,-36.0,1.0,52.0,1644846650.1875,P08,D13,1,0,0
1284,-36.0,1.0,52.0,1644846650.21875,P08,D13,1,0,0
1285,-36.0,1.0,52.0,1644846650.25,P08,D13,1,0,0
1286,-37.0,1.0,52.0,1644846650.28125,P08,D13,1,0,0
1287,-36.0,1.0,52.0,1644846650.3125,P08,D13,1,0,0
1288,-36.0,1.0,52.0,1644846650.34375,P08,D13,1,0,0
1289,-36.0,1.0,52.0,1644846650.375,P08,D13,1,0,0
1290,-36.0,1.0,52.0,1644846650.40625,P08,D13,1,0,0
1291,-36.0,1.0,52.0,1644846650.4375,P08,D13,1,0,0
1292,-36.0,1.0,52.0,1644846650.46875,P08,D13,1,0,0
1293,-37.0,1.0,52.0,1644846650.5,P08,D13,1,0,0
1294,-36.0,1.0,52.0,1644846650.53125,P08,D13,1,0,0
1295,-36.0,1.0,52.0,1644846650.5625,P08,D13,1,0,0
1296,-36.0,1.0,52.0,1644846650.59375,P08,D13,1,0,0
1297,-36.0,1.0,52.0,1644846650.625,P08,D13,1,0,0
1298,-36.0,1.0,52.0,1644846650.65625,P08,D13,1,0,0
1299,-37.0,1.0,52.0,1644846650.6875,P08,D13,1,0,0
1300,-36.0,1.0,52.0,1644846650.71875,P08,D13,1,0,0
1301,-37.0,1.0,52.0,1644846650.75,P08,D13,1,0,0
1302,-36.0,1.0,52.0,1644846650.78125,P08,D13,1,0,0
1303,-36.0,1.0,52.0,1644846650.8125,P08,D13,1,0,0
1304,-36.0,1.0,52.0,1644846650.84375,P08,D13,1,0,0
1305,-36.0,1.0,52.0,1644846650.875,P08,D13,1,0,0
1306,-37.0,1.0,52.0,1644846650.90625,P08,D13,1,0,0
1307,-36.0,1.0,52.0,1644846650.9375,P08,D13,1,0,0
1308,-36.0,1.0,52.0,1644846650.96875,P08,D13,1,0,0
1309,-36.0,1.0,52.0,1644846651.0,P08,D13,1,0,0
1310,-36.0,1.0,52.0,1644846651.03125,P08,D13,1,0,0
1311,-36.0,1.0,52.0,1644846651.0625,P08,D13,1,0,0
1312,-37.0,1.0,52.0,1644846651.09375,P08,D13,1,0,0
1313,-36.0,1.0,52.0,1644846651.125,P08,D13,1,0,0
1314,-36.0,1.0,52.0,1644846651.15625,P08,D13,1,0,0
1315,-36.0,1.0,52.0,1644846651.1875,P08,D13,1,0,0
1316,-36.0,1.0,52.0,1644846651.21875,P08,D13,1,0,0
1317,-36.0,1.0,52.0,1644846651.25,P08,D13,1,0,0
1318,-36.0,1.0,52.0,1644846651.28125,P08,D13,1,0,0
1319,-36.0,1.0,52.0,1644846651.3125,P08,D13,1,0,0
1320,-37.0,1.0,52.0,1644846651.34375,P08,D13,1,0,0
1321,-36.0,1.0,52.0,1644846651.375,P08,D13,1,0,0
1322,-36.0,1.0,52.0,1644846651.40625,P08,D13,1,0,0
1323,-36.0,1.0,52.0,1644846651.4375,P08,D13,1,0,0
1324,-36.0,1.0,52.0,1644846651.46875,P08,D13,1,0,0
1325,-36.0,1.0,52.0,1644846651.5,P08,D13,1,0,0
1326,-36.0,1.0,52.0,1644846651.53125,P08,D13,1,0,0
1327,-36.0,1.0,52.0,1644846651.5625,P08,D13,1,0,0
1328,-36.0,1.0,52.0,1644846651.59375,P08,D13,1,0,0
1329,-36.0,1.0,52.0,1644846651.625,P08,D13,1,0,0
1330,-36.0,1.0,52.0,1644846651.65625,P08,D13,1,0,0
1331,-36.0,1.0,52.0,1644846651.6875,P08,D13,1,0,0
1332,-36.0,1.0,52.0,1644846651.71875,P08,D13,1,0,0
1333,-36.0,1.0,52.0,1644846651.75,P08,D13,1,0,0
1334,-36.0,1.0,52.0,1644846651.78125,P08,D13,1,0,0
1335,-36.0,1.0,52.0,1644846651.8125,P08,D13,1,0,0
1336,-36.0,1.0,52.0,1644846651.84375,P08,D13,1,0,0
1337,-36.0,1.0,52.0,1644846651.875,P08,D13,1,0,0
1338,-36.0,1.0,52.0,1644846651.90625,P08,D13,1,0,0
1339,-36.0,1.0,52.0,1644846651.9375,P08,D13,1,0,0
1340,-36.0,1.0,52.0,1644846651.96875,P08,D13,1,0,0
1341,-36.0,1.0,52.0,1644846652.0,P08,D13,1,0,0
1342,-36.0,1.0,52.0,1644846652.03125,P08,D13,1,0,0
1343,-36.0,1.0,52.0,1644846652.0625,P08,D13,1,0,0
1344,-36.0,1.0,52.0,1644846652.09375,P08,D13,1,0,0
1345,-36.0,1.0,52.0,1644846652.125,P08,D13,1,0,0
1346,-36.0,1.0,52.0,1644846652.15625,P08,D13,1,0,0
1347,-36.0,1.0,52.0,1644846652.1875,P08,D13,1,0,0
1348,-36.0,1.0,52.0,1644846652.21875,P08,D13,1,0,0
1349,-36.0,1.0,52.0,1644846652.25,P08,D13,1,0,0
1350,-36.0,1.0,52.0,1644846652.28125,P08,D13,1,0,0
1351,-36.0,1.0,52.0,1644846652.3125,P08,D13,1,0,0
1352,-36.0,1.0,52.0,1644846652.34375,P08,D13,1,0,0
1353,-36.0,1.0,52.0,1644846652.375,P08,D13,1,0,0
1354,-36.0,1.0,52.0,1644846652.40625,P08,D13,1,0,0
1355,-36.0,1.0,52.0,1644846652.4375,P08,D13,1,0,0
1356,-36.0,1.0,52.0,1644846652.46875,P08,D13,1,0,0
1357,-36.0,1.0,52.0,1644846652.5,P08,D13,1,0,0
1358,-36.0,1.0,52.0,1644846652.53125,P08,D13,1,0,0
1359,-36.0,1.0,52.0,1644846652.5625,P08,D13,1,0,0
1360,-36.0,1.0,52.0,1644846652.59375,P08,D13,1,0,0
1361,-36.0,1.0,52.0,1644846652.625,P08,D13,1,0,0
1362,-36.0,1.0,52.0,1644846652.65625,P08,D13,1,0,0
1363,-36.0,1.0,52.0,1644846652.6875,P08,D13,1,0,0
1364,-36.0,1.0,52.0,1644846652.71875,P08,D13,1,0,0
1365,-36.0,1.0,52.0,1644846652.75,P08,D13,1,0,0
1366,-36.0,1.0,52.0,1644846652.78125,P08,D13,1,0,0
1367,-36.0,1.0,52.0,1644846652.8125,P08,D13,1,0,0
1368,-36.0,1.0,52.0,1644846652.84375,P08,D13,1,0,0
1369,-36.0,1.0,52.0,1644846652.875,P08,D13,1,0,0
1370,-36.0,1.0,52.0,1644846652.90625,P08,D13,1,0,0
1371,-36.0,1.0,52.0,1644846652.9375,P08,D13,1,0,0
1372,-37.0,1.0,52.0,1644846652.96875,P08,D13,1,0,0
1373,-37.0,1.0,52.0,1644846653.0,P08,D13,1,0,0
1374,-36.0,1.0,52.0,1644846653.03125,P08,D13,1,0,0
1375,-36.0,1.0,52.0,1644846653.0625,P08,D13,1,0,0
1376,-36.0,1.0,52.0,1644846653.09375,P08,D13,1,0,0
1377,-36.0,1.0,52.0,1644846653.125,P08,D13,1,0,0
1378,-36.0,1.0,52.0,1644846653.15625,P08,D13,1,0,0
1379,-36.0,1.0,52.0,1644846653.1875,P08,D13,1,0,0
1380,-36.0,1.0,52.0,1644846653.21875,P08,D13,1,0,0
1381,-36.0,1.0,52.0,1644846653.25,P08,D13,1,0,0
1382,-36.0,1.0,52.0,1644846653.28125,P08,D13,1,0,0
1383,-36.0,1.0,52.0,1644846653.3125,P08,D13,1,0,0
1384,-36.0,1.0,52.0,1644846653.34375,P08,D13,1,0,0
1385,-36.0,1.0,52.0,1644846653.375,P08,D13,1,0,0
1386,-36.0,1.0,52.0,1644846653.40625,P08,D13,1,0,0
1387,-37.0,1.0,52.0,1644846653.4375,P08,D13,1,0,0
1388,-36.0,1.0,52.0,1644846653.46875,P08,D13,1,0,0
1389,-36.0,1.0,52.0,1644846653.5,P08,D13,1,0,0
1390,-36.0,1.0,52.0,1644846653.53125,P08,D13,1,0,0
1391,-36.0,1.0,52.0,1644846653.5625,P08,D13,1,0,0
1392,-36.0,1.0,52.0,1644846653.59375,P08,D13,1,0,0
1393,-36.0,1.0,52.0,1644846653.625,P08,D13,1,0,0
1394,-36.0,1.0,52.0,1644846653.65625,P08,D13,1,0,0
1395,-36.0,1.0,52.0,1644846653.6875,P08,D13,1,0,0
1396,-36.0,1.0,52.0,1644846653.71875,P08,D13,1,0,0
1397,-37.0,1.0,52.0,1644846653.75,P08,D13,1,0,0
1398,-36.0,1.0,52.0,1644846653.78125,P08,D13,1,0,0
1399,-36.0,1.0,52.0,1644846653.8125,P08,D13,1,0,0
1400,-36.0,1.0,52.0,1644846653.84375,P08,D13,1,0,0
1401,-36.0,1.0,52.0,1644846653.875,P08,D13,1,0,0
1402,-36.0,1.0,52.0,1644846653.90625,P08,D13,1,0,0
1403,-36.0,1.0,52.0,1644846653.9375,P08,D13,1,0,0
1404,-36.0,1.0,52.0,1644846653.96875,P08,D13,1,0,0
1405,-36.0,1.0,52.0,1644846654.0,P08,D13,1,0,0
1406,-36.0,1.0,52.0,1644846654.03125,P08,D13,1,0,0
1407,-36.0,1.0,52.0,1644846654.0625,P08,D13,1,0,0
1408,-36.0,1.0,52.0,1644846654.09375,P08,D13,1,0,0
1409,-36.0,1.0,52.0,1644846654.125,P08,D13,1,0,0
1410,-36.0,1.0,52.0,1644846654.15625,P08,D13,1,0,0
1411,-36.0,1.0,52.0,1644846654.1875,P08,D13,1,0,0
1412,-36.0,1.0,52.0,1644846654.21875,P08,D13,1,0,0
1413,-36.0,1.0,52.0,1644846654.25,P08,D13,1,0,0
1414,-36.0,1.0,52.0,1644846654.28125,P08,D13,1,0,0
1415,-36.0,1.0,52.0,1644846654.3125,P08,D13,1,0,0
1416,-36.0,1.0,52.0,1644846654.34375,P08,D13,1,0,0
1417,-36.0,1.0,52.0,1644846654.375,P08,D13,1,0,0
1418,-36.0,1.0,52.0,1644846654.40625,P08,D13,1,0,0
1419,-36.0,1.0,52.0,1644846654.4375,P08,D13,1,0,0
1420,-36.0,1.0,52.0,1644846654.46875,P08,D13,1,0,0
1421,-36.0,1.0,52.0,1644846654.5,P08,D13,1,0,0
1422,-36.0,1.0,52.0,1644846654.53125,P08,D13,1,0,0
1423,-36.0,1.0,52.0,1644846654.5625,P08,D13,1,0,0
1424,-36.0,1.0,52.0,1644846654.59375,P08,D13,1,0,0
1425,-36.0,1.0,52.0,1644846654.625,P08,D13,1,0,0
1426,-36.0,1.0,52.0,1644846654.65625,P08,D13,1,0,0
1427,-37.0,1.0,52.0,1644846654.6875,P08,D13,1,0,0
1428,-36.0,1.0,52.0,1644846654.71875,P08,D13,1,0,0
1429,-36.0,1.0,52.0,1644846654.75,P08,D13,1,0,0
1430,-37.0,1.0,52.0,1644846654.78125,P08,D13,1,0,0
1431,-36.0,1.0,52.0,1644846654.8125,P08,D13,1,0,0
1432,-36.0,1.0,52.0,1644846654.84375,P08,D13,1,0,0
1433,-36.0,1.0,52.0,1644846654.875,P08,D13,1,0,0
1434,-36.0,1.0,52.0,1644846654.90625,P08,D13,1,0,0
1435,-36.0,1.0,52.0,1644846654.9375,P08,D13,1,0,0
1436,-36.0,1.0,52.0,1644846654.96875,P08,D13,1,0,0
1437,-36.0,1.0,52.0,1644846655.0,P08,D13,1,0,0
1438,-36.0,1.0,52.0,1644846655.03125,P08,D13,1,0,0
1439,-36.0,1.0,52.0,1644846655.0625,P08,D13,1,0,0
1440,-36.0,1.0,52.0,1644846655.09375,P08,D13,1,0,0
1441,-36.0,1.0,52.0,1644846655.125,P08,D13,1,0,0
1442,-36.0,1.0,52.0,1644846655.15625,P08,D13,1,0,0
1443,-36.0,1.0,52.0,1644846655.1875,P08,D13,1,0,0
1444,-36.0,1.0,52.0,1644846655.21875,P08,D13,1,0,0
1445,-36.0,1.0,52.0,1644846655.25,P08,D13,1,0,0
1446,-36.0,1.0,52.0,1644846655.28125,P08,D13,1,0,0
1447,-36.0,1.0,52.0,1644846655.3125,P08,D13,1,0,0
1448,-36.0,1.0,52.0,1644846655.34375,P08,D13,1,0,0
1449,-36.0,1.0,52.0,1644846655.375,P08,D13,1,0,0
1450,-36.0,1.0,52.0,1644846655.40625,P08,D13,1,0,0
1451,-36.0,1.0,52.0,1644846655.4375,P08,D13,1,0,0
1452,-36.0,1.0,52.0,1644846655.46875,P08,D13,1,0,0
1453,-36.0,1.0,52.0,1644846655.5,P08,D13,1,0,0
1454,-36.0,1.0,52.0,1644846655.53125,P08,D13,1,0,0
1455,-36.0,1.0,52.0,1644846655.5625,P08,D13,1,0,0
1456,-36.0,1.0,52.0,1644846655.59375,P08,D13,1,0,0
1457,-36.0,1.0,52.0,1644846655.625,P08,D13,1,0,0
1458,-36.0,1.0,52.0,1644846655.65625,P08,D13,1,0,0
1459,-36.0,1.0,52.0,1644846655.6875,P08,D13,1,0,0
1460,-36.0,1.0,52.0,1644846655.71875,P08,D13,1,0,0
1461,-36.0,1.0,52.0,1644846655.75,P08,D13,1,0,0
1462,-36.0,1.0,52.0,1644846655.78125,P08,D13,1,0,0
1463,-36.0,1.0,52.0,1644846655.8125,P08,D13,1,0,0
1464,-36.0,1.0,52.0,1644846655.84375,P08,D13,1,0,0
1465,-36.0,1.0,52.0,1644846655.875,P08,D13,1,0,0
1466,-36.0,1.0,52.0,1644846655.90625,P08,D13,1,0,0
1467,-36.0,1.0,52.0,1644846655.9375,P08,D13,1,0,0
1468,-36.0,1.0,52.0,1644846655.96875,P08,D13,1,0,0
1469,-36.0,1.0,52.0,1644846656.0,P08,D13,1,0,0
1470,-36.0,1.0,52.0,1644846656.03125,P08,D13,1,0,0
1471,-36.0,1.0,52.0,1644846656.0625,P08,D13,1,0,0
1472,-36.0,1.0,52.0,1644846656.09375,P08,D13,1,0,0
1473,-37.0,1.0,52.0,1644846656.125,P08,D13,1,0,0
1474,-36.0,1.0,52.0,1644846656.15625,P08,D13,1,0,0
1475,-36.0,1.0,52.0,1644846656.1875,P08,D13,1,0,0
1476,-37.0,1.0,52.0,1644846656.21875,P08,D13,1,0,0
1477,-36.0,1.0,52.0,1644846656.25,P08,D13,1,0,0
1478,-36.0,1.0,52.0,1644846656.28125,P08,D13,1,0,0
1479,-36.0,1.0,52.0,1644846656.3125,P08,D13,1,0,0
1480,-36.0,1.0,52.0,1644846656.34375,P08,D13,1,0,0
1481,-36.0,1.0,52.0,1644846656.375,P08,D13,1,0,0
1482,-36.0,1.0,52.0,1644846656.40625,P08,D13,1,0,0
1483,-36.0,1.0,52.0,1644846656.4375,P08,D13,1,0,0
1484,-36.0,1.0,52.0,1644846656.46875,P08,D13,1,0,0
1485,-36.0,1.0,52.0,1644846656.5,P08,D13,1,0,0
1486,-36.0,1.0,52.0,1644846656.53125,P08,D13,1,0,0
1487,-36.0,1.0,52.0,1644846656.5625,P08,D13,1,0,0
1488,-36.0,1.0,52.0,1644846656.59375,P08,D13,1,0,0
1489,-36.0,1.0,52.0,1644846656.625,P08,D13,1,0,0
1490,-36.0,1.0,52.0,1644846656.65625,P08,D13,1,0,0
1491,-36.0,1.0,52.0,1644846656.6875,P08,D13,1,0,0
1492,-36.0,1.0,52.0,1644846656.71875,P08,D13,1,0,0
1493,-36.0,1.0,52.0,1644846656.75,P08,D13,1,0,0
1494,-36.0,1.0,52.0,1644846656.78125,P08,D13,1,0,0
1495,-36.0,1.0,52.0,1644846656.8125,P08,D13,1,0,0
1496,-36.0,1.0,52.0,1644846656.84375,P08,D13,1,0,0
1497,-36.0,1.0,52.0,1644846656.875,P08,D13,1,0,0
1498,-36.0,1.0,52.0,1644846656.90625,P08,D13,1,0,0
1499,-36.0,1.0,52.0,1644846656.9375,P08,D13,1,0,0
1500,-36.0,1.0,52.0,1644846656.96875,P08,D13,1,0,0
1501,-36.0,1.0,52.0,1644846657.0,P08,D13,1,0,0
1502,-36.0,1.0,52.0,1644846657.03125,P08,D13,1,0,0
1503,-36.0,1.0,52.0,1644846657.0625,P08,D13,1,0,0
1504,-36.0,1.0,52.0,1644846657.09375,P08,D13,1,0,0
1505,-37.0,1.0,52.0,1644846657.125,P08,D13,1,0,0
1506,-36.0,1.0,52.0,1644846657.15625,P08,D13,1,0,0
1507,-36.0,1.0,52.0,1644846657.1875,P08,D13,1,0,0
1508,-36.0,1.0,52.0,1644846657.21875,P08,D13,1,0,0
1509,-36.0,1.0,52.0,1644846657.25,P08,D13,1,0,0
1510,-36.0,1.0,52.0,1644846657.28125,P08,D13,1,0,0
1511,-36.0,1.0,52.0,1644846657.3125,P08,D13,1,0,0
1512,-36.0,1.0,52.0,1644846657.34375,P08,D13,1,0,0
1513,-36.0,1.0,52.0,1644846657.375,P08,D13,1,0,0
1514,-36.0,1.0,52.0,1644846657.40625,P08,D13,1,0,0
1515,-37.0,1.0,52.0,1644846657.4375,P08,D13,1,0,0
1516,-37.0,1.0,52.0,1644846657.46875,P08,D13,1,0,0
1517,-36.0,1.0,52.0,1644846657.5,P08,D13,1,0,0
1518,-36.0,1.0,52.0,1644846657.53125,P08,D13,1,0,0
1519,-37.0,1.0,52.0,1644846657.5625,P08,D13,1,0,0
1520,-37.0,1.0,52.0,1644846657.59375,P08,D13,1,0,0
1521,-36.0,1.0,52.0,1644846657.625,P08,D13,1,0,0
1522,-36.0,1.0,52.0,1644846657.65625,P08,D13,1,0,0
1523,-36.0,1.0,52.0,1644846657.6875,P08,D13,1,0,0
1524,-37.0,1.0,52.0,1644846657.71875,P08,D13,1,0,0
1525,-37.0,1.0,52.0,1644846657.75,P08,D13,1,0,0
1526,-36.0,1.0,52.0,1644846657.78125,P08,D13,1,0,0
1527,-36.0,1.0,52.0,1644846657.8125,P08,D13,1,0,0
1528,-36.0,1.0,52.0,1644846657.84375,P08,D13,1,0,0
1529,-37.0,1.0,52.0,1644846657.875,P08,D13,1,0,0
1530,-37.0,1.0,52.0,1644846657.90625,P08,D13,1,0,0
1531,-36.0,1.0,52.0,1644846657.9375,P08,D13,1,0,0
1532,-36.0,1.0,52.0,1644846657.96875,P08,D13,1,0,0
1533,-36.0,1.0,52.0,1644846658.0,P08,D13,1,0,0
1534,-37.0,1.0,52.0,1644846658.03125,P08,D13,1,0,0
1535,-37.0,1.0,52.0,1644846658.0625,P08,D13,1,0,0
1536,-37.0,1.0,52.0,1644846658.09375,P08,D13,1,0,0
1537,-37.0,1.0,52.0,1644846658.125,P08,D13,1,0,0
1538,-37.0,1.0,52.0,1644846658.15625,P08,D13,1,0,0
1539,-37.0,2.0,52.0,1644846658.1875,P08,D13,1,0,0
1540,-36.0,1.0,52.0,1644846658.21875,P08,D13,1,0,0
1541,-36.0,2.0,52.0,1644846658.25,P08,D13,1,0,0
1542,-37.0,1.0,52.0,1644846658.28125,P08,D13,1,0,0
1543,-36.0,1.0,52.0,1644846658.3125,P08,D13,1,0,0
1544,-37.0,1.0,52.0,1644846658.34375,P08,D13,1,0,0
1545,-37.0,1.0,52.0,1644846658.375,P08,D13,1,0,0
1546,-37.0,1.0,52.0,1644846658.40625,P08,D13,1,0,0
1547,-37.0,1.0,52.0,1644846658.4375,P08,D13,1,0,0
1548,-37.0,1.0,52.0,1644846658.46875,P08,D13,1,0,0
1549,-37.0,1.0,52.0,1644846658.5,P08,D13,1,0,0
1550,-37.0,1.0,52.0,1644846658.53125,P08,D13,1,0,0
1551,-36.0,1.0,52.0,1644846658.5625,P08,D13,1,0,0
1552,-37.0,1.0,52.0,1644846658.59375,P08,D13,1,0,0
1553,-37.0,1.0,52.0,1644846658.625,P08,D13,1,0,0
1554,-37.0,1.0,52.0,1644846658.65625,P08,D13,1,0,0
1555,-37.0,1.0,52.0,1644846658.6875,P08,D13,1,0,0
1556,-37.0,1.0,52.0,1644846658.71875,P08,D13,1,0,0
1557,-37.0,1.0,52.0,1644846658.75,P08,D13,1,0,0
1558,-36.0,1.0,52.0,1644846658.78125,P08,D13,1,0,0
1559,-37.0,1.0,52.0,1644846658.8125,P08,D13,1,0,0
1560,-37.0,2.0,52.0,1644846658.84375,P08,D13,1,0,0
1561,-37.0,1.0,52.0,1644846658.875,P08,D13,1,0,0
1562,-37.0,1.0,52.0,1644846658.90625,P08,D13,1,0,0
1563,-37.0,1.0,52.0,1644846658.9375,P08,D13,1,0,0
1564,-37.0,1.0,52.0,1644846658.96875,P08,D13,1,0,0
1565,-37.0,1.0,52.0,1644846659.0,P08,D13,1,0,0
1566,-37.0,1.0,52.0,1644846659.03125,P08,D13,1,0,0
1567,-36.0,1.0,52.0,1644846659.0625,P08,D13,1,0,0
1568,-36.0,1.0,52.0,1644846659.09375,P08,D13,1,0,0
1569,-37.0,1.0,52.0,1644846659.125,P08,D13,1,0,0
1570,-37.0,1.0,52.0,1644846659.15625,P08,D13,1,0,0
1571,-36.0,1.0,52.0,1644846659.1875,P08,D13,1,0,0
1572,-37.0,1.0,52.0,1644846659.21875,P08,D13,1,0,0
1573,-37.0,1.0,52.0,1644846659.25,P08,D13,1,0,0
1574,-37.0,1.0,52.0,1644846659.28125,P08,D13,1,0,0
1575,-36.0,1.0,52.0,1644846659.3125,P08,D13,1,0,0
1576,-36.0,1.0,52.0,1644846659.34375,P08,D13,1,0,0
1577,-37.0,1.0,52.0,1644846659.375,P08,D13,1,0,0
1578,-36.0,1.0,52.0,1644846659.40625,P08,D13,1,0,0
1579,-36.0,1.0,52.0,1644846659.4375,P08,D13,1,0,0
1580,-36.0,1.0,52.0,1644846659.46875,P08,D13,1,0,0
1581,-36.0,1.0,52.0,1644846659.5,P08,D13,1,0,0
1582,-36.0,1.0,52.0,1644846659.53125,P08,D13,1,0,0
1583,-36.0,1.0,52.0,1644846659.5625,P08,D13,1,0,0
1584,-37.0,1.0,52.0,1644846659.59375,P08,D13,1,0,0
1585,-36.0,1.0,52.0,1644846659.625,P08,D13,1,0,0
1586,-36.0,1.0,52.0,1644846659.65625,P08,D13,1,0,0
1587,-37.0,1.0,52.0,1644846659.6875,P08,D13,1,0,0
1588,-36.0,1.0,52.0,1644846659.71875,P08,D13,1,0,0
1589,-36.0,1.0,52.0,1644846659.75,P08,D13,1,0,0
1590,-36.0,1.0,52.0,1644846659.78125,P08,D13,1,0,0
1591,-37.0,1.0,52.0,1644846659.8125,P08,D13,1,0,0
1592,-36.0,1.0,52.0,1644846659.84375,P08,D13,1,0,0
1593,-36.0,1.0,52.0,1644846659.875,P08,D13,1,0,0
1594,-36.0,1.0,52.0,1644846659.90625,P08,D13,1,0,0
1595,-37.0,1.0,52.0,1644846659.9375,P08,D13,1,0,0
1596,-36.0,1.0,52.0,1644846659.96875,P08,D13,1,0,0
1597,-36.0,1.0,52.0,1644846660.0,P08,D13,1,0,0
1598,-36.0,1.0,52.0,1644846660.03125,P08,D13,1,0,0
1599,-37.0,1.0,52.0,1644846660.0625,P08,D13,1,0,0
1600,-37.0,1.0,52.0,1644846660.09375,P08,D13,1,0,0
1601,-36.0,1.0,52.0,1644846660.125,P08,D13,1,0,0
1602,-36.0,1.0,52.0,1644846660.15625,P08,D13,1,0,0
1603,-37.0,1.0,52.0,1644846660.1875,P08,D13,1,0,0
1604,-36.0,1.0,52.0,1644846660.21875,P08,D13,1,0,0
1605,-36.0,1.0,52.0,1644846660.25,P08,D13,1,0,0
1606,-37.0,1.0,52.0,1644846660.28125,P08,D13,1,0,0
1607,-37.0,1.0,52.0,1644846660.3125,P08,D13,1,0,0
1608,-36.0,1.0,52.0,1644846660.34375,P08,D13,1,0,0
1609,-36.0,1.0,52.0,1644846660.375,P08,D13,1,0,0
1610,-36.0,1.0,52.0,1644846660.40625,P08,D13,1,0,0
1611,-37.0,1.0,52.0,1644846660.4375,P08,D13,1,0,0
1612,-36.0,1.0,52.0,1644846660.46875,P08,D13,1,0,0
1613,-36.0,1.0,52.0,1644846660.5,P08,D13,1,0,0
1614,-36.0,1.0,52.0,1644846660.53125,P08,D13,1,0,0
1615,-36.0,1.0,52.0,1644846660.5625,P08,D13,1,0,0
1616,-37.0,1.0,52.0,1644846660.59375,P08,D13,1,0,0
1617,-36.0,1.0,52.0,1644846660.625,P08,D13,1,0,0
1618,-36.0,1.0,52.0,1644846660.65625,P08,D13,1,0,0
1619,-36.0,1.0,52.0,1644846660.6875,P08,D13,1,0,0
1620,-36.0,1.0,52.0,1644846660.71875,P08,D13,1,0,0
1621,-37.0,1.0,52.0,1644846660.75,P08,D13,1,0,0
1622,-36.0,1.0,52.0,1644846660.78125,P08,D13,1,0,0
1623,-36.0,1.0,52.0,1644846660.8125,P08,D13,1,0,0
1624,-37.0,1.0,52.0,1644846660.84375,P08,D13,1,0,0
1625,-36.0,1.0,52.0,1644846660.875,P08,D13,1,0,0
1626,-36.0,1.0,52.0,1644846660.90625,P08,D13,1,0,0
1627,-36.0,1.0,52.0,1644846660.9375,P08,D13,1,0,0
1628,-36.0,1.0,52.0,1644846660.96875,P08,D13,1,0,0
1629,-37.0,1.0,52.0,1644846661.0,P08,D13,1,0,0
1630,-36.0,1.0,52.0,1644846661.03125,P08,D13,1,0,0
1631,-36.0,1.0,52.0,1644846661.0625,P08,D13,1,0,0
1632,-36.0,1.0,52.0,1644846661.09375,P08,D13,1,0,0
1633,-36.0,1.0,52.0,1644846661.125,P08,D13,1,0,0
1634,-36.0,1.0,52.0,1644846661.15625,P08,D13,1,0,0
1635,-36.0,1.0,52.0,1644846661.1875,P08,D13,1,0,0
1636,-36.0,1.0,52.0,1644846661.21875,P08,D13,1,0,0
1637,-36.0,1.0,52.0,1644846661.25,P08,D13,1,0,0
1638,-36.0,1.0,52.0,1644846661.28125,P08,D13,1,0,0
1639,-37.0,1.0,52.0,1644846661.3125,P08,D13,1,0,0
1640,-36.0,1.0,52.0,1644846661.34375,P08,D13,1,0,0
1641,-36.0,1.0,52.0,1644846661.375,P08,D13,1,0,0
1642,-36.0,1.0,52.0,1644846661.40625,P08,D13,1,0,0
1643,-36.0,1.0,52.0,1644846661.4375,P08,D13,1,0,0
1644,-36.0,1.0,52.0,1644846661.46875,P08,D13,1,0,0
1645,-36.0,1.0,52.0,1644846661.5,P08,D13,1,0,0
1646,-36.0,1.0,52.0,1644846661.53125,P08,D13,1,0,0
1647,-36.0,1.0,52.0,1644846661.5625,P08,D13,1,0,0
1648,-36.0,1.0,52.0,1644846661.59375,P08,D13,1,0,0
1649,-36.0,1.0,52.0,1644846661.625,P08,D13,1,0,0
1650,-36.0,1.0,52.0,1644846661.65625,P08,D13,1,0,0
1651,-36.0,1.0,52.0,1644846661.6875,P08,D13,1,0,0
1652,-36.0,1.0,52.0,1644846661.71875,P08,D13,1,0,0
1653,-36.0,1.0,52.0,1644846661.75,P08,D13,1,0,0
1654,-36.0,1.0,52.0,1644846661.78125,P08,D13,1,0,0
1655,-36.0,1.0,52.0,1644846661.8125,P08,D13,1,0,0
1656,-36.0,1.0,52.0,1644846661.84375,P08,D13,1,0,0
1657,-36.0,1.0,52.0,1644846661.875,P08,D13,1,0,0
1658,-36.0,1.0,52.0,1644846661.90625,P08,D13,1,0,0
1659,-36.0,1.0,52.0,1644846661.9375,P08,D13,1,0,0
1660,-36.0,1.0,52.0,1644846661.96875,P08,D13,1,0,0
1661,-36.0,1.0,52.0,1644846662.0,P08,D13,1,0,0
1662,-36.0,1.0,52.0,1644846662.03125,P08,D13,1,0,0
1663,-37.0,1.0,52.0,1644846662.0625,P08,D13,1,0,0
1664,-36.0,1.0,52.0,1644846662.09375,P08,D13,1,0,0
1665,-36.0,1.0,52.0,1644846662.125,P08,D13,1,0,0
1666,-36.0,1.0,52.0,1644846662.15625,P08,D13,1,0,0
1667,-37.0,1.0,52.0,1644846662.1875,P08,D13,1,0,0
1668,-36.0,1.0,52.0,1644846662.21875,P08,D13,1,0,0
1669,-36.0,1.0,52.0,1644846662.25,P08,D13,1,0,0
1670,-36.0,1.0,52.0,1644846662.28125,P08,D13,1,0,0
1671,-36.0,1.0,52.0,1644846662.3125,P08,D13,1,0,0
1672,-36.0,1.0,52.0,1644846662.34375,P08,D13,1,0,0
1673,-36.0,1.0,52.0,1644846662.375,P08,D13,1,0,0
1674,-36.0,1.0,52.0,1644846662.40625,P08,D13,1,0,0
1675,-36.0,1.0,52.0,1644846662.4375,P08,D13,1,0,0
1676,-36.0,1.0,52.0,1644846662.46875,P08,D13,1,0,0
1677,-36.0,1.0,52.0,1644846662.5,P08,D13,1,0,0
1678,-37.0,1.0,52.0,1644846662.53125,P08,D13,1,0,0
1679,-36.0,1.0,52.0,1644846662.5625,P08,D13,1,0,0
1680,-36.0,1.0,52.0,1644846662.59375,P08,D13,1,0,0
1681,-36.0,1.0,52.0,1644846662.625,P08,D13,1,0,0
1682,-36.0,1.0,52.0,1644846662.65625,P08,D13,1,0,0
1683,-36.0,1.0,52.0,1644846662.6875,P08,D13,1,0,0
1684,-36.0,1.0,52.0,1644846662.71875,P08,D13,1,0,0
1685,-36.0,1.0,52.0,1644846662.75,P08,D13,1,0,0
1686,-36.0,1.0,52.0,1644846662.78125,P08,D13,1,0,0
1687,-36.0,1.0,52.0,1644846662.8125,P08,D13,1,0,0
1688,-36.0,1.0,52.0,1644846662.84375,P08,D13,1,0,0
1689,-36.0,1.0,52.0,1644846662.875,P08,D13,1,0,0
1690,-37.0,1.0,52.0,1644846662.90625,P08,D13,1,0,0
1691,-36.0,1.0,52.0,1644846662.9375,P08,D13,1,0,0
1692,-36.0,1.0,52.0,1644846662.96875,P08,D13,1,0,0
1693,-36.0,1.0,52.0,1644846663.0,P08,D13,1,0,0
1694,-37.0,1.0,52.0,1644846663.03125,P08,D13,1,0,0
1695,-36.0,1.0,52.0,1644846663.0625,P08,D13,1,0,0
1696,-36.0,1.0,52.0,1644846663.09375,P08,D13,1,0,0
1697,-37.0,1.0,52.0,1644846663.125,P08,D13,1,0,0
1698,-36.0,1.0,52.0,1644846663.15625,P08,D13,1,0,0
1699,-36.0,1.0,52.0,1644846663.1875,P08,D13,1,0,0
1700,-36.0,1.0,52.0,1644846663.21875,P08,D13,1,0,0
1701,-37.0,1.0,52.0,1644846663.25,P08,D13,1,0,0
1702,-36.0,1.0,52.0,1644846663.28125,P08,D13,1,0,0
1703,-36.0,1.0,52.0,1644846663.3125,P08,D13,1,0,0
1704,-37.0,1.0,52.0,1644846663.34375,P08,D13,1,0,0
1705,-36.0,1.0,52.0,1644846663.375,P08,D13,1,0,0
1706,-36.0,1.0,52.0,1644846663.40625,P08,D13,1,0,0
1707,-37.0,1.0,52.0,1644846663.4375,P08,D13,1,0,0
1708,-37.0,1.0,52.0,1644846663.46875,P08,D13,1,0,0
1709,-36.0,1.0,52.0,1644846663.5,P08,D13,1,0,0
1710,-36.0,1.0,52.0,1644846663.53125,P08,D13,1,0,0
1711,-36.0,1.0,52.0,1644846663.5625,P08,D13,1,0,0
1712,-36.0,1.0,52.0,1644846663.59375,P08,D13,1,0,0
1713,-36.0,1.0,52.0,1644846663.625,P08,D13,1,0,0
1714,-36.0,1.0,52.0,1644846663.65625,P08,D13,1,0,0
1715,-36.0,1.0,52.0,1644846663.6875,P08,D13,1,0,0
1716,-36.0,1.0,52.0,1644846663.71875,P08,D13,1,0,0
1717,-36.0,1.0,52.0,1644846663.75,P08,D13,1,0,0
1718,-37.0,1.0,52.0,1644846663.78125,P08,D13,1,0,0
1719,-37.0,1.0,52.0,1644846663.8125,P08,D13,1,0,0
1720,-37.0,1.0,52.0,1644846663.84375,P08,D13,1,0,0
1721,-36.0,1.0,52.0,1644846663.875,P08,D13,1,0,0
1722,-36.0,1.0,52.0,1644846663.90625,P08,D13,1,0,0
1723,-36.0,1.0,52.0,1644846663.9375,P08,D13,1,0,0
1724,-36.0,1.0,52.0,1644846663.96875,P08,D13,1,0,0
1725,-36.0,1.0,52.0,1644846664.0,P08,D13,1,0,0
1726,-36.0,1.0,52.0,1644846664.03125,P08,D13,1,0,0
1727,-37.0,1.0,52.0,1644846664.0625,P08,D13,1,0,0
1728,-37.0,1.0,52.0,1644846664.09375,P08,D13,1,0,0
1729,-36.0,1.0,52.0,1644846664.125,P08,D13,1,0,0
1730,-36.0,1.0,52.0,1644846664.15625,P08,D13,1,0,0
1731,-37.0,1.0,52.0,1644846664.1875,P08,D13,1,0,0
1732,-37.0,1.0,52.0,1644846664.21875,P08,D13,1,0,0
1733,-36.0,1.0,52.0,1644846664.25,P08,D13,1,0,0
1734,-36.0,1.0,52.0,1644846664.28125,P08,D13,1,0,0
1735,-37.0,1.0,52.0,1644846664.3125,P08,D13,1,0,0
1736,-36.0,1.0,52.0,1644846664.34375,P08,D13,1,0,0
1737,-36.0,1.0,52.0,1644846664.375,P08,D13,1,0,0
1738,-37.0,1.0,52.0,1644846664.40625,P08,D13,1,0,0
1739,-36.0,1.0,52.0,1644846664.4375,P08,D13,1,0,0
1740,-36.0,1.0,52.0,1644846664.46875,P08,D13,1,0,0
1741,-37.0,1.0,52.0,1644846664.5,P08,D13,1,0,0
1742,-36.0,1.0,52.0,1644846664.53125,P08,D13,1,0,0
1743,-36.0,1.0,52.0,1644846664.5625,P08,D13,1,0,0
1744,-37.0,1.0,52.0,1644846664.59375,P08,D13,1,0,0
1745,-37.0,1.0,52.0,1644846664.625,P08,D13,1,0,0
1746,-36.0,1.0,52.0,1644846664.65625,P08,D13,1,0,0
1747,-37.0,1.0,52.0,1644846664.6875,P08,D13,1,0,0
1748,-36.0,1.0,52.0,1644846664.71875,P08,D13,1,0,0
1749,-37.0,1.0,52.0,1644846664.75,P08,D13,1,0,0
1750,-37.0,1.0,52.0,1644846664.78125,P08,D13,1,0,0
1751,-36.0,1.0,52.0,1644846664.8125,P08,D13,1,0,0
1752,-37.0,1.0,52.0,1644846664.84375,P08,D13,1,0,0
1753,-37.0,1.0,52.0,1644846664.875,P08,D13,1,0,0
1754,-36.0,1.0,52.0,1644846664.90625,P08,D13,1,0,0
1755,-37.0,1.0,52.0,1644846664.9375,P08,D13,1,0,0
1756,-37.0,1.0,52.0,1644846664.96875,P08,D13,1,0,0
1757,-36.0,1.0,52.0,1644846665.0,P08,D13,1,0,0
1758,-36.0,1.0,52.0,1644846665.03125,P08,D13,1,0,0
1759,-37.0,1.0,52.0,1644846665.0625,P08,D13,1,0,0
1760,-36.0,1.0,52.0,1644846665.09375,P08,D13,1,0,0
1761,-36.0,1.0,52.0,1644846665.125,P08,D13,1,0,0
1762,-37.0,1.0,52.0,1644846665.15625,P08,D13,1,0,0
1763,-36.0,1.0,52.0,1644846665.1875,P08,D13,1,0,0
1764,-37.0,1.0,52.0,1644846665.21875,P08,D13,1,0,0
1765,-37.0,1.0,52.0,1644846665.25,P08,D13,1,0,0
1766,-37.0,2.0,52.0,1644846665.28125,P08,D13,1,0,0
1767,-36.0,1.0,52.0,1644846665.3125,P08,D13,1,0,0
1768,-36.0,1.0,52.0,1644846665.34375,P08,D13,1,0,0
1769,-37.0,1.0,52.0,1644846665.375,P08,D13,1,0,0
1770,-37.0,1.0,52.0,1644846665.40625,P08,D13,1,0,0
1771,-36.0,1.0,52.0,1644846665.4375,P08,D13,1,0,0
1772,-36.0,1.0,52.0,1644846665.46875,P08,D13,1,0,0
1773,-36.0,1.0,52.0,1644846665.5,P08,D13,1,0,0
1774,-36.0,1.0,52.0,1644846665.53125,P08,D13,1,0,0
1775,-37.0,1.0,52.0,1644846665.5625,P08,D13,1,0,0
1776,-36.0,1.0,52.0,1644846665.59375,P08,D13,1,0,0
1777,-36.0,1.0,52.0,1644846665.625,P08,D13,1,0,0
1778,-36.0,1.0,52.0,1644846665.65625,P08,D13,1,0,0
1779,-36.0,1.0,52.0,1644846665.6875,P08,D13,1,0,0
1780,-37.0,1.0,52.0,1644846665.71875,P08,D13,1,0,0
1781,-36.0,1.0,52.0,1644846665.75,P08,D13,1,0,0
1782,-36.0,1.0,52.0,1644846665.78125,P08,D13,1,0,0
1783,-37.0,1.0,52.0,1644846665.8125,P08,D13,1,0,0
1784,-37.0,1.0,52.0,1644846665.84375,P08,D13,1,0,0
1785,-36.0,1.0,52.0,1644846665.875,P08,D13,1,0,0
1786,-37.0,1.0,52.0,1644846665.90625,P08,D13,1,0,0
1787,-37.0,1.0,52.0,1644846665.9375,P08,D13,1,0,0
1788,-36.0,1.0,52.0,1644846665.96875,P08,D13,1,0,0
1789,-36.0,1.0,52.0,1644846666.0,P08,D13,1,0,0
1790,-37.0,1.0,52.0,1644846666.03125,P08,D13,1,0,0
1791,-36.0,1.0,52.0,1644846666.0625,P08,D13,1,0,0
1792,-36.0,1.0,52.0,1644846666.09375,P08,D13,1,0,0
1793,-36.0,1.0,52.0,1644846666.125,P08,D13,1,0,0
1794,-37.0,1.0,52.0,1644846666.15625,P08,D13,1,0,0
