,acc_x,acc_y,acc_z,timestamp,participant,document,val,arou,eng
0,-4.0,-5.0,62.0,1644844326.78125,P08,D02,1,1,1
1,-4.0,-5.0,62.0,1644844326.8125,P08,D02,1,1,1
2,-4.0,-5.0,62.0,1644844326.84375,P08,D02,1,1,1
3,-4.0,-5.0,62.0,1644844326.875,P08,D02,1,1,1
4,-3.0,-5.0,62.0,1644844326.90625,P08,D02,1,1,1
5,-3.0,-5.0,62.0,1644844326.9375,P08,D02,1,1,1
6,-4.0,-5.0,62.0,1644844326.96875,P08,D02,1,1,1
7,-4.0,-5.0,62.0,1644844327.0,P08,D02,1,1,1
8,-4.0,-5.0,62.0,1644844327.03125,P08,D02,1,1,1
9,-4.0,-5.0,62.0,1644844327.0625,P08,D02,1,1,1
10,-4.0,-5.0,62.0,1644844327.09375,P08,D02,1,1,1
11,-3.0,-5.0,62.0,1644844327.125,P08,D02,1,1,1
12,-3.0,-5.0,62.0,1644844327.15625,P08,D02,1,1,1
13,-4.0,-5.0,62.0,1644844327.1875,P08,D02,1,1,1
14,-4.0,-5.0,62.0,1644844327.21875,P08,D02,1,1,1
15,-4.0,-5.0,62.0,1644844327.25,P08,D02,1,1,1
16,-3.0,-5.0,62.0,1644844327.28125,P08,D02,1,1,1
17,-3.0,-5.0,62.0,1644844327.3125,P08,D02,1,1,1
18,-3.0,-5.0,62.0,1644844327.34375,P08,D02,1,1,1
19,-4.0,-5.0,62.0,1644844327.375,P08,D02,1,1,1
20,-4.0,-5.0,62.0,1644844327.40625,P08,D02,1,1,1
21,-3.0,-5.0,62.0,1644844327.4375,P08,D02,1,1,1
22,-3.0,-5.0,62.0,1644844327.46875,P08,D02,1,1,1
23,-4.0,-5.0,62.0,1644844327.5,P08,D02,1,1,1
24,-4.0,-5.0,62.0,1644844327.53125,P08,D02,1,1,1
25,-4.0,-5.0,62.0,1644844327.5625,P08,D02,1,1,1
26,-4.0,-5.0,62.0,1644844327.59375,P08,D02,1,1,1
27,-3.0,-5.0,62.0,1644844327.625,P08,D02,1,1,1
28,-4.0,-5.0,62.0,1644844327.65625,P08,D02,1,1,1
29,-3.0,-5.0,62.0,1644844327.6875,P08,D02,1,1,1
30,-4.0,-5.0,62.0,1644844327.71875,P08,D02,1,1,1
31,-4.0,-5.0,62.0,1644844327.75,P08,D02,1,1,1
32,-4.0,-5.0,62.0,1644844327.78125,P08,D02,1,1,1
33,-4.0,-5.0,62.0,1644844327.8125,P08,D02,1,1,1
34,-3.0,-5.0,62.0,1644844327.84375,P08,D02,1,1,1
35,-3.0,-5.0,62.0,1644844327.875,P08,D02,1,1,1
36,-3.0,-5.0,62.0,1644844327.90625,P08,D02,1,1,1
37,-4.0,-5.0,62.0,1644844327.9375,P08,D02,1,1,1
38,-4.0,-5.0,62.0,1644844327.96875,P08,D02,1,1,1
39,-3.0,-5.0,62.0,1644844328.0,P08,D02,1,1,1
40,-3.0,-5.0,62.0,1644844328.03125,P08,D02,1,1,1
41,-4.0,-5.0,62.0,1644844328.0625,P08,D02,1,1,1
42,-3.0,-5.0,62.0,1644844328.09375,P08,D02,1,1,1
43,-4.0,-5.0,62.0,1644844328.125,P08,D02,1,1,1
44,-4.0,-5.0,62.0,1644844328.15625,P08,D02,1,1,1
45,-4.0,-5.0,62.0,1644844328.1875,P08,D02,1,1,1
46,-3.0,-5.0,62.0,1644844328.21875,P08,D02,1,1,1
47,-4.0,-5.0,62.0,1644844328.25,P08,D02,1,1,1
48,-4.0,-5.0,62.0,1644844328.28125,P08,D02,1,1,1
49,-4.0,-5.0,62.0,1644844328.3125,P08,D02,1,1,1
50,-3.0,-5.0,62.0,1644844328.34375,P08,D02,1,1,1
51,-4.0,-5.0,62.0,1644844328.375,P08,D02,1,1,1
52,-4.0,-5.0,62.0,1644844328.40625,P08,D02,1,1,1
53,-3.0,-5.0,62.0,1644844328.4375,P08,D02,1,1,1
54,-3.0,-5.0,62.0,1644844328.46875,P08,D02,1,1,1
55,-4.0,-5.0,62.0,1644844328.5,P08,D02,1,1,1
56,-4.0,-5.0,62.0,1644844328.53125,P08,D02,1,1,1
57,-3.0,-5.0,62.0,1644844328.5625,P08,D02,1,1,1
58,-3.0,-5.0,62.0,1644844328.59375,P08,D02,1,1,1
59,-3.0,-5.0,62.0,1644844328.625,P08,D02,1,1,1
60,-3.0,-5.0,62.0,1644844328.65625,P08,D02,1,1,1
61,-3.0,-5.0,62.0,1644844328.6875,P08,D02,1,1,1
62,-3.0,-5.0,62.0,1644844328.71875,P08,D02,1,1,1
63,-3.0,-5.0,62.0,1644844328.75,P08,D02,1,1,1
64,-4.0,-5.0,62.0,1644844328.78125,P08,D02,1,1,1
65,-3.0,-5.0,62.0,1644844328.8125,P08,D02,1,1,1
66,-3.0,-5.0,62.0,1644844328.84375,P08,D02,1,1,1
67,-3.0,-5.0,62.0,1644844328.875,P08,D02,1,1,1
68,-3.0,-5.0,62.0,1644844328.90625,P08,D02,1,1,1
69,-3.0,-5.0,62.0,1644844328.9375,P08,D02,1,1,1
70,-3.0,-5.0,62.0,1644844328.96875,P08,D02,1,1,1
71,-3.0,-5.0,62.0,1644844329.0,P08,D02,1,1,1
72,-3.0,-5.0,62.0,1644844329.03125,P08,D02,1,1,1
73,-3.0,-5.0,62.0,1644844329.0625,P08,D02,1,1,1
74,-4.0,-5.0,62.0,1644844329.09375,P08,D02,1,1,1
75,-3.0,-5.0,62.0,1644844329.125,P08,D02,1,1,1
76,-3.0,-5.0,62.0,1644844329.15625,P08,D02,1,1,1
77,-3.0,-5.0,62.0,1644844329.1875,P08,D02,1,1,1
78,-4.0,-5.0,62.0,1644844329.21875,P08,D02,1,1,1
79,-3.0,-5.0,62.0,1644844329.25,P08,D02,1,1,1
80,-3.0,-5.0,62.0,1644844329.28125,P08,D02,1,1,1
81,-3.0,-5.0,62.0,1644844329.3125,P08,D02,1,1,1
82,-4.0,-5.0,62.0,1644844329.34375,P08,D02,1,1,1
83,-3.0,-5.0,62.0,1644844329.375,P08,D02,1,1,1
84,-4.0,-5.0,62.0,1644844329.40625,P08,D02,1,1,1
85,-4.0,-5.0,62.0,1644844329.4375,P08,D02,1,1,1
86,-4.0,-5.0,62.0,1644844329.46875,P08,D02,1,1,1
87,-4.0,-5.0,62.0,1644844329.5,P08,D02,1,1,1
88,-3.0,-5.0,62.0,1644844329.53125,P08,D02,1,1,1
89,-3.0,-5.0,62.0,1644844329.5625,P08,D02,1,1,1
90,-3.0,-5.0,62.0,1644844329.59375,P08,D02,1,1,1
91,-3.0,-5.0,62.0,1644844329.625,P08,D02,1,1,1
92,-4.0,-5.0,62.0,1644844329.65625,P08,D02,1,1,1
93,-3.0,-5.0,62.0,1644844329.6875,P08,D02,1,1,1
94,-3.0,-5.0,62.0,1644844329.71875,P08,D02,1,1,1
95,-3.0,-5.0,62.0,1644844329.75,P08,D02,1,1,1
96,-3.0,-5.0,62.0,1644844329.78125,P08,D02,1,1,1
97,-4.0,-5.0,62.0,1644844329.8125,P08,D02,1,1,1
98,-3.0,-5.0,62.0,1644844329.84375,P08,D02,1,1,1
99,-3.0,-5.0,62.0,1644844329.875,P08,D02,1,1,1
100,-3.0,-5.0,62.0,1644844329.90625,P08,D02,1,1,1
101,-3.0,-5.0,62.0,1644844329.9375,P08,D02,1,1,1
102,-3.0,-5.0,62.0,1644844329.96875,P08,D02,1,1,1
103,-4.0,-5.0,62.0,1644844330.0,P08,D02,1,1,1
104,-4.0,-5.0,62.0,1644844330.03125,P08,D02,1,1,1
105,-3.0,-5.0,62.0,1644844330.0625,P08,D02,1,1,1
106,-3.0,-5.0,62.0,1644844330.09375,P08,D02,1,1,1
107,-3.0,-5.0,62.0,1644844330.125,P08,D02,1,1,1
108,-3.0,-5.0,62.0,1644844330.15625,P08,D02,1,1,1
109,-4.0,-5.0,62.0,1644844330.1875,P08,D02,1,1,1
110,-4.0,-5.0,62.0,1644844330.21875,P08,D02,1,1,1
111,-3.0,-5.0,62.0,1644844330.25,P08,D02,1,1,1
112,-3.0,-5.0,62.0,1644844330.28125,P08,D02,1,1,1
113,-4.0,-5.0,62.0,1644844330.3125,P08,D02,1,1,1
114,-4.0,-5.0,62.0,1644844330.34375,P08,D02,1,1,1
115,-3.0,-5.0,62.0,1644844330.375,P08,D02,1,1,1
116,-3.0,-6.0,62.0,1644844330.40625,P08,D02,1,1,1
117,-4.0,-5.0,62.0,1644844330.4375,P08,D02,1,1,1
118,-3.0,-5.0,63.0,1644844330.46875,P08,D02,1,1,1
119,-3.0,-5.0,62.0,1644844330.5,P08,D02,1,1,1
120,-4.0,-5.0,62.0,1644844330.53125,P08,D02,1,1,1
121,-3.0,-5.0,62.0,1644844330.5625,P08,D02,1,1,1
122,-3.0,-6.0,62.0,1644844330.59375,P08,D02,1,1,1
123,-3.0,-5.0,62.0,1644844330.625,P08,D02,1,1,1
124,-4.0,-5.0,62.0,1644844330.65625,P08,D02,1,1,1
125,-3.0,-5.0,62.0,1644844330.6875,P08,D02,1,1,1
126,-3.0,-5.0,62.0,1644844330.71875,P08,D02,1,1,1
127,-4.0,-5.0,62.0,1644844330.75,P08,D02,1,1,1
128,-3.0,-6.0,62.0,1644844330.78125,P08,D02,1,1,1
129,-3.0,-5.0,62.0,1644844330.8125,P08,D02,1,1,1
130,-3.0,-5.0,62.0,1644844330.84375,P08,D02,1,1,1
131,-3.0,-5.0,62.0,1644844330.875,P08,D02,1,1,1
132,-3.0,-5.0,62.0,1644844330.90625,P08,D02,1,1,1
133,-3.0,-5.0,62.0,1644844330.9375,P08,D02,1,1,1
134,-3.0,-5.0,62.0,1644844330.96875,P08,D02,1,1,1
135,-3.0,-5.0,62.0,1644844331.0,P08,D02,1,1,1
136,-3.0,-5.0,62.0,1644844331.03125,P08,D02,1,1,1
137,-3.0,-5.0,62.0,1644844331.0625,P08,D02,1,1,1
138,-3.0,-5.0,62.0,1644844331.09375,P08,D02,1,1,1
139,-3.0,-5.0,62.0,1644844331.125,P08,D02,1,1,1
140,-3.0,-5.0,62.0,1644844331.15625,P08,D02,1,1,1
141,-3.0,-5.0,62.0,1644844331.1875,P08,D02,1,1,1
142,-3.0,-5.0,62.0,1644844331.21875,P08,D02,1,1,1
143,-3.0,-5.0,62.0,1644844331.25,P08,D02,1,1,1
144,-3.0,-5.0,62.0,1644844331.28125,P08,D02,1,1,1
145,-3.0,-5.0,62.0,1644844331.3125,P08,D02,1,1,1
146,-3.0,-5.0,62.0,1644844331.34375,P08,D02,1,1,1
147,-3.0,-5.0,62.0,1644844331.375,P08,D02,1,1,1
148,-3.0,-5.0,62.0,1644844331.40625,P08,D02,1,1,1
149,-3.0,-5.0,62.0,1644844331.4375,P08,D02,1,1,1
150,-3.0,-5.0,62.0,1644844331.46875,P08,D02,1,1,1
151,-3.0,-5.0,62.0,1644844331.5,P08,D02,1,1,1
152,-3.0,-5.0,62.0,1644844331.53125,P08,D02,1,1,1
153,-3.0,-5.0,62.0,1644844331.5625,P08,D02,1,1,1
154,-3.0,-5.0,62.0,1644844331.59375,P08,D02,1,1,1
155,-2.0,-5.0,62.0,1644844331.625,P08,D02,1,1,1
156,-3.0,-5.0,62.0,1644844331.65625,P08,D02,1,1,1
157,-4.0,-5.0,62.0,1644844331.6875,P08,D02,1,1,1
158,-4.0,-5.0,62.0,1644844331.71875,P08,D02,1,1,1
159,-3.0,-5.0,62.0,1644844331.75,P08,D02,1,1,1
160,-3.0,-5.0,62.0,1644844331.78125,P08,D02,1,1,1
161,-3.0,-5.0,62.0,1644844331.8125,P08,D02,1,1,1
162,-3.0,-5.0,62.0,1644844331.84375,P08,D02,1,1,1
163,-3.0,-5.0,62.0,1644844331.875,P08,D02,1,1,1
164,-4.0,-5.0,62.0,1644844331.90625,P08,D02,1,1,1
165,-3.0,-5.0,62.0,1644844331.9375,P08,D02,1,1,1
166,-3.0,-5.0,62.0,1644844331.96875,P08,D02,1,1,1
167,-3.0,-5.0,62.0,1644844332.0,P08,D02,1,1,1
168,-3.0,-5.0,62.0,1644844332.03125,P08,D02,1,1,1
169,-3.0,-5.0,62.0,1644844332.0625,P08,D02,1,1,1
170,-3.0,-5.0,62.0,1644844332.09375,P08,D02,1,1,1
171,-3.0,-5.0,62.0,1644844332.125,P08,D02,1,1,1
172,-3.0,-5.0,62.0,1644844332.15625,P08,D02,1,1,1
173,-3.0,-5.0,62.0,1644844332.1875,P08,D02,1,1,1
174,-4.0,-5.0,62.0,1644844332.21875,P08,D02,1,1,1
175,-3.0,-5.0,62.0,1644844332.25,P08,D02,1,1,1
176,-3.0,-5.0,62.0,1644844332.28125,P08,D02,1,1,1
177,-3.0,-5.0,62.0,1644844332.3125,P08,D02,1,1,1
178,-3.0,-5.0,62.0,1644844332.34375,P08,D02,1,1,1
179,-3.0,-5.0,62.0,1644844332.375,P08,D02,1,1,1
180,-3.0,-5.0,62.0,1644844332.40625,P08,D02,1,1,1
181,-3.0,-5.0,62.0,1644844332.4375,P08,D02,1,1,1
182,-3.0,-5.0,62.0,1644844332.46875,P08,D02,1,1,1
183,-4.0,-5.0,62.0,1644844332.5,P08,D02,1,1,1
184,-3.0,-5.0,62.0,1644844332.53125,P08,D02,1,1,1
185,-3.0,-5.0,62.0,1644844332.5625,P08,D02,1,1,1
186,-3.0,-5.0,62.0,1644844332.59375,P08,D02,1,1,1
187,-3.0,-5.0,62.0,1644844332.625,P08,D02,1,1,1
188,-3.0,-5.0,62.0,1644844332.65625,P08,D02,1,1,1
189,-3.0,-5.0,62.0,1644844332.6875,P08,D02,1,1,1
190,-3.0,-5.0,62.0,1644844332.71875,P08,D02,1,1,1
191,-3.0,-5.0,62.0,1644844332.75,P08,D02,1,1,1
192,-3.0,-5.0,62.0,1644844332.78125,P08,D02,1,1,1
193,-3.0,-5.0,62.0,1644844332.8125,P08,D02,1,1,1
194,-3.0,-5.0,62.0,1644844332.84375,P08,D02,1,1,1
195,-3.0,-5.0,62.0,1644844332.875,P08,D02,1,1,1
196,-4.0,-5.0,62.0,1644844332.90625,P08,D02,1,1,1
197,-3.0,-5.0,62.0,1644844332.9375,P08,D02,1,1,1
198,-3.0,-5.0,62.0,1644844332.96875,P08,D02,1,1,1
199,-3.0,-5.0,62.0,1644844333.0,P08,D02,1,1,1
200,-3.0,-5.0,62.0,1644844333.03125,P08,D02,1,1,1
201,-3.0,-5.0,62.0,1644844333.0625,P08,D02,1,1,1
202,-3.0,-5.0,62.0,1644844333.09375,P08,D02,1,1,1
203,-3.0,-5.0,62.0,1644844333.125,P08,D02,1,1,1
204,-3.0,-5.0,62.0,1644844333.15625,P08,D02,1,1,1
205,-3.0,-5.0,62.0,1644844333.1875,P08,D02,1,1,1
206,-3.0,-5.0,62.0,1644844333.21875,P08,D02,1,1,1
207,-3.0,-5.0,62.0,1644844333.25,P08,D02,1,1,1
208,-3.0,-5.0,62.0,1644844333.28125,P08,D02,1,1,1
209,-3.0,-5.0,62.0,1644844333.3125,P08,D02,1,1,1
210,-3.0,-5.0,62.0,1644844333.34375,P08,D02,1,1,1
211,-3.0,-5.0,62.0,1644844333.375,P08,D02,1,1,1
212,-3.0,-5.0,62.0,1644844333.40625,P08,D02,1,1,1
213,-3.0,-5.0,62.0,1644844333.4375,P08,D02,1,1,1
214,-3.0,-5.0,62.0,1644844333.46875,P08,D02,1,1,1
215,-3.0,-5.0,62.0,1644844333.5,P08,D02,1,1,1
216,-3.0,-5.0,62.0,1644844333.53125,P08,D02,1,1,1
217,-3.0,-5.0,62.0,1644844333.5625,P08,D02,1,1,1
218,-3.0,-5.0,62.0,1644844333.59375,P08,D02,1,1,1
219,-3.0,-5.0,62.0,1644844333.625,P08,D02,1,1,1
220,-3.0,-5.0,62.0,1644844333.65625,P08,D02,1,1,1
221,-4.0,-5.0,62.0,1644844333.6875,P08,D02,1,1,1
222,-3.0,-5.0,62.0,1644844333.71875,P08,D02,1,1,1
223,-3.0,-5.0,62.0,1644844333.75,P08,D02,1,1,1
224,-3.0,-5.0,62.0,1644844333.78125,P08,D02,1,1,1
225,-3.0,-5.0,62.0,1644844333.8125,P08,D02,1,1,1
226,-3.0,-5.0,62.0,1644844333.84375,P08,D02,1,1,1
227,-4.0,-5.0,62.0,1644844333.875,P08,D02,1,1,1
228,-3.0,-5.0,62.0,1644844333.90625,P08,D02,1,1,1
229,-3.0,-5.0,62.0,1644844333.9375,P08,D02,1,1,1
230,-3.0,-5.0,62.0,1644844333.96875,P08,D02,1,1,1
231,-3.0,-5.0,62.0,1644844334.0,P08,D02,1,1,1
232,-3.0,-5.0,62.0,1644844334.03125,P08,D02,1,1,1
233,-4.0,-5.0,62.0,1644844334.0625,P08,D02,1,1,1
234,-3.0,-5.0,62.0,1644844334.09375,P08,D02,1,1,1
235,-3.0,-5.0,62.0,1644844334.125,P08,D02,1,1,1
236,-4.0,-5.0,62.0,1644844334.15625,P08,D02,1,1,1
237,-3.0,-5.0,62.0,1644844334.1875,P08,D02,1,1,1
238,-2.0,-5.0,62.0,1644844334.21875,P08,D02,1,1,1
239,-3.0,-5.0,62.0,1644844334.25,P08,D02,1,1,1
240,-3.0,-5.0,62.0,1644844334.28125,P08,D02,1,1,1
241,-4.0,-5.0,62.0,1644844334.3125,P08,D02,1,1,1
242,-3.0,-5.0,62.0,1644844334.34375,P08,D02,1,1,1
243,-3.0,-5.0,62.0,1644844334.375,P08,D02,1,1,1
244,-4.0,-5.0,62.0,1644844334.40625,P08,D02,1,1,1
245,-3.0,-5.0,62.0,1644844334.4375,P08,D02,1,1,1
246,-3.0,-5.0,62.0,1644844334.46875,P08,D02,1,1,1
247,-3.0,-5.0,62.0,1644844334.5,P08,D02,1,1,1
248,-3.0,-5.0,62.0,1644844334.53125,P08,D02,1,1,1
249,-3.0,-5.0,62.0,1644844334.5625,P08,D02,1,1,1
250,-3.0,-5.0,62.0,1644844334.59375,P08,D02,1,1,1
251,-3.0,-5.0,62.0,1644844334.625,P08,D02,1,1,1
252,-4.0,-5.0,62.0,1644844334.65625,P08,D02,1,1,1
253,-3.0,-5.0,62.0,1644844334.6875,P08,D02,1,1,1
254,-3.0,-5.0,62.0,1644844334.71875,P08,D02,1,1,1
255,-3.0,-5.0,62.0,1644844334.75,P08,D02,1,1,1
256,-3.0,-5.0,62.0,1644844334.78125,P08,D02,1,1,1
257,-3.0,-5.0,62.0,1644844334.8125,P08,D02,1,1,1
258,-3.0,-5.0,62.0,1644844334.84375,P08,D02,1,1,1
259,-4.0,-5.0,62.0,1644844334.875,P08,D02,1,1,1
260,-3.0,-5.0,62.0,1644844334.90625,P08,D02,1,1,1
261,-3.0,-5.0,62.0,1644844334.9375,P08,D02,1,1,1
262,-3.0,-5.0,62.0,1644844334.96875,P08,D02,1,1,1
263,-3.0,-5.0,62.0,1644844335.0,P08,D02,1,1,1
264,-3.0,-5.0,62.0,1644844335.03125,P08,D02,1,1,1
265,-3.0,-5.0,62.0,1644844335.0625,P08,D02,1,1,1
266,-3.0,-5.0,62.0,1644844335.09375,P08,D02,1,1,1
267,-3.0,-5.0,62.0,1644844335.125,P08,D02,1,1,1
268,-3.0,-5.0,62.0,1644844335.15625,P08,D02,1,1,1
269,-3.0,-5.0,62.0,1644844335.1875,P08,D02,1,1,1
270,-3.0,-5.0,62.0,1644844335.21875,P08,D02,1,1,1
271,-3.0,-5.0,62.0,1644844335.25,P08,D02,1,1,1
272,-3.0,-5.0,62.0,1644844335.28125,P08,D02,1,1,1
273,-3.0,-5.0,62.0,1644844335.3125,P08,D02,1,1,1
274,-3.0,-5.0,62.0,1644844335.34375,P08,D02,1,1,1
275,-3.0,-5.0,62.0,1644844335.375,P08,D02,1,1,1
276,-3.0,-5.0,62.0,1644844335.40625,P08,D02,1,1,1
277,-3.0,-5.0,62.0,1644844335.4375,P08,D02,1,1,1
278,-3.0,-5.0,62.0,1644844335.46875,P08,D02,1,1,1
279,-3.0,-5.0,62.0,1644844335.5,P08,D02,1,1,1
280,-3.0,-5.0,62.0,1644844335.53125,P08,D02,1,1,1
281,-3.0,-5.0,62.0,1644844335.5625,P08,D02,1,1,1
282,-3.0,-5.0,62.0,1644844335.59375,P08,D02,1,1,1
283,-3.0,-5.0,62.0,1644844335.625,P08,D02,1,1,1
284,-3.0,-5.0,62.0,1644844335.65625,P08,D02,1,1,1
285,-3.0,-5.0,62.0,1644844335.6875,P08,D02,1,1,1
286,-3.0,-5.0,62.0,1644844335.71875,P08,D02,1,1,1
287,-3.0,-5.0,62.0,1644844335.75,P08,D02,1,1,1
288,-3.0,-5.0,62.0,1644844335.78125,P08,D02,1,1,1
289,-3.0,-5.0,62.0,1644844335.8125,P08,D02,1,1,1
290,-3.0,-5.0,62.0,1644844335.84375,P08,D02,1,1,1
291,-3.0,-5.0,62.0,1644844335.875,P08,D02,1,1,1
292,-3.0,-5.0,62.0,1644844335.90625,P08,D02,1,1,1
293,-3.0,-5.0,62.0,1644844335.9375,P08,D02,1,1,1
294,-3.0,-5.0,62.0,1644844335.96875,P08,D02,1,1,1
295,-3.0,-5.0,62.0,1644844336.0,P08,D02,1,1,1
296,-3.0,-5.0,62.0,1644844336.03125,P08,D02,1,1,1
297,-3.0,-5.0,62.0,1644844336.0625,P08,D02,1,1,1
298,-3.0,-5.0,62.0,1644844336.09375,P08,D02,1,1,1
299,-3.0,-5.0,62.0,1644844336.125,P08,D02,1,1,1
300,-3.0,-5.0,62.0,1644844336.15625,P08,D02,1,1,1
301,-3.0,-5.0,62.0,1644844336.1875,P08,D02,1,1,1
302,-3.0,-6.0,62.0,1644844336.21875,P08,D02,1,1,1
303,-3.0,-5.0,62.0,1644844336.25,P08,D02,1,1,1
304,-2.0,-5.0,62.0,1644844336.28125,P08,D02,1,1,1
305,-3.0,-5.0,62.0,1644844336.3125,P08,D02,1,1,1
306,-3.0,-5.0,62.0,1644844336.34375,P08,D02,1,1,1
307,-3.0,-5.0,62.0,1644844336.375,P08,D02,1,1,1
308,-3.0,-5.0,62.0,1644844336.40625,P08,D02,1,1,1
309,-3.0,-5.0,62.0,1644844336.4375,P08,D02,1,1,1
310,-3.0,-5.0,62.0,1644844336.46875,P08,D02,1,1,1
311,-3.0,-5.0,62.0,1644844336.5,P08,D02,1,1,1
312,-3.0,-5.0,62.0,1644844336.53125,P08,D02,1,1,1
313,-3.0,-5.0,62.0,1644844336.5625,P08,D02,1,1,1
314,-3.0,-5.0,62.0,1644844336.59375,P08,D02,1,1,1
315,-3.0,-5.0,62.0,1644844336.625,P08,D02,1,1,1
316,-3.0,-5.0,62.0,1644844336.65625,P08,D02,1,1,1
317,-3.0,-5.0,62.0,1644844336.6875,P08,D02,1,1,1
318,-3.0,-5.0,62.0,1644844336.71875,P08,D02,1,1,1
319,-3.0,-5.0,62.0,1644844336.75,P08,D02,1,1,1
320,-3.0,-5.0,62.0,1644844336.78125,P08,D02,1,1,1
321,-3.0,-6.0,62.0,1644844336.8125,P08,D02,1,1,1
322,-3.0,-5.0,62.0,1644844336.84375,P08,D02,1,1,1
323,-2.0,-5.0,62.0,1644844336.875,P08,D02,1,1,1
324,-3.0,-5.0,62.0,1644844336.90625,P08,D02,1,1,1
325,-3.0,-5.0,62.0,1644844336.9375,P08,D02,1,1,1
326,-3.0,-5.0,62.0,1644844336.96875,P08,D02,1,1,1
327,-3.0,-5.0,62.0,1644844337.0,P08,D02,1,1,1
328,-3.0,-5.0,62.0,1644844337.03125,P08,D02,1,1,1
329,-3.0,-5.0,62.0,1644844337.0625,P08,D02,1,1,1
330,-3.0,-5.0,62.0,1644844337.09375,P08,D02,1,1,1
331,-3.0,-5.0,62.0,1644844337.125,P08,D02,1,1,1
332,-3.0,-5.0,62.0,1644844337.15625,P08,D02,1,1,1
333,-3.0,-5.0,62.0,1644844337.1875,P08,D02,1,1,1
334,-3.0,-5.0,62.0,1644844337.21875,P08,D02,1,1,1
335,-3.0,-5.0,62.0,1644844337.25,P08,D02,1,1,1
336,-3.0,-5.0,62.0,1644844337.28125,P08,D02,1,1,1
337,-3.0,-5.0,62.0,1644844337.3125,P08,D02,1,1,1
338,-3.0,-5.0,62.0,1644844337.34375,P08,D02,1,1,1
339,-3.0,-5.0,62.0,1644844337.375,P08,D02,1,1,1
340,-3.0,-5.0,62.0,1644844337.40625,P08,D02,1,1,1
341,-3.0,-5.0,62.0,1644844337.4375,P08,D02,1,1,1
342,-2.0,-5.0,62.0,1644844337.46875,P08,D02,1,1,1
343,-3.0,-5.0,62.0,1644844337.5,P08,D02,1,1,1
344,-3.0,-5.0,62.0,1644844337.53125,P08,D02,1,1,1
345,-3.0,-5.0,62.0,1644844337.5625,P08,D02,1,1,1
346,-3.0,-5.0,62.0,1644844337.59375,P08,D02,1,1,1
347,-3.0,-5.0,62.0,1644844337.625,P08,D02,1,1,1
348,-3.0,-5.0,62.0,1644844337.65625,P08,D02,1,1,1
349,-3.0,-5.0,62.0,1644844337.6875,P08,D02,1,1,1
350,-3.0,-5.0,62.0,1644844337.71875,P08,D02,1,1,1
351,-3.0,-5.0,62.0,1644844337.75,P08,D02,1,1,1
352,-3.0,-5.0,62.0,1644844337.78125,P08,D02,1,1,1
353,-3.0,-5.0,62.0,1644844337.8125,P08,D02,1,1,1
354,-3.0,-5.0,62.0,1644844337.84375,P08,D02,1,1,1
355,-3.0,-5.0,62.0,1644844337.875,P08,D02,1,1,1
356,-3.0,-5.0,62.0,1644844337.90625,P08,D02,1,1,1
357,-3.0,-5.0,62.0,1644844337.9375,P08,D02,1,1,1
358,-3.0,-5.0,62.0,1644844337.96875,P08,D02,1,1,1
359,-3.0,-5.0,62.0,1644844338.0,P08,D02,1,1,1
360,-3.0,-6.0,62.0,1644844338.03125,P08,D02,1,1,1
361,-3.0,-5.0,62.0,1644844338.0625,P08,D02,1,1,1
362,-3.0,-5.0,62.0,1644844338.09375,P08,D02,1,1,1
363,-3.0,-5.0,62.0,1644844338.125,P08,D02,1,1,1
364,-3.0,-5.0,62.0,1644844338.15625,P08,D02,1,1,1
365,-3.0,-5.0,62.0,1644844338.1875,P08,D02,1,1,1
366,-3.0,-5.0,62.0,1644844338.21875,P08,D02,1,1,1
367,-3.0,-5.0,62.0,1644844338.25,P08,D02,1,1,1
368,-3.0,-5.0,62.0,1644844338.28125,P08,D02,1,1,1
369,-3.0,-5.0,62.0,1644844338.3125,P08,D02,1,1,1
370,-3.0,-5.0,62.0,1644844338.34375,P08,D02,1,1,1
371,-3.0,-5.0,62.0,1644844338.375,P08,D02,1,1,1
372,-3.0,-5.0,62.0,1644844338.40625,P08,D02,1,1,1
373,-3.0,-5.0,62.0,1644844338.4375,P08,D02,1,1,1
374,-3.0,-5.0,62.0,1644844338.46875,P08,D02,1,1,1
375,-3.0,-5.0,62.0,1644844338.5,P08,D02,1,1,1
376,-3.0,-5.0,62.0,1644844338.53125,P08,D02,1,1,1
377,-3.0,-5.0,62.0,1644844338.5625,P08,D02,1,1,1
378,-3.0,-5.0,62.0,1644844338.59375,P08,D02,1,1,1
379,-3.0,-5.0,62.0,1644844338.625,P08,D02,1,1,1
380,-3.0,-5.0,62.0,1644844338.65625,P08,D02,1,1,1
381,-3.0,-5.0,62.0,1644844338.6875,P08,D02,1,1,1
382,-3.0,-5.0,62.0,1644844338.71875,P08,D02,1,1,1
383,-3.0,-5.0,62.0,1644844338.75,P08,D02,1,1,1
384,-3.0,-5.0,62.0,1644844338.78125,P08,D02,1,1,1
385,-3.0,-5.0,62.0,1644844338.8125,P08,D02,1,1,1
386,-3.0,-5.0,62.0,1644844338.84375,P08,D02,1,1,1
387,-3.0,-5.0,62.0,1644844338.875,P08,D02,1,1,1
388,-3.0,-5.0,62.0,1644844338.90625,P08,D02,1,1,1
389,-3.0,-5.0,62.0,1644844338.9375,P08,D02,1,1,1
390,-3.0,-5.0,62.0,1644844338.96875,P08,D02,1,1,1
391,-3.0,-5.0,62.0,1644844339.0,P08,D02,1,1,1
392,-3.0,-5.0,62.0,1644844339.03125,P08,D02,1,1,1
393,-3.0,-5.0,62.0,1644844339.0625,P08,D02,1,1,1
394,-3.0,-5.0,62.0,1644844339.09375,P08,D02,1,1,1
395,-3.0,-5.0,62.0,1644844339.125,P08,D02,1,1,1
396,-3.0,-5.0,62.0,1644844339.15625,P08,D02,1,1,1
397,-3.0,-5.0,62.0,1644844339.1875,P08,D02,1,1,1
398,-3.0,-5.0,62.0,1644844339.21875,P08,D02,1,1,1
399,-3.0,-5.0,62.0,1644844339.25,P08,D02,1,1,1
400,-3.0,-5.0,62.0,1644844339.28125,P08,D02,1,1,1
401,-3.0,-5.0,62.0,1644844339.3125,P08,D02,1,1,1
402,-3.0,-5.0,62.0,1644844339.34375,P08,D02,1,1,1
403,-3.0,-5.0,62.0,1644844339.375,P08,D02,1,1,1
404,-3.0,-5.0,62.0,1644844339.40625,P08,D02,1,1,1
405,-3.0,-5.0,62.0,1644844339.4375,P08,D02,1,1,1
406,-3.0,-5.0,62.0,1644844339.46875,P08,D02,1,1,1
407,-3.0,-5.0,62.0,1644844339.5,P08,D02,1,1,1
408,-3.0,-5.0,62.0,1644844339.53125,P08,D02,1,1,1
409,-3.0,-5.0,62.0,1644844339.5625,P08,D02,1,1,1
410,-3.0,-5.0,62.0,1644844339.59375,P08,D02,1,1,1
411,-3.0,-5.0,62.0,1644844339.625,P08,D02,1,1,1
412,-3.0,-5.0,62.0,1644844339.65625,P08,D02,1,1,1
413,-3.0,-5.0,62.0,1644844339.6875,P08,D02,1,1,1
414,-3.0,-5.0,62.0,1644844339.71875,P08,D02,1,1,1
415,-3.0,-5.0,62.0,1644844339.75,P08,D02,1,1,1
416,-3.0,-5.0,62.0,1644844339.78125,P08,D02,1,1,1
417,-3.0,-5.0,62.0,1644844339.8125,P08,D02,1,1,1
418,-3.0,-5.0,62.0,1644844339.84375,P08,D02,1,1,1
419,-3.0,-5.0,62.0,1644844339.875,P08,D02,1,1,1
420,-3.0,-5.0,62.0,1644844339.90625,P08,D02,1,1,1
421,-3.0,-5.0,62.0,1644844339.9375,P08,D02,1,1,1
422,-3.0,-5.0,62.0,1644844339.96875,P08,D02,1,1,1
423,-3.0,-5.0,62.0,1644844340.0,P08,D02,1,1,1
424,-3.0,-5.0,62.0,1644844340.03125,P08,D02,1,1,1
425,-3.0,-5.0,62.0,1644844340.0625,P08,D02,1,1,1
426,-3.0,-5.0,62.0,1644844340.09375,P08,D02,1,1,1
427,-3.0,-5.0,62.0,1644844340.125,P08,D02,1,1,1
428,-3.0,-5.0,62.0,1644844340.15625,P08,D02,1,1,1
429,-3.0,-5.0,62.0,1644844340.1875,P08,D02,1,1,1
430,-3.0,-5.0,62.0,1644844340.21875,P08,D02,1,1,1
431,-4.0,-5.0,62.0,1644844340.25,P08,D02,1,1,1
432,-3.0,-5.0,62.0,1644844340.28125,P08,D02,1,1,1
433,-3.0,-5.0,62.0,1644844340.3125,P08,D02,1,1,1
434,-3.0,-5.0,62.0,1644844340.34375,P08,D02,1,1,1
435,-3.0,-5.0,62.0,1644844340.375,P08,D02,1,1,1
436,-3.0,-5.0,62.0,1644844340.40625,P08,D02,1,1,1
437,-3.0,-5.0,62.0,1644844340.4375,P08,D02,1,1,1
438,-3.0,-5.0,62.0,1644844340.46875,P08,D02,1,1,1
439,-3.0,-5.0,62.0,1644844340.5,P08,D02,1,1,1
440,-3.0,-5.0,62.0,1644844340.53125,P08,D02,1,1,1
441,-3.0,-5.0,62.0,1644844340.5625,P08,D02,1,1,1
442,-3.0,-5.0,62.0,1644844340.59375,P08,D02,1,1,1
443,-3.0,-5.0,62.0,1644844340.625,P08,D02,1,1,1
444,-3.0,-5.0,62.0,1644844340.65625,P08,D02,1,1,1
445,-3.0,-5.0,62.0,1644844340.6875,P08,D02,1,1,1
446,-4.0,-5.0,62.0,1644844340.71875,P08,D02,1,1,1
447,-3.0,-5.0,62.0,1644844340.75,P08,D02,1,1,1
448,-3.0,-5.0,62.0,1644844340.78125,P08,D02,1,1,1
449,-3.0,-5.0,62.0,1644844340.8125,P08,D02,1,1,1
450,-3.0,-5.0,62.0,1644844340.84375,P08,D02,1,1,1
451,-3.0,-5.0,62.0,1644844340.875,P08,D02,1,1,1
452,-3.0,-5.0,62.0,1644844340.90625,P08,D02,1,1,1
453,-3.0,-5.0,62.0,1644844340.9375,P08,D02,1,1,1
454,-3.0,-5.0,62.0,1644844340.96875,P08,D02,1,1,1
455,-3.0,-5.0,62.0,1644844341.0,P08,D02,1,1,1
456,-2.0,-5.0,62.0,1644844341.03125,P08,D02,1,1,1
457,-3.0,-5.0,62.0,1644844341.0625,P08,D02,1,1,1
458,-3.0,-5.0,62.0,1644844341.09375,P08,D02,1,1,1
459,-3.0,-5.0,62.0,1644844341.125,P08,D02,1,1,1
460,-3.0,-5.0,62.0,1644844341.15625,P08,D02,1,1,1
461,-3.0,-5.0,62.0,1644844341.1875,P08,D02,1,1,1
462,-3.0,-5.0,62.0,1644844341.21875,P08,D02,1,1,1
463,-3.0,-5.0,62.0,1644844341.25,P08,D02,1,1,1
464,-3.0,-5.0,62.0,1644844341.28125,P08,D02,1,1,1
465,-3.0,-6.0,62.0,1644844341.3125,P08,D02,1,1,1
466,-3.0,-5.0,62.0,1644844341.34375,P08,D02,1,1,1
467,-3.0,-5.0,62.0,1644844341.375,P08,D02,1,1,1
468,-3.0,-5.0,62.0,1644844341.40625,P08,D02,1,1,1
469,-3.0,-5.0,62.0,1644844341.4375,P08,D02,1,1,1
470,-3.0,-5.0,62.0,1644844341.46875,P08,D02,1,1,1
471,-3.0,-5.0,62.0,1644844341.5,P08,D02,1,1,1
472,-3.0,-5.0,63.0,1644844341.53125,P08,D02,1,1,1
473,-3.0,-5.0,62.0,1644844341.5625,P08,D02,1,1,1
474,-3.0,-5.0,62.0,1644844341.59375,P08,D02,1,1,1
475,-3.0,-5.0,62.0,1644844341.625,P08,D02,1,1,1
476,-3.0,-5.0,62.0,1644844341.65625,P08,D02,1,1,1
477,-3.0,-5.0,62.0,1644844341.6875,P08,D02,1,1,1
478,-3.0,-5.0,62.0,1644844341.71875,P08,D02,1,1,1
479,-3.0,-5.0,62.0,1644844341.75,P08,D02,1,1,1
480,-3.0,-5.0,62.0,1644844341.78125,P08,D02,1,1,1
481,-3.0,-5.0,62.0,1644844341.8125,P08,D02,1,1,1
482,-3.0,-5.0,62.0,1644844341.84375,P08,D02,1,1,1
483,-3.0,-5.0,62.0,1644844341.875,P08,D02,1,1,1
484,-3.0,-5.0,62.0,1644844341.90625,P08,D02,1,1,1
485,-3.0,-5.0,62.0,1644844341.9375,P08,D02,1,1,1
486,-3.0,-5.0,62.0,1644844341.96875,P08,D02,1,1,1
487,-3.0,-5.0,62.0,1644844342.0,P08,D02,1,1,1
488,-3.0,-5.0,62.0,1644844342.03125,P08,D02,1,1,1
489,-3.0,-5.0,62.0,1644844342.0625,P08,D02,1,1,1
490,-3.0,-5.0,62.0,1644844342.09375,P08,D02,1,1,1
491,-3.0,-5.0,62.0,1644844342.125,P08,D02,1,1,1
492,-3.0,-5.0,62.0,1644844342.15625,P08,D02,1,1,1
493,-3.0,-5.0,62.0,1644844342.1875,P08,D02,1,1,1
494,-3.0,-5.0,62.0,1644844342.21875,P08,D02,1,1,1
495,-3.0,-5.0,62.0,1644844342.25,P08,D02,1,1,1
496,-3.0,-5.0,62.0,1644844342.28125,P08,D02,1,1,1
497,-3.0,-5.0,62.0,1644844342.3125,P08,D02,1,1,1
498,-3.0,-5.0,62.0,1644844342.34375,P08,D02,1,1,1
499,-3.0,-5.0,62.0,1644844342.375,P08,D02,1,1,1
500,-3.0,-5.0,62.0,1644844342.40625,P08,D02,1,1,1
501,-3.0,-5.0,62.0,1644844342.4375,P08,D02,1,1,1
502,-3.0,-5.0,62.0,1644844342.46875,P08,D02,1,1,1
503,-3.0,-5.0,62.0,1644844342.5,P08,D02,1,1,1
504,-3.0,-5.0,62.0,1644844342.53125,P08,D02,1,1,1
505,-3.0,-5.0,62.0,1644844342.5625,P08,D02,1,1,1
506,-3.0,-5.0,62.0,1644844342.59375,P08,D02,1,1,1
507,-3.0,-5.0,62.0,1644844342.625,P08,D02,1,1,1
508,-3.0,-5.0,62.0,1644844342.65625,P08,D02,1,1,1
509,-3.0,-5.0,62.0,1644844342.6875,P08,D02,1,1,1
510,-3.0,-5.0,62.0,1644844342.71875,P08,D02,1,1,1
511,-3.0,-5.0,62.0,1644844342.75,P08,D02,1,1,1
512,-3.0,-5.0,62.0,1644844342.78125,P08,D02,1,1,1
513,-3.0,-5.0,62.0,1644844342.8125,P08,D02,1,1,1
514,-3.0,-5.0,62.0,1644844342.84375,P08,D02,1,1,1
515,-3.0,-5.0,62.0,1644844342.875,P08,D02,1,1,1
516,-3.0,-5.0,62.0,1644844342.90625,P08,D02,1,1,1
517,-3.0,-5.0,62.0,1644844342.9375,P08,D02,1,1,1
518,-3.0,-5.0,62.0,1644844342.96875,P08,D02,1,1,1
519,-3.0,-5.0,62.0,1644844343.0,P08,D02,1,1,1
520,-4.0,-5.0,62.0,1644844343.03125,P08,D02,1,1,1
521,-3.0,-5.0,62.0,1644844343.0625,P08,D02,1,1,1
522,-3.0,-5.0,62.0,1644844343.09375,P08,D02,1,1,1
523,-3.0,-5.0,62.0,1644844343.125,P08,D02,1,1,1
524,-3.0,-5.0,62.0,1644844343.15625,P08,D02,1,1,1
525,-3.0,-5.0,62.0,1644844343.1875,P08,D02,1,1,1
526,-3.0,-5.0,62.0,1644844343.21875,P08,D02,1,1,1
527,-3.0,-5.0,62.0,1644844343.25,P08,D02,1,1,1
528,-3.0,-5.0,62.0,1644844343.28125,P08,D02,1,1,1
529,-3.0,-5.0,62.0,1644844343.3125,P08,D02,1,1,1
530,-3.0,-5.0,62.0,1644844343.34375,P08,D02,1,1,1
531,-3.0,-5.0,62.0,1644844343.375,P08,D02,1,1,1
532,-3.0,-5.0,62.0,1644844343.40625,P08,D02,1,1,1
533,-3.0,-5.0,62.0,1644844343.4375,P08,D02,1,1,1
534,-3.0,-5.0,62.0,1644844343.46875,P08,D02,1,1,1
535,-3.0,-5.0,62.0,1644844343.5,P08,D02,1,1,1
536,-3.0,-5.0,62.0,1644844343.53125,P08,D02,1,1,1
537,-3.0,-5.0,62.0,1644844343.5625,P08,D02,1,1,1
538,-3.0,-5.0,62.0,1644844343.59375,P08,D02,1,1,1
539,-3.0,-5.0,62.0,1644844343.625,P08,D02,1,1,1
540,-3.0,-5.0,62.0,1644844343.65625,P08,D02,1,1,1
541,-3.0,-5.0,62.0,1644844343.6875,P08,D02,1,1,1
542,-3.0,-5.0,62.0,1644844343.71875,P08,D02,1,1,1
543,-3.0,-5.0,62.0,1644844343.75,P08,D02,1,1,1
544,-3.0,-5.0,62.0,1644844343.78125,P08,D02,1,1,1
545,-3.0,-5.0,62.0,1644844343.8125,P08,D02,1,1,1
546,-3.0,-5.0,62.0,1644844343.84375,P08,D02,1,1,1
547,-3.0,-5.0,62.0,1644844343.875,P08,D02,1,1,1
548,-3.0,-5.0,62.0,1644844343.90625,P08,D02,1,1,1
549,-3.0,-5.0,62.0,1644844343.9375,P08,D02,1,1,1
550,-3.0,-5.0,62.0,1644844343.96875,P08,D02,1,1,1
551,-3.0,-5.0,62.0,1644844344.0,P08,D02,1,1,1
552,-3.0,-5.0,62.0,1644844344.03125,P08,D02,1,1,1
553,-3.0,-5.0,62.0,1644844344.0625,P08,D02,1,1,1
554,-4.0,-5.0,62.0,1644844344.09375,P08,D02,1,1,1
555,-3.0,-5.0,62.0,1644844344.125,P08,D02,1,1,1
556,-3.0,-5.0,62.0,1644844344.15625,P08,D02,1,1,1
557,-3.0,-5.0,62.0,1644844344.1875,P08,D02,1,1,1
558,-3.0,-5.0,62.0,1644844344.21875,P08,D02,1,1,1
559,-3.0,-5.0,62.0,1644844344.25,P08,D02,1,1,1
560,-3.0,-5.0,62.0,1644844344.28125,P08,D02,1,1,1
561,-3.0,-5.0,62.0,1644844344.3125,P08,D02,1,1,1
562,-3.0,-5.0,62.0,1644844344.34375,P08,D02,1,1,1
563,-3.0,-5.0,62.0,1644844344.375,P08,D02,1,1,1
564,-3.0,-5.0,62.0,1644844344.40625,P08,D02,1,1,1
565,-3.0,-5.0,62.0,1644844344.4375,P08,D02,1,1,1
566,-3.0,-5.0,62.0,1644844344.46875,P08,D02,1,1,1
567,-3.0,-5.0,62.0,1644844344.5,P08,D02,1,1,1
568,-3.0,-5.0,62.0,1644844344.53125,P08,D02,1,1,1
569,-3.0,-5.0,62.0,1644844344.5625,P08,D02,1,1,1
570,-4.0,-5.0,62.0,1644844344.59375,P08,D02,1,1,1
571,-3.0,-5.0,62.0,1644844344.625,P08,D02,1,1,1
572,-3.0,-5.0,62.0,1644844344.65625,P08,D02,1,1,1
573,-3.0,-5.0,62.0,1644844344.6875,P08,D02,1,1,1
574,-3.0,-5.0,62.0,1644844344.71875,P08,D02,1,1,1
575,-3.0,-5.0,62.0,1644844344.75,P08,D02,1,1,1
576,-3.0,-5.0,62.0,1644844344.78125,P08,D02,1,1,1
577,-4.0,-5.0,62.0,1644844344.8125,P08,D02,1,1,1
578,-3.0,-5.0,62.0,1644844344.84375,P08,D02,1,1,1
579,-3.0,-5.0,62.0,1644844344.875,P08,D02,1,1,1
580,-3.0,-5.0,62.0,1644844344.90625,P08,D02,1,1,1
581,-3.0,-5.0,62.0,1644844344.9375,P08,D02,1,1,1
582,-4.0,-5.0,62.0,1644844344.96875,P08,D02,1,1,1
583,-3.0,-5.0,62.0,1644844345.0,P08,D02,1,1,1
584,-3.0,-5.0,62.0,1644844345.03125,P08,D02,1,1,1
585,-3.0,-5.0,62.0,1644844345.0625,P08,D02,1,1,1
586,-3.0,-5.0,62.0,1644844345.09375,P08,D02,1,1,1
587,-3.0,-5.0,62.0,1644844345.125,P08,D02,1,1,1
588,-3.0,-5.0,62.0,1644844345.15625,P08,D02,1,1,1
589,-3.0,-5.0,62.0,1644844345.1875,P08,D02,1,1,1
590,-3.0,-5.0,62.0,1644844345.21875,P08,D02,1,1,1
591,-3.0,-5.0,62.0,1644844345.25,P08,D02,1,1,1
592,-3.0,-5.0,62.0,1644844345.28125,P08,D02,1,1,1
593,-3.0,-5.0,62.0,1644844345.3125,P08,D02,1,1,1
594,-3.0,-5.0,62.0,1644844345.34375,P08,D02,1,1,1
595,-3.0,-5.0,62.0,1644844345.375,P08,D02,1,1,1
596,-3.0,-5.0,62.0,1644844345.40625,P08,D02,1,1,1
597,-3.0,-5.0,62.0,1644844345.4375,P08,D02,1,1,1
598,-3.0,-5.0,62.0,1644844345.46875,P08,D02,1,1,1
599,-3.0,-5.0,62.0,1644844345.5,P08,D02,1,1,1
600,-3.0,-5.0,62.0,1644844345.53125,P08,D02,1,1,1
601,-3.0,-5.0,62.0,1644844345.5625,P08,D02,1,1,1
602,-3.0,-5.0,62.0,1644844345.59375,P08,D02,1,1,1
603,-3.0,-5.0,62.0,1644844345.625,P08,D02,1,1,1
604,-3.0,-5.0,62.0,1644844345.65625,P08,D02,1,1,1
605,-3.0,-5.0,62.0,1644844345.6875,P08,D02,1,1,1
606,-3.0,-5.0,62.0,1644844345.71875,P08,D02,1,1,1
607,-3.0,-5.0,62.0,1644844345.75,P08,D02,1,1,1
608,-3.0,-6.0,62.0,1644844345.78125,P08,D02,1,1,1
609,-3.0,-5.0,62.0,1644844345.8125,P08,D02,1,1,1
610,-3.0,-5.0,62.0,1644844345.84375,P08,D02,1,1,1
611,-3.0,-5.0,62.0,1644844345.875,P08,D02,1,1,1
612,-3.0,-5.0,62.0,1644844345.90625,P08,D02,1,1,1
613,-3.0,-5.0,62.0,1644844345.9375,P08,D02,1,1,1
614,-3.0,-5.0,62.0,1644844345.96875,P08,D02,1,1,1
615,-3.0,-5.0,62.0,1644844346.0,P08,D02,1,1,1
616,-3.0,-5.0,62.0,1644844346.03125,P08,D02,1,1,1
617,-3.0,-5.0,62.0,1644844346.0625,P08,D02,1,1,1
618,-3.0,-5.0,62.0,1644844346.09375,P08,D02,1,1,1
619,-3.0,-5.0,62.0,1644844346.125,P08,D02,1,1,1
620,-3.0,-5.0,62.0,1644844346.15625,P08,D02,1,1,1
621,-3.0,-5.0,62.0,1644844346.1875,P08,D02,1,1,1
622,-3.0,-5.0,62.0,1644844346.21875,P08,D02,1,1,1
623,-3.0,-5.0,62.0,1644844346.25,P08,D02,1,1,1
624,-3.0,-5.0,62.0,1644844346.28125,P08,D02,1,1,1
625,-3.0,-5.0,62.0,1644844346.3125,P08,D02,1,1,1
626,-3.0,-5.0,62.0,1644844346.34375,P08,D02,1,1,1
627,-3.0,-5.0,62.0,1644844346.375,P08,D02,1,1,1
628,-3.0,-5.0,62.0,1644844346.40625,P08,D02,1,1,1
629,-3.0,-5.0,62.0,1644844346.4375,P08,D02,1,1,1
630,-3.0,-5.0,62.0,1644844346.46875,P08,D02,1,1,1
631,-3.0,-5.0,62.0,1644844346.5,P08,D02,1,1,1
632,-3.0,-5.0,62.0,1644844346.53125,P08,D02,1,1,1
633,-3.0,-5.0,62.0,1644844346.5625,P08,D02,1,1,1
634,-3.0,-5.0,62.0,1644844346.59375,P08,D02,1,1,1
635,-3.0,-5.0,62.0,1644844346.625,P08,D02,1,1,1
636,-3.0,-5.0,62.0,1644844346.65625,P08,D02,1,1,1
637,-3.0,-5.0,62.0,1644844346.6875,P08,D02,1,1,1
638,-3.0,-5.0,62.0,1644844346.71875,P08,D02,1,1,1
639,-3.0,-5.0,62.0,1644844346.75,P08,D02,1,1,1
640,-3.0,-5.0,62.0,1644844346.78125,P08,D02,1,1,1
641,-3.0,-5.0,62.0,1644844346.8125,P08,D02,1,1,1
642,-2.0,-5.0,62.0,1644844346.84375,P08,D02,1,1,1
643,-3.0,-5.0,62.0,1644844346.875,P08,D02,1,1,1
644,-3.0,-5.0,62.0,1644844346.90625,P08,D02,1,1,1
645,-3.0,-5.0,62.0,1644844346.9375,P08,D02,1,1,1
646,-3.0,-5.0,62.0,1644844346.96875,P08,D02,1,1,1
647,-3.0,-5.0,62.0,1644844347.0,P08,D02,1,1,1
648,-3.0,-5.0,62.0,1644844347.03125,P08,D02,1,1,1
649,-3.0,-5.0,62.0,1644844347.0625,P08,D02,1,1,1
650,-3.0,-5.0,62.0,1644844347.09375,P08,D02,1,1,1
651,-3.0,-5.0,62.0,1644844347.125,P08,D02,1,1,1
652,-3.0,-5.0,62.0,1644844347.15625,P08,D02,1,1,1
653,-3.0,-5.0,62.0,1644844347.1875,P08,D02,1,1,1
654,-3.0,-5.0,62.0,1644844347.21875,P08,D02,1,1,1
655,-3.0,-5.0,62.0,1644844347.25,P08,D02,1,1,1
656,-3.0,-5.0,62.0,1644844347.28125,P08,D02,1,1,1
657,-3.0,-5.0,62.0,1644844347.3125,P08,D02,1,1,1
658,-3.0,-5.0,62.0,1644844347.34375,P08,D02,1,1,1
659,-3.0,-5.0,62.0,1644844347.375,P08,D02,1,1,1
660,-3.0,-5.0,62.0,1644844347.40625,P08,D02,1,1,1
661,-3.0,-5.0,62.0,1644844347.4375,P08,D02,1,1,1
662,-3.0,-5.0,62.0,1644844347.46875,P08,D02,1,1,1
663,-3.0,-5.0,62.0,1644844347.5,P08,D02,1,1,1
664,-3.0,-5.0,62.0,1644844347.53125,P08,D02,1,1,1
665,-3.0,-5.0,62.0,1644844347.5625,P08,D02,1,1,1
666,-3.0,-5.0,62.0,1644844347.59375,P08,D02,1,1,1
667,-3.0,-5.0,62.0,1644844347.625,P08,D02,1,1,1
668,-3.0,-5.0,62.0,1644844347.65625,P08,D02,1,1,1
669,-3.0,-5.0,62.0,1644844347.6875,P08,D02,1,1,1
670,-3.0,-5.0,62.0,1644844347.71875,P08,D02,1,1,1
671,-3.0,-5.0,62.0,1644844347.75,P08,D02,1,1,1
672,-3.0,-5.0,62.0,1644844347.78125,P08,D02,1,1,1
673,-3.0,-5.0,62.0,1644844347.8125,P08,D02,1,1,1
674,-3.0,-5.0,62.0,1644844347.84375,P08,D02,1,1,1
675,-3.0,-5.0,62.0,1644844347.875,P08,D02,1,1,1
676,-3.0,-5.0,62.0,1644844347.90625,P08,D02,1,1,1
677,-3.0,-5.0,62.0,1644844347.9375,P08,D02,1,1,1
678,-3.0,-5.0,62.0,1644844347.96875,P08,D02,1,1,1
679,-3.0,-5.0,62.0,1644844348.0,P08,D02,1,1,1
680,-3.0,-5.0,62.0,1644844348.03125,P08,D02,1,1,1
681,-3.0,-5.0,62.0,1644844348.0625,P08,D02,1,1,1
682,-3.0,-5.0,62.0,1644844348.09375,P08,D02,1,1,1
683,-3.0,-5.0,62.0,1644844348.125,P08,D02,1,1,1
684,-3.0,-5.0,62.0,1644844348.15625,P08,D02,1,1,1
685,-3.0,-5.0,62.0,1644844348.1875,P08,D02,1,1,1
686,-3.0,-5.0,62.0,1644844348.21875,P08,D02,1,1,1
687,-3.0,-5.0,62.0,1644844348.25,P08,D02,1,1,1
688,-3.0,-5.0,62.0,1644844348.28125,P08,D02,1,1,1
689,-3.0,-5.0,62.0,1644844348.3125,P08,D02,1,1,1
690,-3.0,-5.0,62.0,1644844348.34375,P08,D02,1,1,1
691,-3.0,-5.0,62.0,1644844348.375,P08,D02,1,1,1
692,-3.0,-5.0,62.0,1644844348.40625,P08,D02,1,1,1
693,-3.0,-5.0,62.0,1644844348.4375,P08,D02,1,1,1
694,-3.0,-5.0,62.0,1644844348.46875,P08,D02,1,1,1
695,-3.0,-5.0,62.0,1644844348.5,P08,D02,1,1,1
696,-3.0,-5.0,62.0,1644844348.53125,P08,D02,1,1,1
697,-3.0,-5.0,62.0,1644844348.5625,P08,D02,1,1,1
698,-3.0,-5.0,62.0,1644844348.59375,P08,D02,1,1,1
699,-3.0,-5.0,62.0,1644844348.625,P08,D02,1,1,1
700,-3.0,-5.0,62.0,1644844348.65625,P08,D02,1,1,1
701,-3.0,-5.0,62.0,1644844348.6875,P08,D02,1,1,1
702,-3.0,-5.0,62.0,1644844348.71875,P08,D02,1,1,1
703,-3.0,-5.0,62.0,1644844348.75,P08,D02,1,1,1
704,-3.0,-5.0,62.0,1644844348.78125,P08,D02,1,1,1
705,-3.0,-5.0,62.0,1644844348.8125,P08,D02,1,1,1
706,-3.0,-5.0,62.0,1644844348.84375,P08,D02,1,1,1
707,-3.0,-5.0,62.0,1644844348.875,P08,D02,1,1,1
708,-3.0,-5.0,62.0,1644844348.90625,P08,D02,1,1,1
709,-3.0,-5.0,62.0,1644844348.9375,P08,D02,1,1,1
710,-3.0,-5.0,62.0,1644844348.96875,P08,D02,1,1,1
711,-3.0,-5.0,62.0,1644844349.0,P08,D02,1,1,1
712,-3.0,-5.0,62.0,1644844349.03125,P08,D02,1,1,1
713,-3.0,-5.0,62.0,1644844349.0625,P08,D02,1,1,1
714,-3.0,-5.0,62.0,1644844349.09375,P08,D02,1,1,1
715,-3.0,-5.0,62.0,1644844349.125,P08,D02,1,1,1
716,-3.0,-5.0,62.0,1644844349.15625,P08,D02,1,1,1
717,-3.0,-5.0,62.0,1644844349.1875,P08,D02,1,1,1
718,-4.0,-5.0,62.0,1644844349.21875,P08,D02,1,1,1
719,-3.0,-5.0,62.0,1644844349.25,P08,D02,1,1,1
720,-4.0,-5.0,62.0,1644844349.28125,P08,D02,1,1,1
721,-3.0,-5.0,62.0,1644844349.3125,P08,D02,1,1,1
722,-3.0,-5.0,62.0,1644844349.34375,P08,D02,1,1,1
723,-3.0,-5.0,62.0,1644844349.375,P08,D02,1,1,1
724,-3.0,-5.0,62.0,1644844349.40625,P08,D02,1,1,1
725,-3.0,-5.0,62.0,1644844349.4375,P08,D02,1,1,1
726,-4.0,-5.0,62.0,1644844349.46875,P08,D02,1,1,1
727,-4.0,-5.0,62.0,1644844349.5,P08,D02,1,1,1
728,-3.0,-5.0,62.0,1644844349.53125,P08,D02,1,1,1
729,-3.0,-5.0,62.0,1644844349.5625,P08,D02,1,1,1
730,-4.0,-5.0,62.0,1644844349.59375,P08,D02,1,1,1
731,-3.0,-5.0,62.0,1644844349.625,P08,D02,1,1,1
732,-3.0,-5.0,62.0,1644844349.65625,P08,D02,1,1,1
733,-3.0,-5.0,62.0,1644844349.6875,P08,D02,1,1,1
734,-3.0,-5.0,62.0,1644844349.71875,P08,D02,1,1,1
735,-3.0,-5.0,62.0,1644844349.75,P08,D02,1,1,1
736,-3.0,-5.0,62.0,1644844349.78125,P08,D02,1,1,1
737,-3.0,-5.0,62.0,1644844349.8125,P08,D02,1,1,1
738,-3.0,-5.0,62.0,1644844349.84375,P08,D02,1,1,1
739,-3.0,-5.0,62.0,1644844349.875,P08,D02,1,1,1
740,-3.0,-5.0,62.0,1644844349.90625,P08,D02,1,1,1
741,-4.0,-5.0,62.0,1644844349.9375,P08,D02,1,1,1
742,-3.0,-5.0,62.0,1644844349.96875,P08,D02,1,1,1
743,-3.0,-5.0,62.0,1644844350.0,P08,D02,1,1,1
744,-3.0,-5.0,62.0,1644844350.03125,P08,D02,1,1,1
745,-4.0,-5.0,62.0,1644844350.0625,P08,D02,1,1,1
746,-3.0,-5.0,62.0,1644844350.09375,P08,D02,1,1,1
747,-3.0,-5.0,62.0,1644844350.125,P08,D02,1,1,1
748,-3.0,-5.0,62.0,1644844350.15625,P08,D02,1,1,1
749,-3.0,-5.0,62.0,1644844350.1875,P08,D02,1,1,1
750,-3.0,-5.0,62.0,1644844350.21875,P08,D02,1,1,1
751,-3.0,-5.0,62.0,1644844350.25,P08,D02,1,1,1
752,-3.0,-5.0,62.0,1644844350.28125,P08,D02,1,1,1
753,-3.0,-5.0,62.0,1644844350.3125,P08,D02,1,1,1
754,-3.0,-5.0,62.0,1644844350.34375,P08,D02,1,1,1
755,-3.0,-5.0,62.0,1644844350.375,P08,D02,1,1,1
756,-3.0,-5.0,62.0,1644844350.40625,P08,D02,1,1,1
757,-3.0,-5.0,62.0,1644844350.4375,P08,D02,1,1,1
758,-3.0,-5.0,62.0,1644844350.46875,P08,D02,1,1,1
759,-3.0,-5.0,62.0,1644844350.5,P08,D02,1,1,1
760,-3.0,-5.0,62.0,1644844350.53125,P08,D02,1,1,1
761,-3.0,-5.0,62.0,1644844350.5625,P08,D02,1,1,1
762,-3.0,-5.0,62.0,1644844350.59375,P08,D02,1,1,1
763,-3.0,-5.0,62.0,1644844350.625,P08,D02,1,1,1
764,-3.0,-5.0,62.0,1644844350.65625,P08,D02,1,1,1
765,-3.0,-5.0,62.0,1644844350.6875,P08,D02,1,1,1
766,-3.0,-5.0,62.0,1644844350.71875,P08,D02,1,1,1
767,-3.0,-5.0,62.0,1644844350.75,P08,D02,1,1,1
768,-3.0,-5.0,62.0,1644844350.78125,P08,D02,1,1,1
769,-3.0,-5.0,62.0,1644844350.8125,P08,D02,1,1,1
770,-3.0,-5.0,62.0,1644844350.84375,P08,D02,1,1,1
771,-2.0,-5.0,62.0,1644844350.875,P08,D02,1,1,1
772,-3.0,-5.0,62.0,1644844350.90625,P08,D02,1,1,1
773,-3.0,-5.0,62.0,1644844350.9375,P08,D02,1,1,1
774,-3.0,-5.0,62.0,1644844350.96875,P08,D02,1,1,1
775,-3.0,-5.0,62.0,1644844351.0,P08,D02,1,1,1
776,-3.0,-5.0,62.0,1644844351.03125,P08,D02,1,1,1
777,-3.0,-5.0,62.0,1644844351.0625,P08,D02,1,1,1
778,-3.0,-5.0,62.0,1644844351.09375,P08,D02,1,1,1
779,-3.0,-5.0,62.0,1644844351.125,P08,D02,1,1,1
780,-3.0,-5.0,62.0,1644844351.15625,P08,D02,1,1,1
781,-3.0,-5.0,62.0,1644844351.1875,P08,D02,1,1,1
782,-3.0,-5.0,62.0,1644844351.21875,P08,D02,1,1,1
783,-3.0,-5.0,62.0,1644844351.25,P08,D02,1,1,1
784,-3.0,-5.0,62.0,1644844351.28125,P08,D02,1,1,1
785,-3.0,-5.0,62.0,1644844351.3125,P08,D02,1,1,1
786,-3.0,-5.0,62.0,1644844351.34375,P08,D02,1,1,1
787,-3.0,-5.0,62.0,1644844351.375,P08,D02,1,1,1
788,-3.0,-5.0,62.0,1644844351.40625,P08,D02,1,1,1
789,-3.0,-5.0,62.0,1644844351.4375,P08,D02,1,1,1
790,-3.0,-5.0,62.0,1644844351.46875,P08,D02,1,1,1
791,-3.0,-5.0,62.0,1644844351.5,P08,D02,1,1,1
792,-3.0,-5.0,62.0,1644844351.53125,P08,D02,1,1,1
793,-3.0,-5.0,62.0,1644844351.5625,P08,D02,1,1,1
794,-3.0,-5.0,62.0,1644844351.59375,P08,D02,1,1,1
795,-3.0,-5.0,62.0,1644844351.625,P08,D02,1,1,1
796,-3.0,-5.0,62.0,1644844351.65625,P08,D02,1,1,1
797,-3.0,-5.0,62.0,1644844351.6875,P08,D02,1,1,1
798,-3.0,-5.0,62.0,1644844351.71875,P08,D02,1,1,1
799,-3.0,-5.0,62.0,1644844351.75,P08,D02,1,1,1
800,-3.0,-5.0,62.0,1644844351.78125,P08,D02,1,1,1
801,-3.0,-5.0,62.0,1644844351.8125,P08,D02,1,1,1
802,-3.0,-5.0,62.0,1644844351.84375,P08,D02,1,1,1
803,-3.0,-5.0,62.0,1644844351.875,P08,D02,1,1,1
804,-3.0,-5.0,62.0,1644844351.90625,P08,D02,1,1,1
805,-3.0,-5.0,62.0,1644844351.9375,P08,D02,1,1,1
806,-3.0,-5.0,62.0,1644844351.96875,P08,D02,1,1,1
807,-3.0,-5.0,62.0,1644844352.0,P08,D02,1,1,1
808,-3.0,-5.0,62.0,1644844352.03125,P08,D02,1,1,1
809,-3.0,-5.0,62.0,1644844352.0625,P08,D02,1,1,1
810,-3.0,-5.0,62.0,1644844352.09375,P08,D02,1,1,1
811,-3.0,-5.0,62.0,1644844352.125,P08,D02,1,1,1
812,-3.0,-5.0,62.0,1644844352.15625,P08,D02,1,1,1
813,-3.0,-5.0,62.0,1644844352.1875,P08,D02,1,1,1
814,-3.0,-5.0,62.0,1644844352.21875,P08,D02,1,1,1
815,-3.0,-5.0,62.0,1644844352.25,P08,D02,1,1,1
816,-3.0,-5.0,62.0,1644844352.28125,P08,D02,1,1,1
817,-3.0,-5.0,62.0,1644844352.3125,P08,D02,1,1,1
818,-3.0,-5.0,62.0,1644844352.34375,P08,D02,1,1,1
819,-3.0,-5.0,62.0,1644844352.375,P08,D02,1,1,1
820,-3.0,-5.0,62.0,1644844352.40625,P08,D02,1,1,1
821,-3.0,-5.0,62.0,1644844352.4375,P08,D02,1,1,1
822,-3.0,-5.0,62.0,1644844352.46875,P08,D02,1,1,1
823,-3.0,-5.0,62.0,1644844352.5,P08,D02,1,1,1
824,-3.0,-5.0,62.0,1644844352.53125,P08,D02,1,1,1
825,-3.0,-5.0,62.0,1644844352.5625,P08,D02,1,1,1
826,-3.0,-5.0,62.0,1644844352.59375,P08,D02,1,1,1
827,-3.0,-6.0,62.0,1644844352.625,P08,D02,1,1,1
828,-3.0,-5.0,62.0,1644844352.65625,P08,D02,1,1,1
829,-3.0,-5.0,62.0,1644844352.6875,P08,D02,1,1,1
830,-3.0,-5.0,62.0,1644844352.71875,P08,D02,1,1,1
831,-3.0,-5.0,62.0,1644844352.75,P08,D02,1,1,1
832,-3.0,-5.0,62.0,1644844352.78125,P08,D02,1,1,1
833,-3.0,-5.0,62.0,1644844352.8125,P08,D02,1,1,1
834,-3.0,-5.0,62.0,1644844352.84375,P08,D02,1,1,1
835,-3.0,-5.0,62.0,1644844352.875,P08,D02,1,1,1
836,-4.0,-5.0,62.0,1644844352.90625,P08,D02,1,1,1
837,-3.0,-5.0,62.0,1644844352.9375,P08,D02,1,1,1
838,-3.0,-5.0,62.0,1644844352.96875,P08,D02,1,1,1
839,-3.0,-5.0,62.0,1644844353.0,P08,D02,1,1,1
840,-3.0,-5.0,62.0,1644844353.03125,P08,D02,1,1,1
841,-3.0,-5.0,62.0,1644844353.0625,P08,D02,1,1,1
842,-3.0,-5.0,62.0,1644844353.09375,P08,D02,1,1,1
843,-3.0,-5.0,62.0,1644844353.125,P08,D02,1,1,1
844,-3.0,-5.0,62.0,1644844353.15625,P08,D02,1,1,1
845,-3.0,-5.0,62.0,1644844353.1875,P08,D02,1,1,1
846,-3.0,-5.0,62.0,1644844353.21875,P08,D02,1,1,1
847,-3.0,-5.0,62.0,1644844353.25,P08,D02,1,1,1
848,-3.0,-5.0,62.0,1644844353.28125,P08,D02,1,1,1
849,-3.0,-5.0,62.0,1644844353.3125,P08,D02,1,1,1
850,-3.0,-5.0,62.0,1644844353.34375,P08,D02,1,1,1
851,-3.0,-5.0,62.0,1644844353.375,P08,D02,1,1,1
852,-3.0,-5.0,62.0,1644844353.40625,P08,D02,1,1,1
853,-3.0,-5.0,62.0,1644844353.4375,P08,D02,1,1,1
854,-3.0,-5.0,62.0,1644844353.46875,P08,D02,1,1,1
855,-3.0,-5.0,62.0,1644844353.5,P08,D02,1,1,1
856,-4.0,-5.0,62.0,1644844353.53125,P08,D02,1,1,1
857,-3.0,-5.0,62.0,1644844353.5625,P08,D02,1,1,1
858,-3.0,-5.0,62.0,1644844353.59375,P08,D02,1,1,1
859,-3.0,-5.0,62.0,1644844353.625,P08,D02,1,1,1
860,-3.0,-5.0,62.0,1644844353.65625,P08,D02,1,1,1
861,-3.0,-5.0,62.0,1644844353.6875,P08,D02,1,1,1
862,-3.0,-5.0,62.0,1644844353.71875,P08,D02,1,1,1
863,-3.0,-5.0,62.0,1644844353.75,P08,D02,1,1,1
864,-3.0,-5.0,62.0,1644844353.78125,P08,D02,1,1,1
865,-3.0,-5.0,62.0,1644844353.8125,P08,D02,1,1,1
866,-2.0,-5.0,62.0,1644844353.84375,P08,D02,1,1,1
867,-2.0,-5.0,62.0,1644844353.875,P08,D02,1,1,1
868,-3.0,-5.0,62.0,1644844353.90625,P08,D02,1,1,1
869,-3.0,-5.0,62.0,1644844353.9375,P08,D02,1,1,1
870,-3.0,-5.0,62.0,1644844353.96875,P08,D02,1,1,1
871,-3.0,-5.0,62.0,1644844354.0,P08,D02,1,1,1
872,-3.0,-5.0,62.0,1644844354.03125,P08,D02,1,1,1
873,-3.0,-5.0,62.0,1644844354.0625,P08,D02,1,1,1
874,-3.0,-5.0,62.0,1644844354.09375,P08,D02,1,1,1
875,-3.0,-5.0,62.0,1644844354.125,P08,D02,1,1,1
876,-3.0,-5.0,62.0,1644844354.15625,P08,D02,1,1,1
877,-3.0,-5.0,62.0,1644844354.1875,P08,D02,1,1,1
878,-3.0,-5.0,62.0,1644844354.21875,P08,D02,1,1,1
879,-3.0,-5.0,62.0,1644844354.25,P08,D02,1,1,1
880,-3.0,-5.0,62.0,1644844354.28125,P08,D02,1,1,1
881,-3.0,-5.0,62.0,1644844354.3125,P08,D02,1,1,1
882,-3.0,-5.0,62.0,1644844354.34375,P08,D02,1,1,1
883,-3.0,-5.0,62.0,1644844354.375,P08,D02,1,1,1
884,-3.0,-5.0,62.0,1644844354.40625,P08,D02,1,1,1
885,-3.0,-5.0,62.0,1644844354.4375,P08,D02,1,1,1
886,-3.0,-5.0,62.0,1644844354.46875,P08,D02,1,1,1
887,-3.0,-5.0,62.0,1644844354.5,P08,D02,1,1,1
888,-3.0,-5.0,62.0,1644844354.53125,P08,D02,1,1,1
889,-3.0,-5.0,62.0,1644844354.5625,P08,D02,1,1,1
890,-3.0,-5.0,62.0,1644844354.59375,P08,D02,1,1,1
891,-3.0,-5.0,62.0,1644844354.625,P08,D02,1,1,1
892,-3.0,-5.0,62.0,1644844354.65625,P08,D02,1,1,1
893,-3.0,-5.0,62.0,1644844354.6875,P08,D02,1,1,1
894,-3.0,-5.0,62.0,1644844354.71875,P08,D02,1,1,1
895,-3.0,-5.0,62.0,1644844354.75,P08,D02,1,1,1
896,-3.0,-5.0,62.0,1644844354.78125,P08,D02,1,1,1
897,-3.0,-5.0,62.0,1644844354.8125,P08,D02,1,1,1
898,-3.0,-5.0,62.0,1644844354.84375,P08,D02,1,1,1
899,-3.0,-5.0,62.0,1644844354.875,P08,D02,1,1,1
900,-3.0,-5.0,62.0,1644844354.90625,P08,D02,1,1,1
901,-3.0,-5.0,62.0,1644844354.9375,P08,D02,1,1,1
902,-3.0,-5.0,62.0,1644844354.96875,P08,D02,1,1,1
903,-3.0,-5.0,62.0,1644844355.0,P08,D02,1,1,1
904,-2.0,-5.0,62.0,1644844355.03125,P08,D02,1,1,1
905,-3.0,-5.0,62.0,1644844355.0625,P08,D02,1,1,1
906,-3.0,-5.0,62.0,1644844355.09375,P08,D02,1,1,1
907,-3.0,-5.0,62.0,1644844355.125,P08,D02,1,1,1
908,-3.0,-5.0,62.0,1644844355.15625,P08,D02,1,1,1
909,-3.0,-5.0,62.0,1644844355.1875,P08,D02,1,1,1
910,-3.0,-5.0,62.0,1644844355.21875,P08,D02,1,1,1
911,-3.0,-5.0,62.0,1644844355.25,P08,D02,1,1,1
912,-3.0,-5.0,62.0,1644844355.28125,P08,D02,1,1,1
913,-3.0,-5.0,62.0,1644844355.3125,P08,D02,1,1,1
914,-3.0,-5.0,62.0,1644844355.34375,P08,D02,1,1,1
915,-3.0,-5.0,62.0,1644844355.375,P08,D02,1,1,1
916,-3.0,-5.0,62.0,1644844355.40625,P08,D02,1,1,1
917,-3.0,-5.0,62.0,1644844355.4375,P08,D02,1,1,1
918,-3.0,-5.0,62.0,1644844355.46875,P08,D02,1,1,1
919,-3.0,-5.0,62.0,1644844355.5,P08,D02,1,1,1
920,-3.0,-5.0,62.0,1644844355.53125,P08,D02,1,1,1
921,-3.0,-5.0,62.0,1644844355.5625,P08,D02,1,1,1
922,-3.0,-5.0,62.0,1644844355.59375,P08,D02,1,1,1
923,-3.0,-5.0,62.0,1644844355.625,P08,D02,1,1,1
924,-3.0,-5.0,62.0,1644844355.65625,P08,D02,1,1,1
925,-3.0,-5.0,62.0,1644844355.6875,P08,D02,1,1,1
926,-3.0,-5.0,62.0,1644844355.71875,P08,D02,1,1,1
927,-3.0,-5.0,62.0,1644844355.75,P08,D02,1,1,1
928,-3.0,-5.0,62.0,1644844355.78125,P08,D02,1,1,1
929,-3.0,-5.0,62.0,1644844355.8125,P08,D02,1,1,1
930,-3.0,-5.0,62.0,1644844355.84375,P08,D02,1,1,1
931,-3.0,-5.0,62.0,1644844355.875,P08,D02,1,1,1
932,-3.0,-5.0,62.0,1644844355.90625,P08,D02,1,1,1
933,-3.0,-5.0,62.0,1644844355.9375,P08,D02,1,1,1
934,-3.0,-5.0,62.0,1644844355.96875,P08,D02,1,1,1
935,-3.0,-5.0,62.0,1644844356.0,P08,D02,1,1,1
936,-3.0,-5.0,62.0,1644844356.03125,P08,D02,1,1,1
937,-3.0,-5.0,62.0,1644844356.0625,P08,D02,1,1,1
938,-3.0,-5.0,62.0,1644844356.09375,P08,D02,1,1,1
939,-3.0,-5.0,62.0,1644844356.125,P08,D02,1,1,1
940,-3.0,-5.0,62.0,1644844356.15625,P08,D02,1,1,1
941,-3.0,-5.0,62.0,1644844356.1875,P08,D02,1,1,1
942,-3.0,-5.0,62.0,1644844356.21875,P08,D02,1,1,1
943,-3.0,-5.0,62.0,1644844356.25,P08,D02,1,1,1
944,-3.0,-5.0,62.0,1644844356.28125,P08,D02,1,1,1
945,-3.0,-5.0,62.0,1644844356.3125,P08,D02,1,1,1
946,-3.0,-5.0,62.0,1644844356.34375,P08,D02,1,1,1
947,-3.0,-5.0,62.0,1644844356.375,P08,D02,1,1,1
948,-3.0,-5.0,62.0,1644844356.40625,P08,D02,1,1,1
949,-3.0,-5.0,62.0,1644844356.4375,P08,D02,1,1,1
950,-3.0,-5.0,62.0,1644844356.46875,P08,D02,1,1,1
951,-3.0,-5.0,62.0,1644844356.5,P08,D02,1,1,1
952,-3.0,-5.0,62.0,1644844356.53125,P08,D02,1,1,1
953,-3.0,-5.0,62.0,1644844356.5625,P08,D02,1,1,1
954,-3.0,-5.0,62.0,1644844356.59375,P08,D02,1,1,1
955,-3.0,-5.0,62.0,1644844356.625,P08,D02,1,1,1
956,-3.0,-5.0,62.0,1644844356.65625,P08,D02,1,1,1
957,-3.0,-5.0,62.0,1644844356.6875,P08,D02,1,1,1
958,-3.0,-5.0,62.0,1644844356.71875,P08,D02,1,1,1
959,-3.0,-5.0,62.0,1644844356.75,P08,D02,1,1,1
960,-3.0,-5.0,62.0,1644844356.78125,P08,D02,1,1,1
961,-3.0,-5.0,62.0,1644844356.8125,P08,D02,1,1,1
962,-3.0,-5.0,62.0,1644844356.84375,P08,D02,1,1,1
963,-3.0,-5.0,62.0,1644844356.875,P08,D02,1,1,1
964,-3.0,-5.0,62.0,1644844356.90625,P08,D02,1,1,1
965,-3.0,-5.0,62.0,1644844356.9375,P08,D02,1,1,1
966,-3.0,-5.0,62.0,1644844356.96875,P08,D02,1,1,1
967,-3.0,-5.0,62.0,1644844357.0,P08,D02,1,1,1
968,-3.0,-5.0,62.0,1644844357.03125,P08,D02,1,1,1
969,-3.0,-5.0,62.0,1644844357.0625,P08,D02,1,1,1
970,-3.0,-5.0,62.0,1644844357.09375,P08,D02,1,1,1
971,-3.0,-5.0,62.0,1644844357.125,P08,D02,1,1,1
972,-3.0,-5.0,62.0,1644844357.15625,P08,D02,1,1,1
973,-3.0,-5.0,62.0,1644844357.1875,P08,D02,1,1,1
974,-3.0,-5.0,62.0,1644844357.21875,P08,D02,1,1,1
975,-3.0,-5.0,62.0,1644844357.25,P08,D02,1,1,1
976,-3.0,-5.0,62.0,1644844357.28125,P08,D02,1,1,1
977,-3.0,-5.0,62.0,1644844357.3125,P08,D02,1,1,1
978,-3.0,-5.0,62.0,1644844357.34375,P08,D02,1,1,1
979,-3.0,-5.0,62.0,1644844357.375,P08,D02,1,1,1
980,-3.0,-5.0,62.0,1644844357.40625,P08,D02,1,1,1
981,-3.0,-5.0,62.0,1644844357.4375,P08,D02,1,1,1
982,-3.0,-5.0,62.0,1644844357.46875,P08,D02,1,1,1
983,-3.0,-5.0,62.0,1644844357.5,P08,D02,1,1,1
984,-3.0,-5.0,62.0,1644844357.53125,P08,D02,1,1,1
985,-3.0,-5.0,62.0,1644844357.5625,P08,D02,1,1,1
986,-3.0,-5.0,62.0,1644844357.59375,P08,D02,1,1,1
987,-3.0,-5.0,62.0,1644844357.625,P08,D02,1,1,1
988,-3.0,-5.0,62.0,1644844357.65625,P08,D02,1,1,1
989,-3.0,-5.0,62.0,1644844357.6875,P08,D02,1,1,1
990,-3.0,-5.0,62.0,1644844357.71875,P08,D02,1,1,1
991,-3.0,-5.0,62.0,1644844357.75,P08,D02,1,1,1
992,-3.0,-5.0,62.0,1644844357.78125,P08,D02,1,1,1
993,-3.0,-5.0,62.0,1644844357.8125,P08,D02,1,1,1
994,-3.0,-5.0,62.0,1644844357.84375,P08,D02,1,1,1
995,-3.0,-5.0,62.0,1644844357.875,P08,D02,1,1,1
996,-3.0,-5.0,62.0,1644844357.90625,P08,D02,1,1,1
997,-3.0,-5.0,62.0,1644844357.9375,P08,D02,1,1,1
998,-3.0,-5.0,62.0,1644844357.96875,P08,D02,1,1,1
999,-3.0,-5.0,62.0,1644844358.0,P08,D02,1,1,1
1000,-3.0,-5.0,62.0,1644844358.03125,P08,D02,1,1,1
1001,-3.0,-5.0,62.0,1644844358.0625,P08,D02,1,1,1
1002,-3.0,-5.0,62.0,1644844358.09375,P08,D02,1,1,1
1003,-3.0,-5.0,62.0,1644844358.125,P08,D02,1,1,1
1004,-3.0,-5.0,62.0,1644844358.15625,P08,D02,1,1,1
1005,-3.0,-5.0,62.0,1644844358.1875,P08,D02,1,1,1
1006,-3.0,-5.0,62.0,1644844358.21875,P08,D02,1,1,1
1007,-3.0,-5.0,62.0,1644844358.25,P08,D02,1,1,1
1008,-3.0,-5.0,62.0,1644844358.28125,P08,D02,1,1,1
1009,-3.0,-5.0,62.0,1644844358.3125,P08,D02,1,1,1
1010,-3.0,-5.0,62.0,1644844358.34375,P08,D02,1,1,1
1011,-3.0,-5.0,62.0,1644844358.375,P08,D02,1,1,1
1012,-3.0,-5.0,62.0,1644844358.40625,P08,D02,1,1,1
1013,-3.0,-5.0,62.0,1644844358.4375,P08,D02,1,1,1
1014,-3.0,-5.0,62.0,1644844358.46875,P08,D02,1,1,1
1015,-3.0,-5.0,62.0,1644844358.5,P08,D02,1,1,1
1016,-3.0,-5.0,62.0,1644844358.53125,P08,D02,1,1,1
1017,-3.0,-5.0,62.0,1644844358.5625,P08,D02,1,1,1
1018,-3.0,-5.0,62.0,1644844358.59375,P08,D02,1,1,1
1019,-3.0,-5.0,62.0,1644844358.625,P08,D02,1,1,1
1020,-3.0,-5.0,62.0,1644844358.65625,P08,D02,1,1,1
1021,-3.0,-5.0,62.0,1644844358.6875,P08,D02,1,1,1
1022,-3.0,-5.0,62.0,1644844358.71875,P08,D02,1,1,1
1023,-3.0,-5.0,62.0,1644844358.75,P08,D02,1,1,1
1024,-3.0,-5.0,62.0,1644844358.78125,P08,D02,1,1,1
1025,-3.0,-5.0,62.0,1644844358.8125,P08,D02,1,1,1
1026,-3.0,-6.0,62.0,1644844358.84375,P08,D02,1,1,1
1027,-3.0,-5.0,62.0,1644844358.875,P08,D02,1,1,1
1028,-3.0,-5.0,62.0,1644844358.90625,P08,D02,1,1,1
1029,-3.0,-5.0,62.0,1644844358.9375,P08,D02,1,1,1
1030,-3.0,-5.0,62.0,1644844358.96875,P08,D02,1,1,1
1031,-3.0,-5.0,62.0,1644844359.0,P08,D02,1,1,1
1032,-3.0,-5.0,62.0,1644844359.03125,P08,D02,1,1,1
1033,-3.0,-5.0,62.0,1644844359.0625,P08,D02,1,1,1
1034,-3.0,-5.0,62.0,1644844359.09375,P08,D02,1,1,1
1035,-3.0,-5.0,62.0,1644844359.125,P08,D02,1,1,1
1036,-3.0,-5.0,62.0,1644844359.15625,P08,D02,1,1,1
1037,-3.0,-5.0,62.0,1644844359.1875,P08,D02,1,1,1
1038,-3.0,-5.0,62.0,1644844359.21875,P08,D02,1,1,1
1039,-3.0,-6.0,62.0,1644844359.25,P08,D02,1,1,1
1040,-4.0,-5.0,62.0,1644844359.28125,P08,D02,1,1,1
1041,-3.0,-5.0,62.0,1644844359.3125,P08,D02,1,1,1
1042,-3.0,-5.0,62.0,1644844359.34375,P08,D02,1,1,1
1043,-3.0,-5.0,62.0,1644844359.375,P08,D02,1,1,1
1044,-3.0,-5.0,62.0,1644844359.40625,P08,D02,1,1,1
1045,-3.0,-5.0,62.0,1644844359.4375,P08,D02,1,1,1
1046,-3.0,-5.0,62.0,1644844359.46875,P08,D02,1,1,1
1047,-3.0,-5.0,62.0,1644844359.5,P08,D02,1,1,1
1048,-3.0,-5.0,62.0,1644844359.53125,P08,D02,1,1,1
1049,-3.0,-5.0,62.0,1644844359.5625,P08,D02,1,1,1
1050,-3.0,-5.0,62.0,1644844359.59375,P08,D02,1,1,1
1051,-3.0,-5.0,62.0,1644844359.625,P08,D02,1,1,1
1052,-3.0,-5.0,62.0,1644844359.65625,P08,D02,1,1,1
1053,-3.0,-5.0,62.0,1644844359.6875,P08,D02,1,1,1
1054,-3.0,-5.0,62.0,1644844359.71875,P08,D02,1,1,1
1055,-3.0,-5.0,62.0,1644844359.75,P08,D02,1,1,1
1056,-3.0,-5.0,62.0,1644844359.78125,P08,D02,1,1,1
1057,-3.0,-5.0,62.0,1644844359.8125,P08,D02,1,1,1
1058,-3.0,-5.0,62.0,1644844359.84375,P08,D02,1,1,1
1059,-3.0,-5.0,62.0,1644844359.875,P08,D02,1,1,1
1060,-3.0,-5.0,62.0,1644844359.90625,P08,D02,1,1,1
1061,-3.0,-5.0,62.0,1644844359.9375,P08,D02,1,1,1
1062,-3.0,-5.0,62.0,1644844359.96875,P08,D02,1,1,1
1063,-3.0,-5.0,62.0,1644844360.0,P08,D02,1,1,1
1064,-3.0,-5.0,62.0,1644844360.03125,P08,D02,1,1,1
1065,-3.0,-5.0,62.0,1644844360.0625,P08,D02,1,1,1
1066,-3.0,-5.0,62.0,1644844360.09375,P08,D02,1,1,1
1067,-3.0,-5.0,62.0,1644844360.125,P08,D02,1,1,1
1068,-3.0,-5.0,62.0,1644844360.15625,P08,D02,1,1,1
1069,-3.0,-5.0,62.0,1644844360.1875,P08,D02,1,1,1
1070,-3.0,-5.0,62.0,1644844360.21875,P08,D02,1,1,1
1071,-3.0,-5.0,62.0,1644844360.25,P08,D02,1,1,1
1072,-3.0,-5.0,62.0,1644844360.28125,P08,D02,1,1,1
1073,-3.0,-5.0,62.0,1644844360.3125,P08,D02,1,1,1
1074,-3.0,-5.0,62.0,1644844360.34375,P08,D02,1,1,1
1075,-3.0,-5.0,62.0,1644844360.375,P08,D02,1,1,1
1076,-3.0,-5.0,62.0,1644844360.40625,P08,D02,1,1,1
1077,-3.0,-5.0,62.0,1644844360.4375,P08,D02,1,1,1
1078,-3.0,-5.0,63.0,1644844360.46875,P08,D02,1,1,1
1079,-3.0,-5.0,62.0,1644844360.5,P08,D02,1,1,1
1080,-3.0,-5.0,62.0,1644844360.53125,P08,D02,1,1,1
1081,-3.0,-5.0,62.0,1644844360.5625,P08,D02,1,1,1
1082,-3.0,-5.0,62.0,1644844360.59375,P08,D02,1,1,1
1083,-3.0,-5.0,62.0,1644844360.625,P08,D02,1,1,1
1084,-3.0,-5.0,62.0,1644844360.65625,P08,D02,1,1,1
1085,-3.0,-5.0,62.0,1644844360.6875,P08,D02,1,1,1
1086,-3.0,-5.0,62.0,1644844360.71875,P08,D02,1,1,1
1087,-3.0,-5.0,62.0,1644844360.75,P08,D02,1,1,1
1088,-3.0,-5.0,62.0,1644844360.78125,P08,D02,1,1,1
1089,-3.0,-5.0,62.0,1644844360.8125,P08,D02,1,1,1
1090,-3.0,-5.0,62.0,1644844360.84375,P08,D02,1,1,1
1091,-3.0,-5.0,62.0,1644844360.875,P08,D02,1,1,1
1092,-3.0,-5.0,62.0,1644844360.90625,P08,D02,1,1,1
1093,-3.0,-5.0,62.0,1644844360.9375,P08,D02,1,1,1
1094,-3.0,-5.0,62.0,1644844360.96875,P08,D02,1,1,1
1095,-3.0,-5.0,62.0,1644844361.0,P08,D02,1,1,1
1096,-3.0,-5.0,62.0,1644844361.03125,P08,D02,1,1,1
1097,-3.0,-5.0,62.0,1644844361.0625,P08,D02,1,1,1
1098,-3.0,-5.0,62.0,1644844361.09375,P08,D02,1,1,1
1099,-3.0,-5.0,62.0,1644844361.125,P08,D02,1,1,1
1100,-3.0,-5.0,62.0,1644844361.15625,P08,D02,1,1,1
1101,-3.0,-5.0,62.0,1644844361.1875,P08,D02,1,1,1
1102,-3.0,-5.0,62.0,1644844361.21875,P08,D02,1,1,1
1103,-3.0,-5.0,62.0,1644844361.25,P08,D02,1,1,1
1104,-3.0,-5.0,62.0,1644844361.28125,P08,D02,1,1,1
1105,-3.0,-5.0,62.0,1644844361.3125,P08,D02,1,1,1
1106,-3.0,-5.0,62.0,1644844361.34375,P08,D02,1,1,1
1107,-3.0,-5.0,62.0,1644844361.375,P08,D02,1,1,1
1108,-3.0,-5.0,62.0,1644844361.40625,P08,D02,1,1,1
1109,-3.0,-5.0,62.0,1644844361.4375,P08,D02,1,1,1
1110,-3.0,-5.0,62.0,1644844361.46875,P08,D02,1,1,1
1111,-3.0,-5.0,62.0,1644844361.5,P08,D02,1,1,1
1112,-3.0,-5.0,62.0,1644844361.53125,P08,D02,1,1,1
1113,-3.0,-5.0,62.0,1644844361.5625,P08,D02,1,1,1
1114,-3.0,-5.0,62.0,1644844361.59375,P08,D02,1,1,1
1115,-3.0,-5.0,62.0,1644844361.625,P08,D02,1,1,1
1116,-3.0,-5.0,62.0,1644844361.65625,P08,D02,1,1,1
1117,-3.0,-5.0,62.0,1644844361.6875,P08,D02,1,1,1
1118,-3.0,-5.0,62.0,1644844361.71875,P08,D02,1,1,1
1119,-3.0,-5.0,62.0,1644844361.75,P08,D02,1,1,1
1120,-3.0,-5.0,62.0,1644844361.78125,P08,D02,1,1,1
1121,-3.0,-5.0,62.0,1644844361.8125,P08,D02,1,1,1
1122,-3.0,-5.0,62.0,1644844361.84375,P08,D02,1,1,1
1123,-3.0,-5.0,62.0,1644844361.875,P08,D02,1,1,1
1124,-4.0,-5.0,62.0,1644844361.90625,P08,D02,1,1,1
1125,-3.0,-5.0,62.0,1644844361.9375,P08,D02,1,1,1
1126,-3.0,-5.0,62.0,1644844361.96875,P08,D02,1,1,1
1127,-3.0,-5.0,62.0,1644844362.0,P08,D02,1,1,1
1128,-3.0,-5.0,62.0,1644844362.03125,P08,D02,1,1,1
1129,-3.0,-5.0,62.0,1644844362.0625,P08,D02,1,1,1
1130,-3.0,-5.0,62.0,1644844362.09375,P08,D02,1,1,1
1131,-3.0,-5.0,62.0,1644844362.125,P08,D02,1,1,1
1132,-3.0,-5.0,62.0,1644844362.15625,P08,D02,1,1,1
1133,-3.0,-5.0,62.0,1644844362.1875,P08,D02,1,1,1
1134,-3.0,-5.0,62.0,1644844362.21875,P08,D02,1,1,1
1135,-3.0,-5.0,62.0,1644844362.25,P08,D02,1,1,1
1136,-3.0,-5.0,62.0,1644844362.28125,P08,D02,1,1,1
1137,-4.0,-5.0,62.0,1644844362.3125,P08,D02,1,1,1
1138,-3.0,-5.0,62.0,1644844362.34375,P08,D02,1,1,1
1139,-3.0,-5.0,62.0,1644844362.375,P08,D02,1,1,1
1140,-3.0,-5.0,62.0,1644844362.40625,P08,D02,1,1,1
1141,-3.0,-5.0,62.0,1644844362.4375,P08,D02,1,1,1
1142,-3.0,-5.0,62.0,1644844362.46875,P08,D02,1,1,1
1143,-3.0,-5.0,62.0,1644844362.5,P08,D02,1,1,1
1144,-3.0,-5.0,62.0,1644844362.53125,P08,D02,1,1,1
1145,-3.0,-5.0,62.0,1644844362.5625,P08,D02,1,1,1
1146,-3.0,-5.0,62.0,1644844362.59375,P08,D02,1,1,1
1147,-3.0,-5.0,62.0,1644844362.625,P08,D02,1,1,1
1148,-3.0,-5.0,62.0,1644844362.65625,P08,D02,1,1,1
1149,-3.0,-5.0,62.0,1644844362.6875,P08,D02,1,1,1
1150,-3.0,-5.0,62.0,1644844362.71875,P08,D02,1,1,1
1151,-3.0,-5.0,62.0,1644844362.75,P08,D02,1,1,1
1152,-3.0,-5.0,62.0,1644844362.78125,P08,D02,1,1,1
1153,-3.0,-5.0,62.0,1644844362.8125,P08,D02,1,1,1
1154,-3.0,-5.0,62.0,1644844362.84375,P08,D02,1,1,1
1155,-3.0,-5.0,62.0,1644844362.875,P08,D02,1,1,1
1156,-3.0,-5.0,62.0,1644844362.90625,P08,D02,1,1,1
1157,-3.0,-5.0,62.0,1644844362.9375,P08,D02,1,1,1
1158,-3.0,-5.0,62.0,1644844362.96875,P08,D02,1,1,1
1159,-3.0,-5.0,62.0,1644844363.0,P08,D02,1,1,1
1160,-3.0,-5.0,62.0,1644844363.03125,P08,D02,1,1,1
1161,-3.0,-5.0,62.0,1644844363.0625,P08,D02,1,1,1
1162,-3.0,-5.0,62.0,1644844363.09375,P08,D02,1,1,1
1163,-3.0,-5.0,62.0,1644844363.125,P08,D02,1,1,1
1164,-3.0,-5.0,62.0,1644844363.15625,P08,D02,1,1,1
1165,-3.0,-5.0,62.0,1644844363.1875,P08,D02,1,1,1
1166,-3.0,-5.0,62.0,1644844363.21875,P08,D02,1,1,1
1167,-3.0,-5.0,62.0,1644844363.25,P08,D02,1,1,1
1168,-3.0,-5.0,62.0,1644844363.28125,P08,D02,1,1,1
1169,-3.0,-5.0,62.0,1644844363.3125,P08,D02,1,1,1
1170,-3.0,-5.0,62.0,1644844363.34375,P08,D02,1,1,1
1171,-2.0,-5.0,62.0,1644844363.375,P08,D02,1,1,1
1172,-3.0,-5.0,62.0,1644844363.40625,P08,D02,1,1,1
1173,-3.0,-5.0,62.0,1644844363.4375,P08,D02,1,1,1
1174,-3.0,-5.0,62.0,1644844363.46875,P08,D02,1,1,1
1175,-3.0,-5.0,62.0,1644844363.5,P08,D02,1,1,1
1176,-3.0,-5.0,62.0,1644844363.53125,P08,D02,1,1,1
1177,-3.0,-5.0,62.0,1644844363.5625,P08,D02,1,1,1
1178,-3.0,-5.0,62.0,1644844363.59375,P08,D02,1,1,1
1179,-3.0,-5.0,62.0,1644844363.625,P08,D02,1,1,1
1180,-3.0,-5.0,62.0,1644844363.65625,P08,D02,1,1,1
1181,-3.0,-5.0,62.0,1644844363.6875,P08,D02,1,1,1
1182,-3.0,-5.0,62.0,1644844363.71875,P08,D02,1,1,1
1183,-3.0,-5.0,62.0,1644844363.75,P08,D02,1,1,1
1184,-3.0,-5.0,62.0,1644844363.78125,P08,D02,1,1,1
1185,-3.0,-5.0,62.0,1644844363.8125,P08,D02,1,1,1
1186,-3.0,-5.0,62.0,1644844363.84375,P08,D02,1,1,1
1187,-3.0,-5.0,62.0,1644844363.875,P08,D02,1,1,1
1188,-3.0,-5.0,62.0,1644844363.90625,P08,D02,1,1,1
1189,-3.0,-5.0,62.0,1644844363.9375,P08,D02,1,1,1
1190,-3.0,-5.0,62.0,1644844363.96875,P08,D02,1,1,1
1191,-3.0,-5.0,62.0,1644844364.0,P08,D02,1,1,1
1192,-3.0,-5.0,62.0,1644844364.03125,P08,D02,1,1,1
1193,-3.0,-5.0,62.0,1644844364.0625,P08,D02,1,1,1
1194,-3.0,-5.0,62.0,1644844364.09375,P08,D02,1,1,1
1195,-3.0,-5.0,62.0,1644844364.125,P08,D02,1,1,1
1196,-3.0,-5.0,62.0,1644844364.15625,P08,D02,1,1,1
1197,-3.0,-5.0,62.0,1644844364.1875,P08,D02,1,1,1
1198,-3.0,-5.0,62.0,1644844364.21875,P08,D02,1,1,1
1199,-3.0,-5.0,62.0,1644844364.25,P08,D02,1,1,1
1200,-3.0,-5.0,62.0,1644844364.28125,P08,D02,1,1,1
1201,-3.0,-5.0,62.0,1644844364.3125,P08,D02,1,1,1
1202,-3.0,-5.0,62.0,1644844364.34375,P08,D02,1,1,1
1203,-3.0,-5.0,62.0,1644844364.375,P08,D02,1,1,1
1204,-3.0,-5.0,62.0,1644844364.40625,P08,D02,1,1,1
1205,-3.0,-5.0,62.0,1644844364.4375,P08,D02,1,1,1
1206,-3.0,-5.0,62.0,1644844364.46875,P08,D02,1,1,1
1207,-3.0,-5.0,62.0,1644844364.5,P08,D02,1,1,1
1208,-2.0,-5.0,62.0,1644844364.53125,P08,D02,1,1,1
1209,-3.0,-5.0,62.0,1644844364.5625,P08,D02,1,1,1
1210,-3.0,-5.0,62.0,1644844364.59375,P08,D02,1,1,1
1211,-3.0,-5.0,62.0,1644844364.625,P08,D02,1,1,1
1212,-3.0,-5.0,62.0,1644844364.65625,P08,D02,1,1,1
1213,-3.0,-5.0,62.0,1644844364.6875,P08,D02,1,1,1
1214,-3.0,-5.0,62.0,1644844364.71875,P08,D02,1,1,1
1215,-3.0,-5.0,62.0,1644844364.75,P08,D02,1,1,1
1216,-3.0,-5.0,62.0,1644844364.78125,P08,D02,1,1,1
1217,-3.0,-5.0,62.0,1644844364.8125,P08,D02,1,1,1
1218,-3.0,-5.0,62.0,1644844364.84375,P08,D02,1,1,1
1219,-3.0,-5.0,62.0,1644844364.875,P08,D02,1,1,1
1220,-3.0,-5.0,62.0,1644844364.90625,P08,D02,1,1,1
1221,-3.0,-5.0,62.0,1644844364.9375,P08,D02,1,1,1
1222,-3.0,-5.0,62.0,1644844364.96875,P08,D02,1,1,1
1223,-3.0,-5.0,62.0,1644844365.0,P08,D02,1,1,1
1224,-3.0,-5.0,62.0,1644844365.03125,P08,D02,1,1,1
1225,-3.0,-5.0,62.0,1644844365.0625,P08,D02,1,1,1
1226,-3.0,-5.0,62.0,1644844365.09375,P08,D02,1,1,1
1227,-3.0,-5.0,62.0,1644844365.125,P08,D02,1,1,1
1228,-3.0,-5.0,62.0,1644844365.15625,P08,D02,1,1,1
1229,-3.0,-5.0,62.0,1644844365.1875,P08,D02,1,1,1
1230,-3.0,-5.0,62.0,1644844365.21875,P08,D02,1,1,1
1231,-3.0,-5.0,62.0,1644844365.25,P08,D02,1,1,1
1232,-3.0,-5.0,62.0,1644844365.28125,P08,D02,1,1,1
1233,-3.0,-5.0,62.0,1644844365.3125,P08,D02,1,1,1
1234,-3.0,-5.0,62.0,1644844365.34375,P08,D02,1,1,1
1235,-3.0,-5.0,62.0,1644844365.375,P08,D02,1,1,1
1236,-3.0,-5.0,62.0,1644844365.40625,P08,D02,1,1,1
1237,-3.0,-5.0,62.0,1644844365.4375,P08,D02,1,1,1
1238,-3.0,-5.0,62.0,1644844365.46875,P08,D02,1,1,1
1239,-3.0,-5.0,62.0,1644844365.5,P08,D02,1,1,1
1240,-3.0,-5.0,62.0,1644844365.53125,P08,D02,1,1,1
1241,-3.0,-5.0,62.0,1644844365.5625,P08,D02,1,1,1
1242,-3.0,-5.0,62.0,1644844365.59375,P08,D02,1,1,1
1243,-3.0,-5.0,62.0,1644844365.625,P08,D02,1,1,1
1244,-3.0,-5.0,62.0,1644844365.65625,P08,D02,1,1,1
1245,-4.0,-5.0,62.0,1644844365.6875,P08,D02,1,1,1
1246,-3.0,-5.0,62.0,1644844365.71875,P08,D02,1,1,1
1247,-3.0,-5.0,62.0,1644844365.75,P08,D02,1,1,1
1248,-4.0,-5.0,62.0,1644844365.78125,P08,D02,1,1,1
1249,-3.0,-5.0,62.0,1644844365.8125,P08,D02,1,1,1
1250,-3.0,-5.0,62.0,1644844365.84375,P08,D02,1,1,1
1251,-3.0,-5.0,62.0,1644844365.875,P08,D02,1,1,1
1252,-3.0,-5.0,62.0,1644844365.90625,P08,D02,1,1,1
1253,-3.0,-5.0,62.0,1644844365.9375,P08,D02,1,1,1
1254,-4.0,-5.0,62.0,1644844365.96875,P08,D02,1,1,1
1255,-3.0,-5.0,62.0,1644844366.0,P08,D02,1,1,1
1256,-3.0,-5.0,62.0,1644844366.03125,P08,D02,1,1,1
1257,-3.0,-5.0,62.0,1644844366.0625,P08,D02,1,1,1
1258,-3.0,-5.0,62.0,1644844366.09375,P08,D02,1,1,1
1259,-3.0,-5.0,62.0,1644844366.125,P08,D02,1,1,1
1260,-3.0,-5.0,62.0,1644844366.15625,P08,D02,1,1,1
1261,-3.0,-5.0,62.0,1644844366.1875,P08,D02,1,1,1
1262,-3.0,-5.0,62.0,1644844366.21875,P08,D02,1,1,1
1263,-3.0,-5.0,62.0,1644844366.25,P08,D02,1,1,1
1264,-3.0,-5.0,62.0,1644844366.28125,P08,D02,1,1,1
1265,-3.0,-5.0,62.0,1644844366.3125,P08,D02,1,1,1
1266,-4.0,-5.0,62.0,1644844366.34375,P08,D02,1,1,1
1267,-4.0,-5.0,62.0,1644844366.375,P08,D02,1,1,1
1268,-3.0,-5.0,62.0,1644844366.40625,P08,D02,1,1,1
1269,-3.0,-5.0,62.0,1644844366.4375,P08,D02,1,1,1
1270,-3.0,-5.0,62.0,1644844366.46875,P08,D02,1,1,1
1271,-3.0,-5.0,62.0,1644844366.5,P08,D02,1,1,1
1272,-3.0,-5.0,62.0,1644844366.53125,P08,D02,1,1,1
1273,-3.0,-5.0,62.0,1644844366.5625,P08,D02,1,1,1
1274,-3.0,-5.0,62.0,1644844366.59375,P08,D02,1,1,1
1275,-3.0,-5.0,62.0,1644844366.625,P08,D02,1,1,1
1276,-3.0,-5.0,62.0,1644844366.65625,P08,D02,1,1,1
1277,-3.0,-5.0,62.0,1644844366.6875,P08,D02,1,1,1
1278,-3.0,-5.0,62.0,1644844366.71875,P08,D02,1,1,1
1279,-3.0,-5.0,62.0,1644844366.75,P08,D02,1,1,1
1280,-3.0,-5.0,62.0,1644844366.78125,P08,D02,1,1,1
1281,-3.0,-5.0,62.0,1644844366.8125,P08,D02,1,1,1
1282,-3.0,-5.0,62.0,1644844366.84375,P08,D02,1,1,1
1283,-3.0,-5.0,62.0,1644844366.875,P08,D02,1,1,1
1284,-3.0,-5.0,62.0,1644844366.90625,P08,D02,1,1,1
1285,-3.0,-5.0,62.0,1644844366.9375,P08,D02,1,1,1
1286,-3.0,-5.0,62.0,1644844366.96875,P08,D02,1,1,1
1287,-3.0,-5.0,62.0,1644844367.0,P08,D02,1,1,1
1288,-3.0,-5.0,62.0,1644844367.03125,P08,D02,1,1,1
1289,-3.0,-5.0,62.0,1644844367.0625,P08,D02,1,1,1
1290,-3.0,-5.0,62.0,1644844367.09375,P08,D02,1,1,1
1291,-3.0,-5.0,62.0,1644844367.125,P08,D02,1,1,1
1292,-3.0,-5.0,62.0,1644844367.15625,P08,D02,1,1,1
1293,-3.0,-5.0,62.0,1644844367.1875,P08,D02,1,1,1
1294,-3.0,-5.0,62.0,1644844367.21875,P08,D02,1,1,1
1295,-3.0,-5.0,62.0,1644844367.25,P08,D02,1,1,1
1296,-3.0,-5.0,62.0,1644844367.28125,P08,D02,1,1,1
1297,-3.0,-5.0,62.0,1644844367.3125,P08,D02,1,1,1
1298,-3.0,-5.0,62.0,1644844367.34375,P08,D02,1,1,1
1299,-3.0,-6.0,62.0,1644844367.375,P08,D02,1,1,1
1300,-3.0,-5.0,62.0,1644844367.40625,P08,D02,1,1,1
1301,-3.0,-5.0,62.0,1644844367.4375,P08,D02,1,1,1
1302,-3.0,-5.0,62.0,1644844367.46875,P08,D02,1,1,1
1303,-3.0,-5.0,62.0,1644844367.5,P08,D02,1,1,1
1304,-3.0,-5.0,62.0,1644844367.53125,P08,D02,1,1,1
1305,-3.0,-5.0,62.0,1644844367.5625,P08,D02,1,1,1
1306,-3.0,-5.0,62.0,1644844367.59375,P08,D02,1,1,1
1307,-3.0,-5.0,62.0,1644844367.625,P08,D02,1,1,1
1308,-3.0,-5.0,62.0,1644844367.65625,P08,D02,1,1,1
1309,-3.0,-5.0,62.0,1644844367.6875,P08,D02,1,1,1
1310,-3.0,-5.0,62.0,1644844367.71875,P08,D02,1,1,1
1311,-3.0,-5.0,62.0,1644844367.75,P08,D02,1,1,1
1312,-3.0,-5.0,62.0,1644844367.78125,P08,D02,1,1,1
1313,-3.0,-5.0,62.0,1644844367.8125,P08,D02,1,1,1
1314,-3.0,-5.0,62.0,1644844367.84375,P08,D02,1,1,1
1315,-3.0,-5.0,62.0,1644844367.875,P08,D02,1,1,1
1316,-3.0,-5.0,62.0,1644844367.90625,P08,D02,1,1,1
1317,-3.0,-5.0,62.0,1644844367.9375,P08,D02,1,1,1
1318,-3.0,-5.0,62.0,1644844367.96875,P08,D02,1,1,1
1319,-3.0,-5.0,62.0,1644844368.0,P08,D02,1,1,1
1320,-3.0,-5.0,62.0,1644844368.03125,P08,D02,1,1,1
1321,-3.0,-5.0,62.0,1644844368.0625,P08,D02,1,1,1
1322,-3.0,-5.0,62.0,1644844368.09375,P08,D02,1,1,1
1323,-3.0,-5.0,62.0,1644844368.125,P08,D02,1,1,1
1324,-3.0,-5.0,62.0,1644844368.15625,P08,D02,1,1,1
1325,-3.0,-5.0,62.0,1644844368.1875,P08,D02,1,1,1
1326,-3.0,-5.0,62.0,1644844368.21875,P08,D02,1,1,1
1327,-3.0,-5.0,62.0,1644844368.25,P08,D02,1,1,1
1328,-3.0,-5.0,62.0,1644844368.28125,P08,D02,1,1,1
1329,-3.0,-5.0,62.0,1644844368.3125,P08,D02,1,1,1
1330,-3.0,-5.0,62.0,1644844368.34375,P08,D02,1,1,1
1331,-3.0,-5.0,62.0,1644844368.375,P08,D02,1,1,1
1332,-3.0,-5.0,62.0,1644844368.40625,P08,D02,1,1,1
1333,-3.0,-5.0,62.0,1644844368.4375,P08,D02,1,1,1
1334,-3.0,-5.0,62.0,1644844368.46875,P08,D02,1,1,1
1335,-3.0,-5.0,62.0,1644844368.5,P08,D02,1,1,1
1336,-3.0,-5.0,62.0,1644844368.53125,P08,D02,1,1,1
1337,-3.0,-5.0,62.0,1644844368.5625,P08,D02,1,1,1
1338,-3.0,-5.0,62.0,1644844368.59375,P08,D02,1,1,1
1339,-3.0,-5.0,62.0,1644844368.625,P08,D02,1,1,1
1340,-3.0,-5.0,62.0,1644844368.65625,P08,D02,1,1,1
1341,-3.0,-5.0,62.0,1644844368.6875,P08,D02,1,1,1
1342,-3.0,-5.0,62.0,1644844368.71875,P08,D02,1,1,1
1343,-3.0,-5.0,62.0,1644844368.75,P08,D02,1,1,1
1344,-3.0,-5.0,62.0,1644844368.78125,P08,D02,1,1,1
1345,-4.0,-5.0,62.0,1644844368.8125,P08,D02,1,1,1
1346,-3.0,-5.0,62.0,1644844368.84375,P08,D02,1,1,1
1347,-3.0,-5.0,62.0,1644844368.875,P08,D02,1,1,1
1348,-3.0,-5.0,62.0,1644844368.90625,P08,D02,1,1,1
1349,-3.0,-5.0,62.0,1644844368.9375,P08,D02,1,1,1
1350,-3.0,-5.0,62.0,1644844368.96875,P08,D02,1,1,1
1351,-3.0,-5.0,62.0,1644844369.0,P08,D02,1,1,1
1352,-3.0,-5.0,62.0,1644844369.03125,P08,D02,1,1,1
1353,-3.0,-5.0,62.0,1644844369.0625,P08,D02,1,1,1
1354,-3.0,-5.0,62.0,1644844369.09375,P08,D02,1,1,1
1355,-3.0,-5.0,62.0,1644844369.125,P08,D02,1,1,1
1356,-3.0,-5.0,62.0,1644844369.15625,P08,D02,1,1,1
1357,-3.0,-5.0,62.0,1644844369.1875,P08,D02,1,1,1
1358,-3.0,-5.0,62.0,1644844369.21875,P08,D02,1,1,1
1359,-3.0,-5.0,62.0,1644844369.25,P08,D02,1,1,1
1360,-3.0,-5.0,62.0,1644844369.28125,P08,D02,1,1,1
1361,-3.0,-5.0,62.0,1644844369.3125,P08,D02,1,1,1
1362,-3.0,-5.0,62.0,1644844369.34375,P08,D02,1,1,1
1363,-3.0,-5.0,62.0,1644844369.375,P08,D02,1,1,1
1364,-4.0,-5.0,62.0,1644844369.40625,P08,D02,1,1,1
1365,-4.0,-5.0,62.0,1644844369.4375,P08,D02,1,1,1
1366,-3.0,-5.0,62.0,1644844369.46875,P08,D02,1,1,1
1367,-3.0,-5.0,62.0,1644844369.5,P08,D02,1,1,1
1368,-3.0,-5.0,62.0,1644844369.53125,P08,D02,1,1,1
1369,-3.0,-5.0,62.0,1644844369.5625,P08,D02,1,1,1
1370,-3.0,-5.0,62.0,1644844369.59375,P08,D02,1,1,1
1371,-3.0,-5.0,62.0,1644844369.625,P08,D02,1,1,1
1372,-3.0,-5.0,62.0,1644844369.65625,P08,D02,1,1,1
1373,-3.0,-5.0,62.0,1644844369.6875,P08,D02,1,1,1
1374,-3.0,-5.0,62.0,1644844369.71875,P08,D02,1,1,1
1375,-3.0,-5.0,62.0,1644844369.75,P08,D02,1,1,1
1376,-3.0,-5.0,62.0,1644844369.78125,P08,D02,1,1,1
1377,-3.0,-5.0,62.0,1644844369.8125,P08,D02,1,1,1
1378,-3.0,-5.0,62.0,1644844369.84375,P08,D02,1,1,1
1379,-3.0,-5.0,62.0,1644844369.875,P08,D02,1,1,1
1380,-3.0,-5.0,62.0,1644844369.90625,P08,D02,1,1,1
1381,-3.0,-5.0,62.0,1644844369.9375,P08,D02,1,1,1
1382,-3.0,-5.0,62.0,1644844369.96875,P08,D02,1,1,1
1383,-4.0,-5.0,62.0,1644844370.0,P08,D02,1,1,1
1384,-3.0,-5.0,62.0,1644844370.03125,P08,D02,1,1,1
1385,-3.0,-5.0,62.0,1644844370.0625,P08,D02,1,1,1
1386,-3.0,-5.0,62.0,1644844370.09375,P08,D02,1,1,1
1387,-3.0,-5.0,62.0,1644844370.125,P08,D02,1,1,1
1388,-3.0,-5.0,62.0,1644844370.15625,P08,D02,1,1,1
1389,-3.0,-5.0,62.0,1644844370.1875,P08,D02,1,1,1
1390,-3.0,-5.0,62.0,1644844370.21875,P08,D02,1,1,1
1391,-3.0,-5.0,62.0,1644844370.25,P08,D02,1,1,1
1392,-4.0,-5.0,62.0,1644844370.28125,P08,D02,1,1,1
1393,-3.0,-5.0,62.0,1644844370.3125,P08,D02,1,1,1
1394,-3.0,-5.0,62.0,1644844370.34375,P08,D02,1,1,1
1395,-3.0,-5.0,62.0,1644844370.375,P08,D02,1,1,1
1396,-3.0,-5.0,62.0,1644844370.40625,P08,D02,1,1,1
1397,-3.0,-5.0,62.0,1644844370.4375,P08,D02,1,1,1
1398,-3.0,-5.0,62.0,1644844370.46875,P08,D02,1,1,1
1399,-3.0,-5.0,62.0,1644844370.5,P08,D02,1,1,1
1400,-3.0,-5.0,62.0,1644844370.53125,P08,D02,1,1,1
1401,-3.0,-5.0,62.0,1644844370.5625,P08,D02,1,1,1
1402,-3.0,-5.0,62.0,1644844370.59375,P08,D02,1,1,1
1403,-3.0,-5.0,62.0,1644844370.625,P08,D02,1,1,1
1404,-3.0,-5.0,62.0,1644844370.65625,P08,D02,1,1,1
1405,-3.0,-5.0,62.0,1644844370.6875,P08,D02,1,1,1
1406,-3.0,-5.0,62.0,1644844370.71875,P08,D02,1,1,1
1407,-3.0,-5.0,62.0,1644844370.75,P08,D02,1,1,1
1408,-3.0,-5.0,62.0,1644844370.78125,P08,D02,1,1,1
1409,-3.0,-5.0,62.0,1644844370.8125,P08,D02,1,1,1
1410,-3.0,-5.0,61.0,1644844370.84375,P08,D02,1,1,1
1411,-3.0,-5.0,62.0,1644844370.875,P08,D02,1,1,1
1412,-3.0,-5.0,62.0,1644844370.90625,P08,D02,1,1,1
1413,-3.0,-5.0,62.0,1644844370.9375,P08,D02,1,1,1
1414,-3.0,-5.0,62.0,1644844370.96875,P08,D02,1,1,1
1415,-3.0,-5.0,62.0,1644844371.0,P08,D02,1,1,1
1416,-3.0,-5.0,62.0,1644844371.03125,P08,D02,1,1,1
1417,-3.0,-5.0,62.0,1644844371.0625,P08,D02,1,1,1
1418,-3.0,-5.0,62.0,1644844371.09375,P08,D02,1,1,1
1419,-3.0,-5.0,62.0,1644844371.125,P08,D02,1,1,1
1420,-3.0,-5.0,62.0,1644844371.15625,P08,D02,1,1,1
1421,-3.0,-5.0,62.0,1644844371.1875,P08,D02,1,1,1
1422,-3.0,-5.0,62.0,1644844371.21875,P08,D02,1,1,1
1423,-3.0,-5.0,62.0,1644844371.25,P08,D02,1,1,1
1424,-3.0,-5.0,62.0,1644844371.28125,P08,D02,1,1,1
1425,-3.0,-5.0,62.0,1644844371.3125,P08,D02,1,1,1
1426,-3.0,-5.0,62.0,1644844371.34375,P08,D02,1,1,1
1427,-3.0,-5.0,62.0,1644844371.375,P08,D02,1,1,1
1428,-3.0,-5.0,62.0,1644844371.40625,P08,D02,1,1,1
1429,-3.0,-5.0,62.0,1644844371.4375,P08,D02,1,1,1
1430,-3.0,-5.0,62.0,1644844371.46875,P08,D02,1,1,1
1431,-3.0,-5.0,62.0,1644844371.5,P08,D02,1,1,1
1432,-3.0,-5.0,62.0,1644844371.53125,P08,D02,1,1,1
1433,-3.0,-5.0,62.0,1644844371.5625,P08,D02,1,1,1
1434,-3.0,-5.0,62.0,1644844371.59375,P08,D02,1,1,1
1435,-3.0,-5.0,62.0,1644844371.625,P08,D02,1,1,1
1436,-3.0,-5.0,62.0,1644844371.65625,P08,D02,1,1,1
1437,-3.0,-5.0,62.0,1644844371.6875,P08,D02,1,1,1
1438,-3.0,-5.0,62.0,1644844371.71875,P08,D02,1,1,1
1439,-3.0,-5.0,62.0,1644844371.75,P08,D02,1,1,1
1440,-3.0,-5.0,62.0,1644844371.78125,P08,D02,1,1,1
1441,-3.0,-5.0,62.0,1644844371.8125,P08,D02,1,1,1
1442,-3.0,-5.0,62.0,1644844371.84375,P08,D02,1,1,1
1443,-3.0,-5.0,62.0,1644844371.875,P08,D02,1,1,1
1444,-3.0,-5.0,62.0,1644844371.90625,P08,D02,1,1,1
1445,-3.0,-5.0,62.0,1644844371.9375,P08,D02,1,1,1
1446,-3.0,-5.0,62.0,1644844371.96875,P08,D02,1,1,1
1447,-3.0,-5.0,62.0,1644844372.0,P08,D02,1,1,1
1448,-3.0,-5.0,62.0,1644844372.03125,P08,D02,1,1,1
1449,-3.0,-5.0,62.0,1644844372.0625,P08,D02,1,1,1
1450,-3.0,-5.0,62.0,1644844372.09375,P08,D02,1,1,1
1451,-3.0,-5.0,62.0,1644844372.125,P08,D02,1,1,1
1452,-3.0,-5.0,62.0,1644844372.15625,P08,D02,1,1,1
1453,-3.0,-5.0,62.0,1644844372.1875,P08,D02,1,1,1
1454,-3.0,-5.0,62.0,1644844372.21875,P08,D02,1,1,1
1455,-3.0,-5.0,62.0,1644844372.25,P08,D02,1,1,1
1456,-3.0,-5.0,62.0,1644844372.28125,P08,D02,1,1,1
1457,-3.0,-5.0,62.0,1644844372.3125,P08,D02,1,1,1
1458,-3.0,-5.0,62.0,1644844372.34375,P08,D02,1,1,1
1459,-3.0,-5.0,62.0,1644844372.375,P08,D02,1,1,1
1460,-3.0,-5.0,62.0,1644844372.40625,P08,D02,1,1,1
1461,-3.0,-5.0,62.0,1644844372.4375,P08,D02,1,1,1
1462,-3.0,-5.0,62.0,1644844372.46875,P08,D02,1,1,1
1463,-3.0,-5.0,62.0,1644844372.5,P08,D02,1,1,1
1464,-3.0,-5.0,62.0,1644844372.53125,P08,D02,1,1,1
1465,-3.0,-5.0,62.0,1644844372.5625,P08,D02,1,1,1
1466,-3.0,-5.0,62.0,1644844372.59375,P08,D02,1,1,1
1467,-3.0,-5.0,62.0,1644844372.625,P08,D02,1,1,1
1468,-3.0,-5.0,62.0,1644844372.65625,P08,D02,1,1,1
1469,-4.0,-5.0,62.0,1644844372.6875,P08,D02,1,1,1
1470,-3.0,-5.0,62.0,1644844372.71875,P08,D02,1,1,1
1471,-3.0,-5.0,62.0,1644844372.75,P08,D02,1,1,1
1472,-4.0,-5.0,62.0,1644844372.78125,P08,D02,1,1,1
1473,-3.0,-5.0,62.0,1644844372.8125,P08,D02,1,1,1
1474,-3.0,-5.0,62.0,1644844372.84375,P08,D02,1,1,1
1475,-3.0,-5.0,62.0,1644844372.875,P08,D02,1,1,1
1476,-4.0,-5.0,62.0,1644844372.90625,P08,D02,1,1,1
1477,-4.0,-5.0,62.0,1644844372.9375,P08,D02,1,1,1
1478,-3.0,-5.0,62.0,1644844372.96875,P08,D02,1,1,1
1479,-3.0,-5.0,62.0,1644844373.0,P08,D02,1,1,1
1480,-3.0,-5.0,62.0,1644844373.03125,P08,D02,1,1,1
1481,-3.0,-5.0,62.0,1644844373.0625,P08,D02,1,1,1
1482,-4.0,-5.0,62.0,1644844373.09375,P08,D02,1,1,1
1483,-3.0,-5.0,62.0,1644844373.125,P08,D02,1,1,1
1484,-3.0,-5.0,62.0,1644844373.15625,P08,D02,1,1,1
1485,-3.0,-5.0,62.0,1644844373.1875,P08,D02,1,1,1
1486,-3.0,-5.0,62.0,1644844373.21875,P08,D02,1,1,1
1487,-3.0,-5.0,62.0,1644844373.25,P08,D02,1,1,1
1488,-3.0,-5.0,62.0,1644844373.28125,P08,D02,1,1,1
1489,-3.0,-5.0,62.0,1644844373.3125,P08,D02,1,1,1
1490,-3.0,-5.0,62.0,1644844373.34375,P08,D02,1,1,1
1491,-3.0,-5.0,62.0,1644844373.375,P08,D02,1,1,1
1492,-3.0,-5.0,62.0,1644844373.40625,P08,D02,1,1,1
1493,-3.0,-5.0,62.0,1644844373.4375,P08,D02,1,1,1
1494,-4.0,-5.0,62.0,1644844373.46875,P08,D02,1,1,1
1495,-3.0,-5.0,62.0,1644844373.5,P08,D02,1,1,1
1496,-3.0,-5.0,62.0,1644844373.53125,P08,D02,1,1,1
1497,-3.0,-5.0,62.0,1644844373.5625,P08,D02,1,1,1
1498,-3.0,-5.0,62.0,1644844373.59375,P08,D02,1,1,1
1499,-3.0,-5.0,62.0,1644844373.625,P08,D02,1,1,1
1500,-3.0,-5.0,62.0,1644844373.65625,P08,D02,1,1,1
1501,-3.0,-5.0,62.0,1644844373.6875,P08,D02,1,1,1
1502,-3.0,-6.0,62.0,1644844373.71875,P08,D02,1,1,1
1503,-4.0,-5.0,62.0,1644844373.75,P08,D02,1,1,1
1504,-3.0,-5.0,62.0,1644844373.78125,P08,D02,1,1,1
1505,-3.0,-5.0,62.0,1644844373.8125,P08,D02,1,1,1
1506,-4.0,-5.0,62.0,1644844373.84375,P08,D02,1,1,1
1507,-3.0,-5.0,62.0,1644844373.875,P08,D02,1,1,1
1508,-3.0,-5.0,62.0,1644844373.90625,P08,D02,1,1,1
1509,-3.0,-5.0,62.0,1644844373.9375,P08,D02,1,1,1
1510,-3.0,-5.0,62.0,1644844373.96875,P08,D02,1,1,1
1511,-3.0,-5.0,62.0,1644844374.0,P08,D02,1,1,1
1512,-3.0,-5.0,62.0,1644844374.03125,P08,D02,1,1,1
1513,-3.0,-5.0,62.0,1644844374.0625,P08,D02,1,1,1
1514,-3.0,-5.0,62.0,1644844374.09375,P08,D02,1,1,1
1515,-3.0,-5.0,62.0,1644844374.125,P08,D02,1,1,1
1516,-3.0,-5.0,62.0,1644844374.15625,P08,D02,1,1,1
1517,-3.0,-5.0,62.0,1644844374.1875,P08,D02,1,1,1
1518,-3.0,-5.0,62.0,1644844374.21875,P08,D02,1,1,1
1519,-3.0,-5.0,62.0,1644844374.25,P08,D02,1,1,1
1520,-3.0,-5.0,62.0,1644844374.28125,P08,D02,1,1,1
1521,-3.0,-5.0,62.0,1644844374.3125,P08,D02,1,1,1
1522,-3.0,-5.0,62.0,1644844374.34375,P08,D02,1,1,1
1523,-3.0,-5.0,62.0,1644844374.375,P08,D02,1,1,1
1524,-3.0,-5.0,62.0,1644844374.40625,P08,D02,1,1,1
1525,-3.0,-5.0,62.0,1644844374.4375,P08,D02,1,1,1
1526,-3.0,-5.0,62.0,1644844374.46875,P08,D02,1,1,1
1527,-3.0,-5.0,62.0,1644844374.5,P08,D02,1,1,1
1528,-3.0,-5.0,62.0,1644844374.53125,P08,D02,1,1,1
1529,-3.0,-5.0,62.0,1644844374.5625,P08,D02,1,1,1
1530,-4.0,-5.0,62.0,1644844374.59375,P08,D02,1,1,1
1531,-3.0,-5.0,62.0,1644844374.625,P08,D02,1,1,1
1532,-3.0,-5.0,62.0,1644844374.65625,P08,D02,1,1,1
1533,-3.0,-5.0,62.0,1644844374.6875,P08,D02,1,1,1
1534,-3.0,-5.0,62.0,1644844374.71875,P08,D02,1,1,1
1535,-3.0,-5.0,62.0,1644844374.75,P08,D02,1,1,1
1536,-3.0,-5.0,62.0,1644844374.78125,P08,D02,1,1,1
1537,-3.0,-5.0,62.0,1644844374.8125,P08,D02,1,1,1
1538,-4.0,-5.0,62.0,1644844374.84375,P08,D02,1,1,1
1539,-3.0,-5.0,62.0,1644844374.875,P08,D02,1,1,1
1540,-3.0,-5.0,62.0,1644844374.90625,P08,D02,1,1,1
1541,-3.0,-5.0,62.0,1644844374.9375,P08,D02,1,1,1
1542,-3.0,-5.0,62.0,1644844374.96875,P08,D02,1,1,1
1543,-3.0,-5.0,62.0,1644844375.0,P08,D02,1,1,1
1544,-3.0,-5.0,62.0,1644844375.03125,P08,D02,1,1,1
1545,-3.0,-5.0,62.0,1644844375.0625,P08,D02,1,1,1
1546,-3.0,-5.0,62.0,1644844375.09375,P08,D02,1,1,1
1547,-3.0,-5.0,62.0,1644844375.125,P08,D02,1,1,1
1548,-3.0,-5.0,62.0,1644844375.15625,P08,D02,1,1,1
1549,-3.0,-5.0,62.0,1644844375.1875,P08,D02,1,1,1
1550,-3.0,-5.0,62.0,1644844375.21875,P08,D02,1,1,1
1551,-3.0,-5.0,62.0,1644844375.25,P08,D02,1,1,1
1552,-3.0,-5.0,62.0,1644844375.28125,P08,D02,1,1,1
1553,-3.0,-5.0,62.0,1644844375.3125,P08,D02,1,1,1
1554,-3.0,-5.0,62.0,1644844375.34375,P08,D02,1,1,1
1555,-3.0,-5.0,62.0,1644844375.375,P08,D02,1,1,1
1556,-4.0,-5.0,62.0,1644844375.40625,P08,D02,1,1,1
1557,-3.0,-5.0,62.0,1644844375.4375,P08,D02,1,1,1
1558,-3.0,-5.0,62.0,1644844375.46875,P08,D02,1,1,1
1559,-3.0,-5.0,62.0,1644844375.5,P08,D02,1,1,1
1560,-3.0,-5.0,62.0,1644844375.53125,P08,D02,1,1,1
1561,-3.0,-5.0,62.0,1644844375.5625,P08,D02,1,1,1
1562,-3.0,-5.0,62.0,1644844375.59375,P08,D02,1,1,1
1563,-3.0,-5.0,62.0,1644844375.625,P08,D02,1,1,1
1564,-3.0,-5.0,62.0,1644844375.65625,P08,D02,1,1,1
1565,-4.0,-5.0,62.0,1644844375.6875,P08,D02,1,1,1
1566,-3.0,-5.0,62.0,1644844375.71875,P08,D02,1,1,1
1567,-3.0,-5.0,62.0,1644844375.75,P08,D02,1,1,1
1568,-3.0,-5.0,62.0,1644844375.78125,P08,D02,1,1,1
1569,-3.0,-5.0,62.0,1644844375.8125,P08,D02,1,1,1
1570,-3.0,-5.0,62.0,1644844375.84375,P08,D02,1,1,1
1571,-3.0,-5.0,62.0,1644844375.875,P08,D02,1,1,1
1572,-3.0,-5.0,62.0,1644844375.90625,P08,D02,1,1,1
1573,-3.0,-5.0,62.0,1644844375.9375,P08,D02,1,1,1
1574,-3.0,-5.0,62.0,1644844375.96875,P08,D02,1,1,1
1575,-3.0,-5.0,62.0,1644844376.0,P08,D02,1,1,1
1576,-3.0,-5.0,62.0,1644844376.03125,P08,D02,1,1,1
1577,-3.0,-5.0,62.0,1644844376.0625,P08,D02,1,1,1
1578,-3.0,-5.0,62.0,1644844376.09375,P08,D02,1,1,1
1579,-3.0,-5.0,62.0,1644844376.125,P08,D02,1,1,1
1580,-3.0,-5.0,62.0,1644844376.15625,P08,D02,1,1,1
1581,-3.0,-5.0,62.0,1644844376.1875,P08,D02,1,1,1
1582,-3.0,-5.0,62.0,1644844376.21875,P08,D02,1,1,1
1583,-3.0,-5.0,62.0,1644844376.25,P08,D02,1,1,1
1584,-3.0,-5.0,62.0,1644844376.28125,P08,D02,1,1,1
1585,-3.0,-5.0,62.0,1644844376.3125,P08,D02,1,1,1
1586,-3.0,-5.0,62.0,1644844376.34375,P08,D02,1,1,1
1587,-3.0,-5.0,62.0,1644844376.375,P08,D02,1,1,1
1588,-3.0,-5.0,62.0,1644844376.40625,P08,D02,1,1,1
1589,-3.0,-5.0,62.0,1644844376.4375,P08,D02,1,1,1
1590,-4.0,-5.0,62.0,1644844376.46875,P08,D02,1,1,1
1591,-3.0,-5.0,62.0,1644844376.5,P08,D02,1,1,1
1592,-3.0,-5.0,62.0,1644844376.53125,P08,D02,1,1,1
1593,-3.0,-5.0,62.0,1644844376.5625,P08,D02,1,1,1
1594,-3.0,-5.0,62.0,1644844376.59375,P08,D02,1,1,1
1595,-3.0,-5.0,62.0,1644844376.625,P08,D02,1,1,1
1596,-3.0,-5.0,62.0,1644844376.65625,P08,D02,1,1,1
1597,-4.0,-5.0,62.0,1644844376.6875,P08,D02,1,1,1
1598,-3.0,-5.0,62.0,1644844376.71875,P08,D02,1,1,1
1599,-3.0,-5.0,62.0,1644844376.75,P08,D02,1,1,1
1600,-3.0,-5.0,62.0,1644844376.78125,P08,D02,1,1,1
1601,-3.0,-5.0,62.0,1644844376.8125,P08,D02,1,1,1
1602,-3.0,-5.0,62.0,1644844376.84375,P08,D02,1,1,1
1603,-3.0,-5.0,62.0,1644844376.875,P08,D02,1,1,1
1604,-3.0,-5.0,62.0,1644844376.90625,P08,D02,1,1,1
1605,-3.0,-5.0,62.0,1644844376.9375,P08,D02,1,1,1
1606,-3.0,-5.0,62.0,1644844376.96875,P08,D02,1,1,1
1607,-3.0,-5.0,62.0,1644844377.0,P08,D02,1,1,1
1608,-3.0,-5.0,62.0,1644844377.03125,P08,D02,1,1,1
1609,-3.0,-5.0,62.0,1644844377.0625,P08,D02,1,1,1
1610,-3.0,-5.0,62.0,1644844377.09375,P08,D02,1,1,1
1611,-3.0,-5.0,62.0,1644844377.125,P08,D02,1,1,1
1612,-3.0,-5.0,62.0,1644844377.15625,P08,D02,1,1,1
1613,-3.0,-5.0,62.0,1644844377.1875,P08,D02,1,1,1
1614,-3.0,-5.0,62.0,1644844377.21875,P08,D02,1,1,1
1615,-3.0,-5.0,62.0,1644844377.25,P08,D02,1,1,1
1616,-3.0,-5.0,62.0,1644844377.28125,P08,D02,1,1,1
1617,-3.0,-5.0,62.0,1644844377.3125,P08,D02,1,1,1
1618,-4.0,-5.0,62.0,1644844377.34375,P08,D02,1,1,1
1619,-3.0,-5.0,62.0,1644844377.375,P08,D02,1,1,1
1620,-3.0,-5.0,62.0,1644844377.40625,P08,D02,1,1,1
1621,-3.0,-5.0,62.0,1644844377.4375,P08,D02,1,1,1
1622,-4.0,-5.0,62.0,1644844377.46875,P08,D02,1,1,1
1623,-3.0,-5.0,62.0,1644844377.5,P08,D02,1,1,1
1624,-3.0,-5.0,62.0,1644844377.53125,P08,D02,1,1,1
1625,-3.0,-5.0,62.0,1644844377.5625,P08,D02,1,1,1
1626,-3.0,-5.0,62.0,1644844377.59375,P08,D02,1,1,1
1627,-3.0,-5.0,62.0,1644844377.625,P08,D02,1,1,1
1628,-3.0,-5.0,62.0,1644844377.65625,P08,D02,1,1,1
1629,-3.0,-5.0,62.0,1644844377.6875,P08,D02,1,1,1
1630,-3.0,-5.0,62.0,1644844377.71875,P08,D02,1,1,1
1631,-3.0,-5.0,62.0,1644844377.75,P08,D02,1,1,1
1632,-3.0,-5.0,62.0,1644844377.78125,P08,D02,1,1,1
1633,-3.0,-5.0,62.0,1644844377.8125,P08,D02,1,1,1
1634,-3.0,-5.0,62.0,1644844377.84375,P08,D02,1,1,1
1635,-4.0,-5.0,62.0,1644844377.875,P08,D02,1,1,1
1636,-3.0,-5.0,62.0,1644844377.90625,P08,D02,1,1,1
1637,-3.0,-5.0,62.0,1644844377.9375,P08,D02,1,1,1
1638,-3.0,-5.0,62.0,1644844377.96875,P08,D02,1,1,1
1639,-3.0,-5.0,62.0,1644844378.0,P08,D02,1,1,1
1640,-3.0,-5.0,62.0,1644844378.03125,P08,D02,1,1,1
1641,-4.0,-5.0,62.0,1644844378.0625,P08,D02,1,1,1
1642,-3.0,-5.0,62.0,1644844378.09375,P08,D02,1,1,1
1643,-3.0,-5.0,62.0,1644844378.125,P08,D02,1,1,1
1644,-3.0,-5.0,62.0,1644844378.15625,P08,D02,1,1,1
1645,-3.0,-5.0,62.0,1644844378.1875,P08,D02,1,1,1
1646,-3.0,-5.0,62.0,1644844378.21875,P08,D02,1,1,1
1647,-4.0,-5.0,62.0,1644844378.25,P08,D02,1,1,1
1648,-3.0,-5.0,62.0,1644844378.28125,P08,D02,1,1,1
1649,-3.0,-5.0,62.0,1644844378.3125,P08,D02,1,1,1
1650,-3.0,-5.0,62.0,1644844378.34375,P08,D02,1,1,1
1651,-3.0,-5.0,62.0,1644844378.375,P08,D02,1,1,1
1652,-3.0,-5.0,62.0,1644844378.40625,P08,D02,1,1,1
1653,-3.0,-5.0,62.0,1644844378.4375,P08,D02,1,1,1
1654,-3.0,-5.0,62.0,1644844378.46875,P08,D02,1,1,1
1655,-3.0,-5.0,62.0,1644844378.5,P08,D02,1,1,1
1656,-3.0,-5.0,62.0,1644844378.53125,P08,D02,1,1,1
1657,-3.0,-5.0,62.0,1644844378.5625,P08,D02,1,1,1
1658,-3.0,-5.0,62.0,1644844378.59375,P08,D02,1,1,1
1659,-3.0,-5.0,62.0,1644844378.625,P08,D02,1,1,1
1660,-3.0,-5.0,62.0,1644844378.65625,P08,D02,1,1,1
1661,-3.0,-5.0,62.0,1644844378.6875,P08,D02,1,1,1
1662,-3.0,-5.0,62.0,1644844378.71875,P08,D02,1,1,1
1663,-3.0,-5.0,62.0,1644844378.75,P08,D02,1,1,1
1664,-3.0,-5.0,62.0,1644844378.78125,P08,D02,1,1,1
1665,-3.0,-5.0,62.0,1644844378.8125,P08,D02,1,1,1
1666,-3.0,-5.0,62.0,1644844378.84375,P08,D02,1,1,1
1667,-3.0,-5.0,62.0,1644844378.875,P08,D02,1,1,1
1668,-3.0,-5.0,62.0,1644844378.90625,P08,D02,1,1,1
1669,-3.0,-5.0,62.0,1644844378.9375,P08,D02,1,1,1
1670,-3.0,-5.0,62.0,1644844378.96875,P08,D02,1,1,1
1671,-3.0,-5.0,62.0,1644844379.0,P08,D02,1,1,1
1672,-3.0,-5.0,62.0,1644844379.03125,P08,D02,1,1,1
1673,-3.0,-5.0,62.0,1644844379.0625,P08,D02,1,1,1
1674,-3.0,-5.0,62.0,1644844379.09375,P08,D02,1,1,1
1675,-4.0,-5.0,62.0,1644844379.125,P08,D02,1,1,1
1676,-3.0,-5.0,62.0,1644844379.15625,P08,D02,1,1,1
1677,-3.0,-5.0,62.0,1644844379.1875,P08,D02,1,1,1
1678,-3.0,-5.0,62.0,1644844379.21875,P08,D02,1,1,1
1679,-4.0,-5.0,62.0,1644844379.25,P08,D02,1,1,1
1680,-3.0,-5.0,62.0,1644844379.28125,P08,D02,1,1,1
1681,-3.0,-5.0,62.0,1644844379.3125,P08,D02,1,1,1
1682,-3.0,-5.0,62.0,1644844379.34375,P08,D02,1,1,1
1683,-3.0,-5.0,62.0,1644844379.375,P08,D02,1,1,1
1684,-3.0,-5.0,62.0,1644844379.40625,P08,D02,1,1,1
1685,-3.0,-5.0,62.0,1644844379.4375,P08,D02,1,1,1
1686,-3.0,-5.0,62.0,1644844379.46875,P08,D02,1,1,1
1687,-3.0,-5.0,62.0,1644844379.5,P08,D02,1,1,1
1688,-3.0,-5.0,62.0,1644844379.53125,P08,D02,1,1,1
1689,-3.0,-5.0,62.0,1644844379.5625,P08,D02,1,1,1
1690,-3.0,-5.0,62.0,1644844379.59375,P08,D02,1,1,1
1691,-3.0,-5.0,62.0,1644844379.625,P08,D02,1,1,1
1692,-3.0,-5.0,62.0,1644844379.65625,P08,D02,1,1,1
1693,-3.0,-5.0,62.0,1644844379.6875,P08,D02,1,1,1
1694,-3.0,-5.0,62.0,1644844379.71875,P08,D02,1,1,1
1695,-3.0,-5.0,62.0,1644844379.75,P08,D02,1,1,1
1696,-3.0,-5.0,62.0,1644844379.78125,P08,D02,1,1,1
1697,-3.0,-5.0,62.0,1644844379.8125,P08,D02,1,1,1
1698,-4.0,-5.0,62.0,1644844379.84375,P08,D02,1,1,1
1699,-3.0,-5.0,62.0,1644844379.875,P08,D02,1,1,1
1700,-3.0,-5.0,62.0,1644844379.90625,P08,D02,1,1,1
1701,-3.0,-5.0,62.0,1644844379.9375,P08,D02,1,1,1
1702,-3.0,-5.0,62.0,1644844379.96875,P08,D02,1,1,1
1703,-3.0,-5.0,62.0,1644844380.0,P08,D02,1,1,1
1704,-3.0,-5.0,62.0,1644844380.03125,P08,D02,1,1,1
1705,-3.0,-5.0,62.0,1644844380.0625,P08,D02,1,1,1
1706,-3.0,-5.0,62.0,1644844380.09375,P08,D02,1,1,1
1707,-3.0,-5.0,62.0,1644844380.125,P08,D02,1,1,1
1708,-3.0,-5.0,62.0,1644844380.15625,P08,D02,1,1,1
1709,-3.0,-5.0,62.0,1644844380.1875,P08,D02,1,1,1
1710,-3.0,-5.0,62.0,1644844380.21875,P08,D02,1,1,1
1711,-3.0,-5.0,62.0,1644844380.25,P08,D02,1,1,1
1712,-3.0,-5.0,62.0,1644844380.28125,P08,D02,1,1,1
1713,-3.0,-5.0,62.0,1644844380.3125,P08,D02,1,1,1
1714,-3.0,-5.0,62.0,1644844380.34375,P08,D02,1,1,1
1715,-3.0,-5.0,62.0,1644844380.375,P08,D02,1,1,1
1716,-4.0,-5.0,62.0,1644844380.40625,P08,D02,1,1,1
1717,-3.0,-5.0,62.0,1644844380.4375,P08,D02,1,1,1
1718,-3.0,-5.0,62.0,1644844380.46875,P08,D02,1,1,1
1719,-3.0,-5.0,62.0,1644844380.5,P08,D02,1,1,1
1720,-3.0,-5.0,62.0,1644844380.53125,P08,D02,1,1,1
1721,-3.0,-5.0,62.0,1644844380.5625,P08,D02,1,1,1
1722,-3.0,-5.0,62.0,1644844380.59375,P08,D02,1,1,1
1723,-3.0,-5.0,62.0,1644844380.625,P08,D02,1,1,1
1724,-3.0,-5.0,62.0,1644844380.65625,P08,D02,1,1,1
1725,-3.0,-5.0,62.0,1644844380.6875,P08,D02,1,1,1
1726,-4.0,-5.0,62.0,1644844380.71875,P08,D02,1,1,1
1727,-3.0,-5.0,62.0,1644844380.75,P08,D02,1,1,1
1728,-3.0,-5.0,62.0,1644844380.78125,P08,D02,1,1,1
1729,-3.0,-5.0,62.0,1644844380.8125,P08,D02,1,1,1
1730,-3.0,-5.0,62.0,1644844380.84375,P08,D02,1,1,1
1731,-3.0,-5.0,62.0,1644844380.875,P08,D02,1,1,1
1732,-3.0,-5.0,62.0,1644844380.90625,P08,D02,1,1,1
1733,-3.0,-5.0,62.0,1644844380.9375,P08,D02,1,1,1
1734,-3.0,-5.0,62.0,1644844380.96875,P08,D02,1,1,1
1735,-4.0,-5.0,62.0,1644844381.0,P08,D02,1,1,1
1736,-3.0,-5.0,62.0,1644844381.03125,P08,D02,1,1,1
1737,-3.0,-5.0,62.0,1644844381.0625,P08,D02,1,1,1
1738,-3.0,-5.0,62.0,1644844381.09375,P08,D02,1,1,1
1739,-3.0,-5.0,62.0,1644844381.125,P08,D02,1,1,1
1740,-3.0,-5.0,62.0,1644844381.15625,P08,D02,1,1,1
1741,-3.0,-5.0,62.0,1644844381.1875,P08,D02,1,1,1
1742,-3.0,-5.0,62.0,1644844381.21875,P08,D02,1,1,1
1743,-3.0,-5.0,62.0,1644844381.25,P08,D02,1,1,1
1744,-3.0,-5.0,62.0,1644844381.28125,P08,D02,1,1,1
1745,-3.0,-5.0,62.0,1644844381.3125,P08,D02,1,1,1
1746,-3.0,-5.0,63.0,1644844381.34375,P08,D02,1,1,1
1747,-3.0,-5.0,62.0,1644844381.375,P08,D02,1,1,1
1748,-3.0,-5.0,62.0,1644844381.40625,P08,D02,1,1,1
1749,-3.0,-5.0,62.0,1644844381.4375,P08,D02,1,1,1
1750,-3.0,-5.0,62.0,1644844381.46875,P08,D02,1,1,1
1751,-3.0,-5.0,62.0,1644844381.5,P08,D02,1,1,1
1752,-3.0,-5.0,62.0,1644844381.53125,P08,D02,1,1,1
1753,-3.0,-5.0,62.0,1644844381.5625,P08,D02,1,1,1
1754,-4.0,-5.0,62.0,1644844381.59375,P08,D02,1,1,1
1755,-3.0,-5.0,62.0,1644844381.625,P08,D02,1,1,1
1756,-3.0,-5.0,62.0,1644844381.65625,P08,D02,1,1,1
1757,-3.0,-5.0,62.0,1644844381.6875,P08,D02,1,1,1
1758,-3.0,-5.0,62.0,1644844381.71875,P08,D02,1,1,1
1759,-4.0,-5.0,62.0,1644844381.75,P08,D02,1,1,1
1760,-3.0,-5.0,62.0,1644844381.78125,P08,D02,1,1,1
1761,-3.0,-5.0,62.0,1644844381.8125,P08,D02,1,1,1
1762,-3.0,-5.0,62.0,1644844381.84375,P08,D02,1,1,1
1763,-3.0,-5.0,62.0,1644844381.875,P08,D02,1,1,1
1764,-4.0,-5.0,62.0,1644844381.90625,P08,D02,1,1,1
1765,-3.0,-5.0,62.0,1644844381.9375,P08,D02,1,1,1
1766,-3.0,-5.0,62.0,1644844381.96875,P08,D02,1,1,1
1767,-3.0,-5.0,62.0,1644844382.0,P08,D02,1,1,1
1768,-3.0,-5.0,62.0,1644844382.03125,P08,D02,1,1,1
1769,-4.0,-5.0,62.0,1644844382.0625,P08,D02,1,1,1
1770,-3.0,-5.0,62.0,1644844382.09375,P08,D02,1,1,1
1771,-3.0,-5.0,62.0,1644844382.125,P08,D02,1,1,1
1772,-3.0,-5.0,62.0,1644844382.15625,P08,D02,1,1,1
1773,-3.0,-5.0,62.0,1644844382.1875,P08,D02,1,1,1
1774,-4.0,-5.0,62.0,1644844382.21875,P08,D02,1,1,1
1775,-3.0,-5.0,62.0,1644844382.25,P08,D02,1,1,1
1776,-3.0,-5.0,62.0,1644844382.28125,P08,D02,1,1,1
1777,-3.0,-5.0,62.0,1644844382.3125,P08,D02,1,1,1
1778,-3.0,-5.0,62.0,1644844382.34375,P08,D02,1,1,1
1779,-3.0,-5.0,62.0,1644844382.375,P08,D02,1,1,1
1780,-3.0,-5.0,62.0,1644844382.40625,P08,D02,1,1,1
1781,-3.0,-5.0,62.0,1644844382.4375,P08,D02,1,1,1
1782,-3.0,-5.0,62.0,1644844382.46875,P08,D02,1,1,1
1783,-4.0,-5.0,62.0,1644844382.5,P08,D02,1,1,1
1784,-3.0,-5.0,62.0,1644844382.53125,P08,D02,1,1,1
1785,-3.0,-5.0,62.0,1644844382.5625,P08,D02,1,1,1
1786,-4.0,-5.0,62.0,1644844382.59375,P08,D02,1,1,1
1787,-3.0,-5.0,62.0,1644844382.625,P08,D02,1,1,1
1788,-3.0,-5.0,62.0,1644844382.65625,P08,D02,1,1,1
1789,-3.0,-5.0,62.0,1644844382.6875,P08,D02,1,1,1
1790,-3.0,-5.0,62.0,1644844382.71875,P08,D02,1,1,1
1791,-3.0,-5.0,62.0,1644844382.75,P08,D02,1,1,1
1792,-3.0,-5.0,62.0,1644844382.78125,P08,D02,1,1,1
1793,-3.0,-5.0,62.0,1644844382.8125,P08,D02,1,1,1
1794,-3.0,-5.0,62.0,1644844382.84375,P08,D02,1,1,1
1795,-3.0,-5.0,62.0,1644844382.875,P08,D02,1,1,1
1796,-3.0,-5.0,62.0,1644844382.90625,P08,D02,1,1,1
1797,-3.0,-5.0,62.0,1644844382.9375,P08,D02,1,1,1
1798,-3.0,-5.0,62.0,1644844382.96875,P08,D02,1,1,1
1799,-3.0,-5.0,62.0,1644844383.0,P08,D02,1,1,1
1800,-3.0,-5.0,62.0,1644844383.03125,P08,D02,1,1,1
1801,-3.0,-5.0,62.0,1644844383.0625,P08,D02,1,1,1
1802,-3.0,-5.0,62.0,1644844383.09375,P08,D02,1,1,1
1803,-3.0,-5.0,62.0,1644844383.125,P08,D02,1,1,1
1804,-3.0,-5.0,62.0,1644844383.15625,P08,D02,1,1,1
1805,-3.0,-5.0,62.0,1644844383.1875,P08,D02,1,1,1
1806,-3.0,-5.0,62.0,1644844383.21875,P08,D02,1,1,1
1807,-3.0,-5.0,62.0,1644844383.25,P08,D02,1,1,1
1808,-3.0,-5.0,62.0,1644844383.28125,P08,D02,1,1,1
1809,-3.0,-5.0,62.0,1644844383.3125,P08,D02,1,1,1
1810,-3.0,-5.0,62.0,1644844383.34375,P08,D02,1,1,1
1811,-3.0,-5.0,62.0,1644844383.375,P08,D02,1,1,1
1812,-3.0,-5.0,62.0,1644844383.40625,P08,D02,1,1,1
1813,-3.0,-5.0,62.0,1644844383.4375,P08,D02,1,1,1
1814,-3.0,-5.0,62.0,1644844383.46875,P08,D02,1,1,1
1815,-3.0,-5.0,62.0,1644844383.5,P08,D02,1,1,1
1816,-3.0,-5.0,62.0,1644844383.53125,P08,D02,1,1,1
1817,-3.0,-5.0,62.0,1644844383.5625,P08,D02,1,1,1
1818,-3.0,-5.0,62.0,1644844383.59375,P08,D02,1,1,1
1819,-3.0,-5.0,62.0,1644844383.625,P08,D02,1,1,1
1820,-3.0,-5.0,62.0,1644844383.65625,P08,D02,1,1,1
1821,-3.0,-5.0,62.0,1644844383.6875,P08,D02,1,1,1
1822,-3.0,-5.0,62.0,1644844383.71875,P08,D02,1,1,1
1823,-3.0,-5.0,62.0,1644844383.75,P08,D02,1,1,1
1824,-3.0,-5.0,62.0,1644844383.78125,P08,D02,1,1,1
1825,-3.0,-5.0,62.0,1644844383.8125,P08,D02,1,1,1
1826,-3.0,-5.0,62.0,1644844383.84375,P08,D02,1,1,1
1827,-3.0,-5.0,62.0,1644844383.875,P08,D02,1,1,1
1828,-3.0,-5.0,62.0,1644844383.90625,P08,D02,1,1,1
1829,-3.0,-5.0,62.0,1644844383.9375,P08,D02,1,1,1
1830,-3.0,-5.0,62.0,1644844383.96875,P08,D02,1,1,1
1831,-3.0,-5.0,62.0,1644844384.0,P08,D02,1,1,1
1832,-3.0,-5.0,62.0,1644844384.03125,P08,D02,1,1,1
1833,-3.0,-5.0,62.0,1644844384.0625,P08,D02,1,1,1
1834,-3.0,-5.0,62.0,1644844384.09375,P08,D02,1,1,1
1835,-3.0,-5.0,62.0,1644844384.125,P08,D02,1,1,1
1836,-3.0,-5.0,62.0,1644844384.15625,P08,D02,1,1,1
1837,-3.0,-5.0,62.0,1644844384.1875,P08,D02,1,1,1
1838,-3.0,-5.0,62.0,1644844384.21875,P08,D02,1,1,1
1839,-4.0,-5.0,62.0,1644844384.25,P08,D02,1,1,1
1840,-3.0,-5.0,62.0,1644844384.28125,P08,D02,1,1,1
1841,-3.0,-5.0,62.0,1644844384.3125,P08,D02,1,1,1
1842,-3.0,-5.0,62.0,1644844384.34375,P08,D02,1,1,1
1843,-3.0,-5.0,62.0,1644844384.375,P08,D02,1,1,1
1844,-3.0,-5.0,62.0,1644844384.40625,P08,D02,1,1,1
1845,-3.0,-5.0,62.0,1644844384.4375,P08,D02,1,1,1
1846,-3.0,-5.0,62.0,1644844384.46875,P08,D02,1,1,1
1847,-3.0,-5.0,62.0,1644844384.5,P08,D02,1,1,1
1848,-3.0,-5.0,62.0,1644844384.53125,P08,D02,1,1,1
1849,-3.0,-5.0,62.0,1644844384.5625,P08,D02,1,1,1
1850,-3.0,-5.0,62.0,1644844384.59375,P08,D02,1,1,1
1851,-3.0,-5.0,62.0,1644844384.625,P08,D02,1,1,1
1852,-3.0,-5.0,62.0,1644844384.65625,P08,D02,1,1,1
1853,-3.0,-5.0,62.0,1644844384.6875,P08,D02,1,1,1
1854,-3.0,-5.0,62.0,1644844384.71875,P08,D02,1,1,1
1855,-3.0,-5.0,62.0,1644844384.75,P08,D02,1,1,1
1856,-3.0,-5.0,62.0,1644844384.78125,P08,D02,1,1,1
1857,-3.0,-5.0,62.0,1644844384.8125,P08,D02,1,1,1
1858,-3.0,-5.0,62.0,1644844384.84375,P08,D02,1,1,1
1859,-3.0,-5.0,62.0,1644844384.875,P08,D02,1,1,1
1860,-3.0,-5.0,62.0,1644844384.90625,P08,D02,1,1,1
1861,-3.0,-5.0,62.0,1644844384.9375,P08,D02,1,1,1
1862,-3.0,-5.0,62.0,1644844384.96875,P08,D02,1,1,1
1863,-3.0,-5.0,62.0,1644844385.0,P08,D02,1,1,1
1864,-3.0,-5.0,62.0,1644844385.03125,P08,D02,1,1,1
1865,-3.0,-5.0,62.0,1644844385.0625,P08,D02,1,1,1
1866,-3.0,-5.0,62.0,1644844385.09375,P08,D02,1,1,1
1867,-3.0,-5.0,62.0,1644844385.125,P08,D02,1,1,1
1868,-4.0,-5.0,62.0,1644844385.15625,P08,D02,1,1,1
1869,-3.0,-5.0,62.0,1644844385.1875,P08,D02,1,1,1
1870,-3.0,-5.0,62.0,1644844385.21875,P08,D02,1,1,1
1871,-3.0,-5.0,62.0,1644844385.25,P08,D02,1,1,1
1872,-4.0,-5.0,62.0,1644844385.28125,P08,D02,1,1,1
1873,-3.0,-5.0,62.0,1644844385.3125,P08,D02,1,1,1
1874,-3.0,-5.0,62.0,1644844385.34375,P08,D02,1,1,1
1875,-3.0,-5.0,62.0,1644844385.375,P08,D02,1,1,1
1876,-3.0,-5.0,62.0,1644844385.40625,P08,D02,1,1,1
1877,-4.0,-5.0,62.0,1644844385.4375,P08,D02,1,1,1
1878,-3.0,-5.0,62.0,1644844385.46875,P08,D02,1,1,1
1879,-3.0,-5.0,62.0,1644844385.5,P08,D02,1,1,1
1880,-3.0,-5.0,62.0,1644844385.53125,P08,D02,1,1,1
1881,-3.0,-5.0,62.0,1644844385.5625,P08,D02,1,1,1
1882,-3.0,-5.0,62.0,1644844385.59375,P08,D02,1,1,1
1883,-3.0,-5.0,62.0,1644844385.625,P08,D02,1,1,1
1884,-3.0,-5.0,62.0,1644844385.65625,P08,D02,1,1,1
1885,-3.0,-5.0,62.0,1644844385.6875,P08,D02,1,1,1
1886,-4.0,-5.0,62.0,1644844385.71875,P08,D02,1,1,1
1887,-3.0,-5.0,62.0,1644844385.75,P08,D02,1,1,1
1888,-3.0,-5.0,62.0,1644844385.78125,P08,D02,1,1,1
1889,-3.0,-5.0,62.0,1644844385.8125,P08,D02,1,1,1
1890,-3.0,-5.0,62.0,1644844385.84375,P08,D02,1,1,1
1891,-3.0,-5.0,62.0,1644844385.875,P08,D02,1,1,1
1892,-3.0,-5.0,62.0,1644844385.90625,P08,D02,1,1,1
1893,-4.0,-5.0,62.0,1644844385.9375,P08,D02,1,1,1
1894,-3.0,-5.0,62.0,1644844385.96875,P08,D02,1,1,1
1895,-3.0,-5.0,62.0,1644844386.0,P08,D02,1,1,1
1896,-3.0,-5.0,62.0,1644844386.03125,P08,D02,1,1,1
1897,-3.0,-5.0,62.0,1644844386.0625,P08,D02,1,1,1
1898,-3.0,-5.0,62.0,1644844386.09375,P08,D02,1,1,1
1899,-4.0,-5.0,62.0,1644844386.125,P08,D02,1,1,1
1900,-3.0,-5.0,62.0,1644844386.15625,P08,D02,1,1,1
1901,-4.0,-5.0,62.0,1644844386.1875,P08,D02,1,1,1
1902,-3.0,-5.0,62.0,1644844386.21875,P08,D02,1,1,1
1903,-3.0,-5.0,62.0,1644844386.25,P08,D02,1,1,1
1904,-3.0,-5.0,62.0,1644844386.28125,P08,D02,1,1,1
1905,-3.0,-5.0,62.0,1644844386.3125,P08,D02,1,1,1
1906,-3.0,-5.0,62.0,1644844386.34375,P08,D02,1,1,1
1907,-3.0,-5.0,62.0,1644844386.375,P08,D02,1,1,1
1908,-3.0,-5.0,62.0,1644844386.40625,P08,D02,1,1,1
1909,-3.0,-5.0,62.0,1644844386.4375,P08,D02,1,1,1
1910,-3.0,-5.0,62.0,1644844386.46875,P08,D02,1,1,1
1911,-3.0,-5.0,62.0,1644844386.5,P08,D02,1,1,1
1912,-3.0,-5.0,62.0,1644844386.53125,P08,D02,1,1,1
1913,-3.0,-5.0,62.0,1644844386.5625,P08,D02,1,1,1
1914,-4.0,-5.0,62.0,1644844386.59375,P08,D02,1,1,1
1915,-3.0,-5.0,62.0,1644844386.625,P08,D02,1,1,1
1916,-3.0,-5.0,62.0,1644844386.65625,P08,D02,1,1,1
1917,-4.0,-5.0,62.0,1644844386.6875,P08,D02,1,1,1
1918,-3.0,-5.0,62.0,1644844386.71875,P08,D02,1,1,1
1919,-3.0,-5.0,62.0,1644844386.75,P08,D02,1,1,1
1920,-3.0,-5.0,62.0,1644844386.78125,P08,D02,1,1,1
1921,-3.0,-5.0,62.0,1644844386.8125,P08,D02,1,1,1
1922,-3.0,-5.0,62.0,1644844386.84375,P08,D02,1,1,1
1923,-3.0,-5.0,62.0,1644844386.875,P08,D02,1,1,1
1924,-3.0,-5.0,62.0,1644844386.90625,P08,D02,1,1,1
1925,-3.0,-5.0,62.0,1644844386.9375,P08,D02,1,1,1
1926,-3.0,-5.0,62.0,1644844386.96875,P08,D02,1,1,1
1927,-3.0,-5.0,62.0,1644844387.0,P08,D02,1,1,1
1928,-3.0,-5.0,62.0,1644844387.03125,P08,D02,1,1,1
1929,-3.0,-5.0,62.0,1644844387.0625,P08,D02,1,1,1
1930,-3.0,-5.0,62.0,1644844387.09375,P08,D02,1,1,1
1931,-3.0,-5.0,62.0,1644844387.125,P08,D02,1,1,1
1932,-3.0,-5.0,62.0,1644844387.15625,P08,D02,1,1,1
1933,-3.0,-5.0,62.0,1644844387.1875,P08,D02,1,1,1
1934,-3.0,-5.0,62.0,1644844387.21875,P08,D02,1,1,1
1935,-3.0,-5.0,62.0,1644844387.25,P08,D02,1,1,1
1936,-3.0,-5.0,62.0,1644844387.28125,P08,D02,1,1,1
1937,-3.0,-5.0,62.0,1644844387.3125,P08,D02,1,1,1
1938,-3.0,-5.0,62.0,1644844387.34375,P08,D02,1,1,1
1939,-3.0,-5.0,62.0,1644844387.375,P08,D02,1,1,1
1940,-3.0,-5.0,62.0,1644844387.40625,P08,D02,1,1,1
1941,-3.0,-5.0,62.0,1644844387.4375,P08,D02,1,1,1
1942,-4.0,-5.0,62.0,1644844387.46875,P08,D02,1,1,1
1943,-3.0,-5.0,62.0,1644844387.5,P08,D02,1,1,1
1944,-3.0,-5.0,62.0,1644844387.53125,P08,D02,1,1,1
1945,-3.0,-5.0,62.0,1644844387.5625,P08,D02,1,1,1
1946,-3.0,-5.0,62.0,1644844387.59375,P08,D02,1,1,1
1947,-3.0,-5.0,62.0,1644844387.625,P08,D02,1,1,1
1948,-3.0,-5.0,62.0,1644844387.65625,P08,D02,1,1,1
1949,-3.0,-5.0,62.0,1644844387.6875,P08,D02,1,1,1
1950,-3.0,-5.0,62.0,1644844387.71875,P08,D02,1,1,1
1951,-3.0,-5.0,62.0,1644844387.75,P08,D02,1,1,1
1952,-3.0,-5.0,62.0,1644844387.78125,P08,D02,1,1,1
1953,-3.0,-5.0,62.0,1644844387.8125,P08,D02,1,1,1
1954,-4.0,-5.0,62.0,1644844387.84375,P08,D02,1,1,1
1955,-3.0,-5.0,62.0,1644844387.875,P08,D02,1,1,1
1956,-3.0,-5.0,62.0,1644844387.90625,P08,D02,1,1,1
1957,-3.0,-5.0,62.0,1644844387.9375,P08,D02,1,1,1
1958,-3.0,-5.0,62.0,1644844387.96875,P08,D02,1,1,1
1959,-3.0,-5.0,62.0,1644844388.0,P08,D02,1,1,1
1960,-3.0,-5.0,62.0,1644844388.03125,P08,D02,1,1,1
1961,-3.0,-5.0,62.0,1644844388.0625,P08,D02,1,1,1
1962,-3.0,-5.0,62.0,1644844388.09375,P08,D02,1,1,1
1963,-3.0,-5.0,62.0,1644844388.125,P08,D02,1,1,1
1964,-3.0,-5.0,62.0,1644844388.15625,P08,D02,1,1,1
1965,-3.0,-5.0,62.0,1644844388.1875,P08,D02,1,1,1
1966,-3.0,-5.0,62.0,1644844388.21875,P08,D02,1,1,1
1967,-3.0,-5.0,62.0,1644844388.25,P08,D02,1,1,1
1968,-3.0,-5.0,62.0,1644844388.28125,P08,D02,1,1,1
1969,-3.0,-5.0,62.0,1644844388.3125,P08,D02,1,1,1
1970,-3.0,-5.0,62.0,1644844388.34375,P08,D02,1,1,1
1971,-3.0,-5.0,62.0,1644844388.375,P08,D02,1,1,1
1972,-3.0,-5.0,62.0,1644844388.40625,P08,D02,1,1,1
1973,-4.0,-5.0,62.0,1644844388.4375,P08,D02,1,1,1
1974,-3.0,-5.0,62.0,1644844388.46875,P08,D02,1,1,1
1975,-3.0,-5.0,62.0,1644844388.5,P08,D02,1,1,1
1976,-3.0,-5.0,62.0,1644844388.53125,P08,D02,1,1,1
1977,-3.0,-5.0,62.0,1644844388.5625,P08,D02,1,1,1
1978,-3.0,-5.0,62.0,1644844388.59375,P08,D02,1,1,1
1979,-4.0,-5.0,62.0,1644844388.625,P08,D02,1,1,1
1980,-3.0,-5.0,62.0,1644844388.65625,P08,D02,1,1,1
1981,-3.0,-5.0,62.0,1644844388.6875,P08,D02,1,1,1
1982,-3.0,-5.0,62.0,1644844388.71875,P08,D02,1,1,1
1983,-3.0,-5.0,62.0,1644844388.75,P08,D02,1,1,1
1984,-3.0,-5.0,62.0,1644844388.78125,P08,D02,1,1,1
1985,-3.0,-5.0,62.0,1644844388.8125,P08,D02,1,1,1
1986,-3.0,-5.0,62.0,1644844388.84375,P08,D02,1,1,1
1987,-3.0,-5.0,62.0,1644844388.875,P08,D02,1,1,1
1988,-3.0,-5.0,62.0,1644844388.90625,P08,D02,1,1,1
1989,-3.0,-5.0,62.0,1644844388.9375,P08,D02,1,1,1
1990,-3.0,-5.0,62.0,1644844388.96875,P08,D02,1,1,1
1991,-3.0,-5.0,62.0,1644844389.0,P08,D02,1,1,1
1992,-3.0,-5.0,62.0,1644844389.03125,P08,D02,1,1,1
1993,-3.0,-5.0,62.0,1644844389.0625,P08,D02,1,1,1
1994,-3.0,-5.0,62.0,1644844389.09375,P08,D02,1,1,1
1995,-3.0,-5.0,62.0,1644844389.125,P08,D02,1,1,1
1996,-3.0,-5.0,62.0,1644844389.15625,P08,D02,1,1,1
1997,-3.0,-5.0,62.0,1644844389.1875,P08,D02,1,1,1
1998,-3.0,-5.0,62.0,1644844389.21875,P08,D02,1,1,1
1999,-3.0,-5.0,62.0,1644844389.25,P08,D02,1,1,1
2000,-3.0,-5.0,62.0,1644844389.28125,P08,D02,1,1,1
2001,-3.0,-5.0,62.0,1644844389.3125,P08,D02,1,1,1
2002,-3.0,-5.0,62.0,1644844389.34375,P08,D02,1,1,1
2003,-3.0,-5.0,62.0,1644844389.375,P08,D02,1,1,1
2004,-3.0,-5.0,62.0,1644844389.40625,P08,D02,1,1,1
2005,-3.0,-5.0,62.0,1644844389.4375,P08,D02,1,1,1
2006,-3.0,-5.0,62.0,1644844389.46875,P08,D02,1,1,1
2007,-3.0,-5.0,62.0,1644844389.5,P08,D02,1,1,1
2008,-3.0,-5.0,62.0,1644844389.53125,P08,D02,1,1,1
2009,-3.0,-5.0,62.0,1644844389.5625,P08,D02,1,1,1
2010,-4.0,-5.0,62.0,1644844389.59375,P08,D02,1,1,1
2011,-4.0,-5.0,62.0,1644844389.625,P08,D02,1,1,1
2012,-3.0,-5.0,62.0,1644844389.65625,P08,D02,1,1,1
2013,-3.0,-5.0,62.0,1644844389.6875,P08,D02,1,1,1
2014,-3.0,-5.0,62.0,1644844389.71875,P08,D02,1,1,1
2015,-3.0,-5.0,62.0,1644844389.75,P08,D02,1,1,1
2016,-3.0,-5.0,62.0,1644844389.78125,P08,D02,1,1,1
2017,-4.0,-5.0,62.0,1644844389.8125,P08,D02,1,1,1
2018,-3.0,-5.0,62.0,1644844389.84375,P08,D02,1,1,1
2019,-3.0,-5.0,62.0,1644844389.875,P08,D02,1,1,1
2020,-3.0,-5.0,62.0,1644844389.90625,P08,D02,1,1,1
2021,-3.0,-5.0,62.0,1644844389.9375,P08,D02,1,1,1
2022,-4.0,-5.0,62.0,1644844389.96875,P08,D02,1,1,1
2023,-3.0,-5.0,62.0,1644844390.0,P08,D02,1,1,1
2024,-3.0,-5.0,62.0,1644844390.03125,P08,D02,1,1,1
2025,-3.0,-5.0,62.0,1644844390.0625,P08,D02,1,1,1
2026,-3.0,-5.0,62.0,1644844390.09375,P08,D02,1,1,1
2027,-3.0,-5.0,62.0,1644844390.125,P08,D02,1,1,1
2028,-3.0,-5.0,62.0,1644844390.15625,P08,D02,1,1,1
2029,-3.0,-5.0,62.0,1644844390.1875,P08,D02,1,1,1
2030,-4.0,-5.0,62.0,1644844390.21875,P08,D02,1,1,1
2031,-3.0,-5.0,62.0,1644844390.25,P08,D02,1,1,1
2032,-4.0,-5.0,62.0,1644844390.28125,P08,D02,1,1,1
2033,-3.0,-5.0,62.0,1644844390.3125,P08,D02,1,1,1
2034,-3.0,-5.0,62.0,1644844390.34375,P08,D02,1,1,1
2035,-4.0,-5.0,62.0,1644844390.375,P08,D02,1,1,1
2036,-4.0,-5.0,62.0,1644844390.40625,P08,D02,1,1,1
2037,-4.0,-5.0,62.0,1644844390.4375,P08,D02,1,1,1
2038,-3.0,-5.0,62.0,1644844390.46875,P08,D02,1,1,1
2039,-3.0,-5.0,62.0,1644844390.5,P08,D02,1,1,1
2040,-3.0,-5.0,62.0,1644844390.53125,P08,D02,1,1,1
2041,-3.0,-5.0,62.0,1644844390.5625,P08,D02,1,1,1
2042,-3.0,-5.0,62.0,1644844390.59375,P08,D02,1,1,1
2043,-4.0,-5.0,62.0,1644844390.625,P08,D02,1,1,1
2044,-3.0,-5.0,62.0,1644844390.65625,P08,D02,1,1,1
2045,-3.0,-5.0,62.0,1644844390.6875,P08,D02,1,1,1
2046,-3.0,-5.0,62.0,1644844390.71875,P08,D02,1,1,1
2047,-4.0,-5.0,62.0,1644844390.75,P08,D02,1,1,1
2048,-4.0,-5.0,62.0,1644844390.78125,P08,D02,1,1,1
2049,-3.0,-5.0,63.0,1644844390.8125,P08,D02,1,1,1
2050,-4.0,-5.0,62.0,1644844390.84375,P08,D02,1,1,1
2051,-4.0,-5.0,62.0,1644844390.875,P08,D02,1,1,1
2052,-3.0,-5.0,62.0,1644844390.90625,P08,D02,1,1,1
2053,-3.0,-5.0,62.0,1644844390.9375,P08,D02,1,1,1
2054,-4.0,-5.0,62.0,1644844390.96875,P08,D02,1,1,1
2055,-4.0,-5.0,62.0,1644844391.0,P08,D02,1,1,1
2056,-3.0,-5.0,62.0,1644844391.03125,P08,D02,1,1,1
2057,-3.0,-5.0,62.0,1644844391.0625,P08,D02,1,1,1
2058,-3.0,-5.0,62.0,1644844391.09375,P08,D02,1,1,1
2059,-3.0,-5.0,62.0,1644844391.125,P08,D02,1,1,1
2060,-3.0,-5.0,62.0,1644844391.15625,P08,D02,1,1,1
2061,-4.0,-5.0,62.0,1644844391.1875,P08,D02,1,1,1
2062,-3.0,-5.0,62.0,1644844391.21875,P08,D02,1,1,1
2063,-3.0,-5.0,62.0,1644844391.25,P08,D02,1,1,1
2064,-3.0,-5.0,62.0,1644844391.28125,P08,D02,1,1,1
2065,-3.0,-5.0,62.0,1644844391.3125,P08,D02,1,1,1
2066,-3.0,-5.0,62.0,1644844391.34375,P08,D02,1,1,1
2067,-4.0,-5.0,62.0,1644844391.375,P08,D02,1,1,1
2068,-3.0,-5.0,62.0,1644844391.40625,P08,D02,1,1,1
2069,-3.0,-5.0,62.0,1644844391.4375,P08,D02,1,1,1
2070,-3.0,-5.0,62.0,1644844391.46875,P08,D02,1,1,1
2071,-3.0,-5.0,62.0,1644844391.5,P08,D02,1,1,1
2072,-3.0,-5.0,62.0,1644844391.53125,P08,D02,1,1,1
2073,-3.0,-5.0,62.0,1644844391.5625,P08,D02,1,1,1
2074,-3.0,-5.0,62.0,1644844391.59375,P08,D02,1,1,1
2075,-3.0,-5.0,62.0,1644844391.625,P08,D02,1,1,1
2076,-3.0,-5.0,62.0,1644844391.65625,P08,D02,1,1,1
2077,-3.0,-5.0,62.0,1644844391.6875,P08,D02,1,1,1
2078,-3.0,-5.0,62.0,1644844391.71875,P08,D02,1,1,1
2079,-3.0,-5.0,62.0,1644844391.75,P08,D02,1,1,1
2080,-3.0,-5.0,62.0,1644844391.78125,P08,D02,1,1,1
2081,-3.0,-5.0,62.0,1644844391.8125,P08,D02,1,1,1
2082,-3.0,-5.0,62.0,1644844391.84375,P08,D02,1,1,1
2083,-3.0,-5.0,62.0,1644844391.875,P08,D02,1,1,1
2084,-3.0,-5.0,62.0,1644844391.90625,P08,D02,1,1,1
2085,-3.0,-5.0,62.0,1644844391.9375,P08,D02,1,1,1
2086,-3.0,-5.0,62.0,1644844391.96875,P08,D02,1,1,1
2087,-3.0,-5.0,62.0,1644844392.0,P08,D02,1,1,1
2088,-3.0,-5.0,62.0,1644844392.03125,P08,D02,1,1,1
2089,-3.0,-5.0,62.0,1644844392.0625,P08,D02,1,1,1
2090,-4.0,-5.0,62.0,1644844392.09375,P08,D02,1,1,1
2091,-4.0,-5.0,62.0,1644844392.125,P08,D02,1,1,1
2092,-3.0,-5.0,62.0,1644844392.15625,P08,D02,1,1,1
2093,-3.0,-5.0,62.0,1644844392.1875,P08,D02,1,1,1
2094,-3.0,-5.0,62.0,1644844392.21875,P08,D02,1,1,1
2095,-3.0,-5.0,62.0,1644844392.25,P08,D02,1,1,1
2096,-3.0,-5.0,62.0,1644844392.28125,P08,D02,1,1,1
2097,-3.0,-5.0,62.0,1644844392.3125,P08,D02,1,1,1
2098,-3.0,-5.0,62.0,1644844392.34375,P08,D02,1,1,1
2099,-3.0,-5.0,62.0,1644844392.375,P08,D02,1,1,1
2100,-3.0,-5.0,62.0,1644844392.40625,P08,D02,1,1,1
2101,-3.0,-5.0,62.0,1644844392.4375,P08,D02,1,1,1
2102,-3.0,-5.0,62.0,1644844392.46875,P08,D02,1,1,1
2103,-3.0,-5.0,62.0,1644844392.5,P08,D02,1,1,1
2104,-3.0,-5.0,62.0,1644844392.53125,P08,D02,1,1,1
2105,-3.0,-5.0,62.0,1644844392.5625,P08,D02,1,1,1
2106,-3.0,-5.0,62.0,1644844392.59375,P08,D02,1,1,1
2107,-3.0,-5.0,62.0,1644844392.625,P08,D02,1,1,1
2108,-3.0,-5.0,62.0,1644844392.65625,P08,D02,1,1,1
2109,-3.0,-5.0,62.0,1644844392.6875,P08,D02,1,1,1
2110,-3.0,-5.0,62.0,1644844392.71875,P08,D02,1,1,1
2111,-3.0,-5.0,62.0,1644844392.75,P08,D02,1,1,1
2112,-3.0,-5.0,62.0,1644844392.78125,P08,D02,1,1,1
2113,-3.0,-5.0,62.0,1644844392.8125,P08,D02,1,1,1
2114,-3.0,-5.0,62.0,1644844392.84375,P08,D02,1,1,1
2115,-3.0,-5.0,62.0,1644844392.875,P08,D02,1,1,1
2116,-3.0,-5.0,62.0,1644844392.90625,P08,D02,1,1,1
2117,-3.0,-5.0,62.0,1644844392.9375,P08,D02,1,1,1
2118,-3.0,-5.0,62.0,1644844392.96875,P08,D02,1,1,1
2119,-3.0,-5.0,62.0,1644844393.0,P08,D02,1,1,1
2120,-3.0,-5.0,62.0,1644844393.03125,P08,D02,1,1,1
2121,-3.0,-5.0,62.0,1644844393.0625,P08,D02,1,1,1
2122,-3.0,-5.0,62.0,1644844393.09375,P08,D02,1,1,1
2123,-3.0,-5.0,62.0,1644844393.125,P08,D02,1,1,1
2124,-3.0,-5.0,62.0,1644844393.15625,P08,D02,1,1,1
2125,-3.0,-5.0,62.0,1644844393.1875,P08,D02,1,1,1
2126,-3.0,-5.0,62.0,1644844393.21875,P08,D02,1,1,1
2127,-3.0,-5.0,62.0,1644844393.25,P08,D02,1,1,1
2128,-3.0,-5.0,62.0,1644844393.28125,P08,D02,1,1,1
2129,-3.0,-5.0,62.0,1644844393.3125,P08,D02,1,1,1
2130,-3.0,-5.0,62.0,1644844393.34375,P08,D02,1,1,1
2131,-3.0,-5.0,62.0,1644844393.375,P08,D02,1,1,1
2132,-3.0,-5.0,62.0,1644844393.40625,P08,D02,1,1,1
2133,-3.0,-5.0,62.0,1644844393.4375,P08,D02,1,1,1
2134,-3.0,-5.0,62.0,1644844393.46875,P08,D02,1,1,1
2135,-3.0,-5.0,62.0,1644844393.5,P08,D02,1,1,1
2136,-3.0,-5.0,62.0,1644844393.53125,P08,D02,1,1,1
2137,-3.0,-5.0,62.0,1644844393.5625,P08,D02,1,1,1
2138,-3.0,-5.0,62.0,1644844393.59375,P08,D02,1,1,1
2139,-3.0,-5.0,62.0,1644844393.625,P08,D02,1,1,1
2140,-3.0,-5.0,62.0,1644844393.65625,P08,D02,1,1,1
2141,-3.0,-5.0,62.0,1644844393.6875,P08,D02,1,1,1
2142,-3.0,-5.0,62.0,1644844393.71875,P08,D02,1,1,1
2143,-4.0,-5.0,62.0,1644844393.75,P08,D02,1,1,1
2144,-3.0,-5.0,62.0,1644844393.78125,P08,D02,1,1,1
2145,-3.0,-5.0,62.0,1644844393.8125,P08,D02,1,1,1
2146,-3.0,-5.0,62.0,1644844393.84375,P08,D02,1,1,1
2147,-3.0,-5.0,62.0,1644844393.875,P08,D02,1,1,1
2148,-3.0,-5.0,62.0,1644844393.90625,P08,D02,1,1,1
2149,-3.0,-5.0,62.0,1644844393.9375,P08,D02,1,1,1
2150,-4.0,-5.0,62.0,1644844393.96875,P08,D02,1,1,1
2151,-3.0,-5.0,62.0,1644844394.0,P08,D02,1,1,1
2152,-3.0,-5.0,62.0,1644844394.03125,P08,D02,1,1,1
2153,-3.0,-5.0,62.0,1644844394.0625,P08,D02,1,1,1
2154,-4.0,-5.0,62.0,1644844394.09375,P08,D02,1,1,1
2155,-4.0,-5.0,62.0,1644844394.125,P08,D02,1,1,1
2156,-3.0,-5.0,62.0,1644844394.15625,P08,D02,1,1,1
2157,-4.0,-5.0,62.0,1644844394.1875,P08,D02,1,1,1
2158,-3.0,-5.0,62.0,1644844394.21875,P08,D02,1,1,1
2159,-3.0,-5.0,62.0,1644844394.25,P08,D02,1,1,1
2160,-4.0,-5.0,62.0,1644844394.28125,P08,D02,1,1,1
2161,-4.0,-5.0,62.0,1644844394.3125,P08,D02,1,1,1
2162,-4.0,-5.0,62.0,1644844394.34375,P08,D02,1,1,1
2163,-3.0,-5.0,62.0,1644844394.375,P08,D02,1,1,1
2164,-3.0,-5.0,62.0,1644844394.40625,P08,D02,1,1,1
2165,-4.0,-5.0,62.0,1644844394.4375,P08,D02,1,1,1
2166,-4.0,-5.0,62.0,1644844394.46875,P08,D02,1,1,1
2167,-4.0,-5.0,62.0,1644844394.5,P08,D02,1,1,1
2168,-3.0,-5.0,62.0,1644844394.53125,P08,D02,1,1,1
2169,-3.0,-5.0,62.0,1644844394.5625,P08,D02,1,1,1
2170,-3.0,-5.0,62.0,1644844394.59375,P08,D02,1,1,1
2171,-3.0,-5.0,62.0,1644844394.625,P08,D02,1,1,1
2172,-4.0,-5.0,62.0,1644844394.65625,P08,D02,1,1,1
2173,-3.0,-5.0,62.0,1644844394.6875,P08,D02,1,1,1
2174,-4.0,-5.0,62.0,1644844394.71875,P08,D02,1,1,1
2175,-4.0,-5.0,62.0,1644844394.75,P08,D02,1,1,1
2176,-4.0,-5.0,62.0,1644844394.78125,P08,D02,1,1,1
2177,-3.0,-5.0,62.0,1644844394.8125,P08,D02,1,1,1
2178,-4.0,-5.0,62.0,1644844394.84375,P08,D02,1,1,1
2179,-4.0,-5.0,62.0,1644844394.875,P08,D02,1,1,1
2180,-4.0,-5.0,62.0,1644844394.90625,P08,D02,1,1,1
2181,-3.0,-5.0,62.0,1644844394.9375,P08,D02,1,1,1
2182,-4.0,-5.0,62.0,1644844394.96875,P08,D02,1,1,1
2183,-4.0,-5.0,62.0,1644844395.0,P08,D02,1,1,1
2184,-4.0,-5.0,62.0,1644844395.03125,P08,D02,1,1,1
2185,-4.0,-5.0,62.0,1644844395.0625,P08,D02,1,1,1
2186,-4.0,-5.0,62.0,1644844395.09375,P08,D02,1,1,1
2187,-4.0,-5.0,62.0,1644844395.125,P08,D02,1,1,1
2188,-4.0,-5.0,62.0,1644844395.15625,P08,D02,1,1,1
2189,-3.0,-5.0,62.0,1644844395.1875,P08,D02,1,1,1
2190,-3.0,-5.0,62.0,1644844395.21875,P08,D02,1,1,1
2191,-4.0,-5.0,62.0,1644844395.25,P08,D02,1,1,1
2192,-4.0,-5.0,62.0,1644844395.28125,P08,D02,1,1,1
2193,-3.0,-5.0,62.0,1644844395.3125,P08,D02,1,1,1
2194,-3.0,-5.0,62.0,1644844395.34375,P08,D02,1,1,1
2195,-4.0,-5.0,62.0,1644844395.375,P08,D02,1,1,1
2196,-3.0,-5.0,62.0,1644844395.40625,P08,D02,1,1,1
2197,-3.0,-5.0,62.0,1644844395.4375,P08,D02,1,1,1
2198,-3.0,-5.0,62.0,1644844395.46875,P08,D02,1,1,1
2199,-3.0,-5.0,62.0,1644844395.5,P08,D02,1,1,1
2200,-3.0,-5.0,62.0,1644844395.53125,P08,D02,1,1,1
2201,-3.0,-5.0,62.0,1644844395.5625,P08,D02,1,1,1
2202,-3.0,-5.0,62.0,1644844395.59375,P08,D02,1,1,1
2203,-4.0,-5.0,62.0,1644844395.625,P08,D02,1,1,1
2204,-3.0,-5.0,62.0,1644844395.65625,P08,D02,1,1,1
2205,-3.0,-5.0,62.0,1644844395.6875,P08,D02,1,1,1
2206,-4.0,-5.0,62.0,1644844395.71875,P08,D02,1,1,1
2207,-4.0,-5.0,62.0,1644844395.75,P08,D02,1,1,1
2208,-3.0,-5.0,62.0,1644844395.78125,P08,D02,1,1,1
2209,-3.0,-5.0,62.0,1644844395.8125,P08,D02,1,1,1
2210,-3.0,-5.0,62.0,1644844395.84375,P08,D02,1,1,1
2211,-3.0,-5.0,62.0,1644844395.875,P08,D02,1,1,1
2212,-3.0,-5.0,62.0,1644844395.90625,P08,D02,1,1,1
2213,-3.0,-5.0,62.0,1644844395.9375,P08,D02,1,1,1
2214,-3.0,-5.0,62.0,1644844395.96875,P08,D02,1,1,1
2215,-3.0,-5.0,62.0,1644844396.0,P08,D02,1,1,1
2216,-3.0,-5.0,62.0,1644844396.03125,P08,D02,1,1,1
2217,-3.0,-5.0,62.0,1644844396.0625,P08,D02,1,1,1
2218,-3.0,-5.0,62.0,1644844396.09375,P08,D02,1,1,1
2219,-3.0,-5.0,62.0,1644844396.125,P08,D02,1,1,1
2220,-3.0,-5.0,62.0,1644844396.15625,P08,D02,1,1,1
2221,-3.0,-5.0,62.0,1644844396.1875,P08,D02,1,1,1
2222,-4.0,-5.0,62.0,1644844396.21875,P08,D02,1,1,1
2223,-4.0,-5.0,62.0,1644844396.25,P08,D02,1,1,1
2224,-3.0,-5.0,62.0,1644844396.28125,P08,D02,1,1,1
2225,-3.0,-5.0,62.0,1644844396.3125,P08,D02,1,1,1
2226,-3.0,-5.0,62.0,1644844396.34375,P08,D02,1,1,1
2227,-3.0,-5.0,62.0,1644844396.375,P08,D02,1,1,1
2228,-3.0,-5.0,62.0,1644844396.40625,P08,D02,1,1,1
2229,-3.0,-5.0,62.0,1644844396.4375,P08,D02,1,1,1
2230,-3.0,-5.0,62.0,1644844396.46875,P08,D02,1,1,1
2231,-4.0,-5.0,62.0,1644844396.5,P08,D02,1,1,1
2232,-3.0,-5.0,62.0,1644844396.53125,P08,D02,1,1,1
2233,-3.0,-5.0,62.0,1644844396.5625,P08,D02,1,1,1
2234,-3.0,-5.0,62.0,1644844396.59375,P08,D02,1,1,1
2235,-3.0,-5.0,62.0,1644844396.625,P08,D02,1,1,1
2236,-3.0,-5.0,62.0,1644844396.65625,P08,D02,1,1,1
2237,-3.0,-5.0,62.0,1644844396.6875,P08,D02,1,1,1
2238,-3.0,-5.0,62.0,1644844396.71875,P08,D02,1,1,1
2239,-3.0,-5.0,62.0,1644844396.75,P08,D02,1,1,1
2240,-3.0,-5.0,62.0,1644844396.78125,P08,D02,1,1,1
2241,-3.0,-5.0,62.0,1644844396.8125,P08,D02,1,1,1
2242,-3.0,-5.0,62.0,1644844396.84375,P08,D02,1,1,1
2243,-3.0,-5.0,62.0,1644844396.875,P08,D02,1,1,1
2244,-3.0,-5.0,62.0,1644844396.90625,P08,D02,1,1,1
2245,-3.0,-5.0,62.0,1644844396.9375,P08,D02,1,1,1
2246,-3.0,-5.0,62.0,1644844396.96875,P08,D02,1,1,1
2247,-3.0,-5.0,62.0,1644844397.0,P08,D02,1,1,1
2248,-3.0,-5.0,62.0,1644844397.03125,P08,D02,1,1,1
2249,-3.0,-5.0,62.0,1644844397.0625,P08,D02,1,1,1
2250,-3.0,-5.0,62.0,1644844397.09375,P08,D02,1,1,1
2251,-3.0,-5.0,62.0,1644844397.125,P08,D02,1,1,1
2252,-3.0,-5.0,62.0,1644844397.15625,P08,D02,1,1,1
2253,-3.0,-5.0,62.0,1644844397.1875,P08,D02,1,1,1
2254,-3.0,-5.0,62.0,1644844397.21875,P08,D02,1,1,1
2255,-3.0,-5.0,62.0,1644844397.25,P08,D02,1,1,1
2256,-3.0,-5.0,62.0,1644844397.28125,P08,D02,1,1,1
2257,-3.0,-5.0,62.0,1644844397.3125,P08,D02,1,1,1
2258,-3.0,-5.0,62.0,1644844397.34375,P08,D02,1,1,1
2259,-3.0,-5.0,62.0,1644844397.375,P08,D02,1,1,1
2260,-3.0,-5.0,62.0,1644844397.40625,P08,D02,1,1,1
2261,-3.0,-5.0,62.0,1644844397.4375,P08,D02,1,1,1
2262,-3.0,-5.0,62.0,1644844397.46875,P08,D02,1,1,1
2263,-3.0,-5.0,62.0,1644844397.5,P08,D02,1,1,1
2264,-3.0,-5.0,62.0,1644844397.53125,P08,D02,1,1,1
2265,-3.0,-5.0,62.0,1644844397.5625,P08,D02,1,1,1
2266,-3.0,-5.0,62.0,1644844397.59375,P08,D02,1,1,1
2267,-3.0,-5.0,62.0,1644844397.625,P08,D02,1,1,1
2268,-3.0,-5.0,62.0,1644844397.65625,P08,D02,1,1,1
2269,-3.0,-5.0,62.0,1644844397.6875,P08,D02,1,1,1
2270,-3.0,-5.0,62.0,1644844397.71875,P08,D02,1,1,1
2271,-3.0,-5.0,62.0,1644844397.75,P08,D02,1,1,1
2272,-3.0,-5.0,63.0,1644844397.78125,P08,D02,1,1,1
2273,-3.0,-5.0,62.0,1644844397.8125,P08,D02,1,1,1
2274,-3.0,-5.0,62.0,1644844397.84375,P08,D02,1,1,1
2275,-3.0,-5.0,62.0,1644844397.875,P08,D02,1,1,1
2276,-3.0,-5.0,62.0,1644844397.90625,P08,D02,1,1,1
2277,-3.0,-5.0,62.0,1644844397.9375,P08,D02,1,1,1
2278,-4.0,-5.0,62.0,1644844397.96875,P08,D02,1,1,1
2279,-3.0,-5.0,62.0,1644844398.0,P08,D02,1,1,1
2280,-3.0,-5.0,62.0,1644844398.03125,P08,D02,1,1,1
2281,-3.0,-5.0,62.0,1644844398.0625,P08,D02,1,1,1
2282,-3.0,-5.0,62.0,1644844398.09375,P08,D02,1,1,1
2283,-3.0,-5.0,62.0,1644844398.125,P08,D02,1,1,1
2284,-3.0,-5.0,62.0,1644844398.15625,P08,D02,1,1,1
2285,-3.0,-5.0,62.0,1644844398.1875,P08,D02,1,1,1
2286,-3.0,-5.0,62.0,1644844398.21875,P08,D02,1,1,1
2287,-3.0,-5.0,62.0,1644844398.25,P08,D02,1,1,1
2288,-3.0,-5.0,62.0,1644844398.28125,P08,D02,1,1,1
2289,-3.0,-5.0,62.0,1644844398.3125,P08,D02,1,1,1
2290,-3.0,-5.0,62.0,1644844398.34375,P08,D02,1,1,1
2291,-3.0,-5.0,62.0,1644844398.375,P08,D02,1,1,1
2292,-3.0,-5.0,62.0,1644844398.40625,P08,D02,1,1,1
2293,-3.0,-5.0,62.0,1644844398.4375,P08,D02,1,1,1
2294,-3.0,-5.0,62.0,1644844398.46875,P08,D02,1,1,1
2295,-3.0,-5.0,62.0,1644844398.5,P08,D02,1,1,1
2296,-3.0,-5.0,62.0,1644844398.53125,P08,D02,1,1,1
2297,-3.0,-5.0,62.0,1644844398.5625,P08,D02,1,1,1
2298,-3.0,-5.0,62.0,1644844398.59375,P08,D02,1,1,1
2299,-3.0,-5.0,62.0,1644844398.625,P08,D02,1,1,1
2300,-3.0,-5.0,62.0,1644844398.65625,P08,D02,1,1,1
2301,-4.0,-5.0,62.0,1644844398.6875,P08,D02,1,1,1
2302,-4.0,-5.0,62.0,1644844398.71875,P08,D02,1,1,1
2303,-3.0,-5.0,62.0,1644844398.75,P08,D02,1,1,1
2304,-3.0,-5.0,62.0,1644844398.78125,P08,D02,1,1,1
2305,-3.0,-5.0,62.0,1644844398.8125,P08,D02,1,1,1
2306,-3.0,-5.0,62.0,1644844398.84375,P08,D02,1,1,1
2307,-3.0,-5.0,62.0,1644844398.875,P08,D02,1,1,1
2308,-4.0,-5.0,62.0,1644844398.90625,P08,D02,1,1,1
2309,-4.0,-5.0,62.0,1644844398.9375,P08,D02,1,1,1
2310,-4.0,-5.0,62.0,1644844398.96875,P08,D02,1,1,1
2311,-4.0,-5.0,62.0,1644844399.0,P08,D02,1,1,1
2312,-4.0,-5.0,62.0,1644844399.03125,P08,D02,1,1,1
2313,-4.0,-5.0,62.0,1644844399.0625,P08,D02,1,1,1
2314,-4.0,-5.0,62.0,1644844399.09375,P08,D02,1,1,1
2315,-4.0,-5.0,62.0,1644844399.125,P08,D02,1,1,1
2316,-4.0,-5.0,62.0,1644844399.15625,P08,D02,1,1,1
2317,-4.0,-5.0,62.0,1644844399.1875,P08,D02,1,1,1
2318,-4.0,-5.0,62.0,1644844399.21875,P08,D02,1,1,1
2319,-4.0,-5.0,62.0,1644844399.25,P08,D02,1,1,1
2320,-4.0,-5.0,62.0,1644844399.28125,P08,D02,1,1,1
2321,-5.0,-4.0,62.0,1644844399.3125,P08,D02,1,1,1
2322,-3.0,-5.0,62.0,1644844399.34375,P08,D02,1,1,1
2323,-2.0,-5.0,62.0,1644844399.375,P08,D02,1,1,1
2324,-4.0,-5.0,62.0,1644844399.40625,P08,D02,1,1,1
2325,-3.0,-5.0,62.0,1644844399.4375,P08,D02,1,1,1
2326,-3.0,-5.0,62.0,1644844399.46875,P08,D02,1,1,1
2327,-5.0,-5.0,62.0,1644844399.5,P08,D02,1,1,1
2328,-5.0,-5.0,62.0,1644844399.53125,P08,D02,1,1,1
2329,-3.0,-5.0,62.0,1644844399.5625,P08,D02,1,1,1
2330,-3.0,-5.0,62.0,1644844399.59375,P08,D02,1,1,1
2331,-4.0,-5.0,62.0,1644844399.625,P08,D02,1,1,1
2332,-3.0,-5.0,62.0,1644844399.65625,P08,D02,1,1,1
2333,-4.0,-5.0,62.0,1644844399.6875,P08,D02,1,1,1
2334,-3.0,-5.0,62.0,1644844399.71875,P08,D02,1,1,1
