,acc_x,acc_y,acc_z,timestamp,participant,document,val,arou,eng
0,-33.0,-8.0,54.0,1644846125.78125,P08,D09,0,0,0
1,-34.0,-8.0,53.0,1644846125.8125,P08,D09,0,0,0
2,-34.0,-8.0,53.0,1644846125.84375,P08,D09,0,0,0
3,-33.0,-8.0,53.0,1644846125.875,P08,D09,0,0,0
4,-34.0,-8.0,53.0,1644846125.90625,P08,D09,0,0,0
5,-34.0,-8.0,53.0,1644846125.9375,P08,D09,0,0,0
6,-34.0,-9.0,53.0,1644846125.96875,P08,D09,0,0,0
7,-34.0,-9.0,52.0,1644846126.0,P08,D09,0,0,0
8,-34.0,-8.0,53.0,1644846126.03125,P08,D09,0,0,0
9,-34.0,-8.0,53.0,1644846126.0625,P08,D09,0,0,0
10,-34.0,-8.0,53.0,1644846126.09375,P08,D09,0,0,0
11,-33.0,-8.0,53.0,1644846126.125,P08,D09,0,0,0
12,-34.0,-8.0,53.0,1644846126.15625,P08,D09,0,0,0
13,-33.0,-8.0,53.0,1644846126.1875,P08,D09,0,0,0
14,-33.0,-8.0,53.0,1644846126.21875,P08,D09,0,0,0
15,-34.0,-9.0,52.0,1644846126.25,P08,D09,0,0,0
16,-34.0,-8.0,53.0,1644846126.28125,P08,D09,0,0,0
17,-34.0,-8.0,53.0,1644846126.3125,P08,D09,0,0,0
18,-33.0,-8.0,53.0,1644846126.34375,P08,D09,0,0,0
19,-33.0,-8.0,53.0,1644846126.375,P08,D09,0,0,0
20,-33.0,-8.0,53.0,1644846126.40625,P08,D09,0,0,0
21,-33.0,-8.0,53.0,1644846126.4375,P08,D09,0,0,0
22,-34.0,-8.0,53.0,1644846126.46875,P08,D09,0,0,0
23,-33.0,-8.0,53.0,1644846126.5,P08,D09,0,0,0
24,-34.0,-8.0,53.0,1644846126.53125,P08,D09,0,0,0
25,-33.0,-8.0,53.0,1644846126.5625,P08,D09,0,0,0
26,-34.0,-8.0,53.0,1644846126.59375,P08,D09,0,0,0
27,-33.0,-8.0,54.0,1644846126.625,P08,D09,0,0,0
28,-33.0,-8.0,53.0,1644846126.65625,P08,D09,0,0,0
29,-33.0,-8.0,53.0,1644846126.6875,P08,D09,0,0,0
30,-34.0,-8.0,53.0,1644846126.71875,P08,D09,0,0,0
31,-34.0,-8.0,53.0,1644846126.75,P08,D09,0,0,0
32,-34.0,-8.0,53.0,1644846126.78125,P08,D09,0,0,0
33,-32.0,-8.0,53.0,1644846126.8125,P08,D09,0,0,0
34,-34.0,-7.0,53.0,1644846126.84375,P08,D09,0,0,0
35,-34.0,-8.0,53.0,1644846126.875,P08,D09,0,0,0
36,-34.0,-9.0,53.0,1644846126.90625,P08,D09,0,0,0
37,-34.0,-8.0,53.0,1644846126.9375,P08,D09,0,0,0
38,-33.0,-8.0,53.0,1644846126.96875,P08,D09,0,0,0
39,-34.0,-8.0,53.0,1644846127.0,P08,D09,0,0,0
40,-34.0,-8.0,53.0,1644846127.03125,P08,D09,0,0,0
41,-33.0,-8.0,53.0,1644846127.0625,P08,D09,0,0,0
42,-34.0,-8.0,53.0,1644846127.09375,P08,D09,0,0,0
43,-34.0,-8.0,54.0,1644846127.125,P08,D09,0,0,0
44,-34.0,-8.0,53.0,1644846127.15625,P08,D09,0,0,0
45,-33.0,-8.0,53.0,1644846127.1875,P08,D09,0,0,0
46,-35.0,-8.0,53.0,1644846127.21875,P08,D09,0,0,0
47,-34.0,-7.0,53.0,1644846127.25,P08,D09,0,0,0
48,-34.0,-7.0,53.0,1644846127.28125,P08,D09,0,0,0
49,-34.0,-7.0,53.0,1644846127.3125,P08,D09,0,0,0
50,-34.0,-8.0,53.0,1644846127.34375,P08,D09,0,0,0
51,-34.0,-7.0,53.0,1644846127.375,P08,D09,0,0,0
52,-34.0,-8.0,53.0,1644846127.40625,P08,D09,0,0,0
53,-34.0,-7.0,52.0,1644846127.4375,P08,D09,0,0,0
54,-35.0,-7.0,53.0,1644846127.46875,P08,D09,0,0,0
55,-34.0,-7.0,53.0,1644846127.5,P08,D09,0,0,0
56,-34.0,-7.0,53.0,1644846127.53125,P08,D09,0,0,0
57,-35.0,-7.0,53.0,1644846127.5625,P08,D09,0,0,0
58,-36.0,-7.0,53.0,1644846127.59375,P08,D09,0,0,0
59,-36.0,-6.0,52.0,1644846127.625,P08,D09,0,0,0
60,-35.0,-7.0,52.0,1644846127.65625,P08,D09,0,0,0
61,-34.0,-7.0,53.0,1644846127.6875,P08,D09,0,0,0
62,-34.0,-7.0,53.0,1644846127.71875,P08,D09,0,0,0
63,-34.0,-7.0,53.0,1644846127.75,P08,D09,0,0,0
64,-35.0,-7.0,53.0,1644846127.78125,P08,D09,0,0,0
65,-35.0,-7.0,52.0,1644846127.8125,P08,D09,0,0,0
66,-35.0,-7.0,53.0,1644846127.84375,P08,D09,0,0,0
67,-35.0,-7.0,52.0,1644846127.875,P08,D09,0,0,0
68,-36.0,-7.0,52.0,1644846127.90625,P08,D09,0,0,0
69,-35.0,-6.0,53.0,1644846127.9375,P08,D09,0,0,0
70,-34.0,-7.0,52.0,1644846127.96875,P08,D09,0,0,0
71,-34.0,-7.0,52.0,1644846128.0,P08,D09,0,0,0
72,-36.0,-7.0,52.0,1644846128.03125,P08,D09,0,0,0
73,-35.0,-7.0,52.0,1644846128.0625,P08,D09,0,0,0
74,-35.0,-7.0,52.0,1644846128.09375,P08,D09,0,0,0
75,-35.0,-7.0,52.0,1644846128.125,P08,D09,0,0,0
76,-35.0,-7.0,53.0,1644846128.15625,P08,D09,0,0,0
77,-35.0,-7.0,52.0,1644846128.1875,P08,D09,0,0,0
78,-34.0,-7.0,53.0,1644846128.21875,P08,D09,0,0,0
79,-35.0,-7.0,53.0,1644846128.25,P08,D09,0,0,0
80,-35.0,-7.0,52.0,1644846128.28125,P08,D09,0,0,0
81,-36.0,-7.0,52.0,1644846128.3125,P08,D09,0,0,0
82,-35.0,-7.0,52.0,1644846128.34375,P08,D09,0,0,0
83,-35.0,-7.0,53.0,1644846128.375,P08,D09,0,0,0
84,-35.0,-7.0,53.0,1644846128.40625,P08,D09,0,0,0
85,-35.0,-7.0,52.0,1644846128.4375,P08,D09,0,0,0
86,-35.0,-7.0,52.0,1644846128.46875,P08,D09,0,0,0
87,-35.0,-7.0,52.0,1644846128.5,P08,D09,0,0,0
88,-35.0,-7.0,52.0,1644846128.53125,P08,D09,0,0,0
89,-35.0,-7.0,53.0,1644846128.5625,P08,D09,0,0,0
90,-35.0,-7.0,53.0,1644846128.59375,P08,D09,0,0,0
91,-35.0,-7.0,52.0,1644846128.625,P08,D09,0,0,0
92,-35.0,-7.0,52.0,1644846128.65625,P08,D09,0,0,0
93,-35.0,-7.0,53.0,1644846128.6875,P08,D09,0,0,0
94,-36.0,-7.0,52.0,1644846128.71875,P08,D09,0,0,0
95,-35.0,-7.0,52.0,1644846128.75,P08,D09,0,0,0
96,-35.0,-7.0,52.0,1644846128.78125,P08,D09,0,0,0
97,-35.0,-6.0,52.0,1644846128.8125,P08,D09,0,0,0
98,-35.0,-7.0,52.0,1644846128.84375,P08,D09,0,0,0
99,-35.0,-7.0,52.0,1644846128.875,P08,D09,0,0,0
100,-35.0,-6.0,52.0,1644846128.90625,P08,D09,0,0,0
101,-36.0,-6.0,52.0,1644846128.9375,P08,D09,0,0,0
102,-35.0,-6.0,52.0,1644846128.96875,P08,D09,0,0,0
103,-35.0,-6.0,53.0,1644846129.0,P08,D09,0,0,0
104,-35.0,-7.0,52.0,1644846129.03125,P08,D09,0,0,0
105,-35.0,-6.0,53.0,1644846129.0625,P08,D09,0,0,0
106,-35.0,-5.0,53.0,1644846129.09375,P08,D09,0,0,0
107,-35.0,-6.0,52.0,1644846129.125,P08,D09,0,0,0
108,-35.0,-7.0,51.0,1644846129.15625,P08,D09,0,0,0
109,-36.0,-6.0,52.0,1644846129.1875,P08,D09,0,0,0
110,-36.0,-6.0,53.0,1644846129.21875,P08,D09,0,0,0
111,-36.0,-7.0,52.0,1644846129.25,P08,D09,0,0,0
112,-35.0,-7.0,52.0,1644846129.28125,P08,D09,0,0,0
113,-35.0,-7.0,52.0,1644846129.3125,P08,D09,0,0,0
114,-35.0,-6.0,52.0,1644846129.34375,P08,D09,0,0,0
115,-35.0,-5.0,52.0,1644846129.375,P08,D09,0,0,0
116,-35.0,-4.0,53.0,1644846129.40625,P08,D09,0,0,0
117,-35.0,-5.0,53.0,1644846129.4375,P08,D09,0,0,0
118,-37.0,-7.0,51.0,1644846129.46875,P08,D09,0,0,0
119,-37.0,-6.0,51.0,1644846129.5,P08,D09,0,0,0
120,-38.0,-7.0,51.0,1644846129.53125,P08,D09,0,0,0
121,-37.0,-6.0,51.0,1644846129.5625,P08,D09,0,0,0
122,-36.0,-4.0,52.0,1644846129.59375,P08,D09,0,0,0
123,-36.0,-6.0,51.0,1644846129.625,P08,D09,0,0,0
124,-38.0,-3.0,51.0,1644846129.65625,P08,D09,0,0,0
125,-35.0,0.0,54.0,1644846129.6875,P08,D09,0,0,0
126,-33.0,0.0,55.0,1644846129.71875,P08,D09,0,0,0
127,-30.0,-1.0,56.0,1644846129.75,P08,D09,0,0,0
128,-31.0,-1.0,55.0,1644846129.78125,P08,D09,0,0,0
129,-35.0,-4.0,52.0,1644846129.8125,P08,D09,0,0,0
130,-37.0,-3.0,52.0,1644846129.84375,P08,D09,0,0,0
131,-37.0,-1.0,52.0,1644846129.875,P08,D09,0,0,0
132,-37.0,-1.0,52.0,1644846129.90625,P08,D09,0,0,0
133,-36.0,-1.0,52.0,1644846129.9375,P08,D09,0,0,0
134,-36.0,0.0,52.0,1644846129.96875,P08,D09,0,0,0
135,-37.0,-2.0,52.0,1644846130.0,P08,D09,0,0,0
136,-37.0,-3.0,51.0,1644846130.03125,P08,D09,0,0,0
137,-37.0,-3.0,52.0,1644846130.0625,P08,D09,0,0,0
138,-38.0,-2.0,52.0,1644846130.09375,P08,D09,0,0,0
139,-38.0,-1.0,52.0,1644846130.125,P08,D09,0,0,0
140,-38.0,-2.0,51.0,1644846130.15625,P08,D09,0,0,0
141,-37.0,-2.0,51.0,1644846130.1875,P08,D09,0,0,0
142,-35.0,0.0,53.0,1644846130.21875,P08,D09,0,0,0
143,-35.0,0.0,54.0,1644846130.25,P08,D09,0,0,0
144,-35.0,-1.0,53.0,1644846130.28125,P08,D09,0,0,0
145,-34.0,-1.0,53.0,1644846130.3125,P08,D09,0,0,0
146,-36.0,-3.0,51.0,1644846130.34375,P08,D09,0,0,0
147,-36.0,-3.0,51.0,1644846130.375,P08,D09,0,0,0
148,-36.0,-1.0,53.0,1644846130.40625,P08,D09,0,0,0
149,-36.0,-1.0,53.0,1644846130.4375,P08,D09,0,0,0
150,-36.0,-1.0,53.0,1644846130.46875,P08,D09,0,0,0
151,-35.0,-2.0,52.0,1644846130.5,P08,D09,0,0,0
152,-37.0,-1.0,51.0,1644846130.53125,P08,D09,0,0,0
153,-36.0,1.0,50.0,1644846130.5625,P08,D09,0,0,0
154,-42.0,-4.0,53.0,1644846130.59375,P08,D09,0,0,0
155,-31.0,-1.0,54.0,1644846130.625,P08,D09,0,0,0
156,-32.0,0.0,53.0,1644846130.65625,P08,D09,0,0,0
157,-32.0,-1.0,54.0,1644846130.6875,P08,D09,0,0,0
158,-30.0,0.0,56.0,1644846130.71875,P08,D09,0,0,0
159,-37.0,0.0,53.0,1644846130.75,P08,D09,0,0,0
160,-44.0,0.0,49.0,1644846130.78125,P08,D09,0,0,0
161,-36.0,0.0,51.0,1644846130.8125,P08,D09,0,0,0
162,-40.0,-7.0,47.0,1644846130.84375,P08,D09,0,0,0
163,-39.0,-10.0,48.0,1644846130.875,P08,D09,0,0,0
164,-38.0,-2.0,51.0,1644846130.90625,P08,D09,0,0,0
165,-34.0,0.0,56.0,1644846130.9375,P08,D09,0,0,0
166,-36.0,0.0,54.0,1644846130.96875,P08,D09,0,0,0
167,-33.0,-2.0,55.0,1644846131.0,P08,D09,0,0,0
168,-32.0,-1.0,53.0,1644846131.03125,P08,D09,0,0,0
169,-32.0,-1.0,53.0,1644846131.0625,P08,D09,0,0,0
170,-35.0,1.0,53.0,1644846131.09375,P08,D09,0,0,0
171,-41.0,-1.0,50.0,1644846131.125,P08,D09,0,0,0
172,-41.0,-2.0,50.0,1644846131.15625,P08,D09,0,0,0
173,-36.0,-2.0,52.0,1644846131.1875,P08,D09,0,0,0
174,-35.0,-2.0,52.0,1644846131.21875,P08,D09,0,0,0
175,-35.0,-2.0,52.0,1644846131.25,P08,D09,0,0,0
176,-36.0,-1.0,52.0,1644846131.28125,P08,D09,0,0,0
177,-37.0,-1.0,52.0,1644846131.3125,P08,D09,0,0,0
178,-37.0,-1.0,52.0,1644846131.34375,P08,D09,0,0,0
179,-36.0,-1.0,52.0,1644846131.375,P08,D09,0,0,0
180,-36.0,-1.0,53.0,1644846131.40625,P08,D09,0,0,0
181,-36.0,0.0,53.0,1644846131.4375,P08,D09,0,0,0
182,-36.0,0.0,53.0,1644846131.46875,P08,D09,0,0,0
183,-37.0,-2.0,52.0,1644846131.5,P08,D09,0,0,0
184,-37.0,-3.0,51.0,1644846131.53125,P08,D09,0,0,0
185,-37.0,-2.0,51.0,1644846131.5625,P08,D09,0,0,0
186,-36.0,-1.0,52.0,1644846131.59375,P08,D09,0,0,0
187,-36.0,-1.0,52.0,1644846131.625,P08,D09,0,0,0
188,-36.0,0.0,52.0,1644846131.65625,P08,D09,0,0,0
189,-37.0,-1.0,52.0,1644846131.6875,P08,D09,0,0,0
190,-37.0,-4.0,51.0,1644846131.71875,P08,D09,0,0,0
191,-38.0,-2.0,53.0,1644846131.75,P08,D09,0,0,0
192,-38.0,-4.0,49.0,1644846131.78125,P08,D09,0,0,0
193,-36.0,-4.0,50.0,1644846131.8125,P08,D09,0,0,0
194,-37.0,-5.0,50.0,1644846131.84375,P08,D09,0,0,0
195,-38.0,-2.0,51.0,1644846131.875,P08,D09,0,0,0
196,-38.0,-1.0,52.0,1644846131.90625,P08,D09,0,0,0
197,-37.0,-2.0,52.0,1644846131.9375,P08,D09,0,0,0
198,-36.0,-3.0,51.0,1644846131.96875,P08,D09,0,0,0
199,-37.0,-4.0,50.0,1644846132.0,P08,D09,0,0,0
200,-38.0,-4.0,51.0,1644846132.03125,P08,D09,0,0,0
201,-38.0,-3.0,52.0,1644846132.0625,P08,D09,0,0,0
202,-37.0,-3.0,53.0,1644846132.09375,P08,D09,0,0,0
203,-37.0,-7.0,50.0,1644846132.125,P08,D09,0,0,0
204,-35.0,-6.0,50.0,1644846132.15625,P08,D09,0,0,0
205,-37.0,-2.0,52.0,1644846132.1875,P08,D09,0,0,0
206,-36.0,-1.0,52.0,1644846132.21875,P08,D09,0,0,0
207,-36.0,0.0,53.0,1644846132.25,P08,D09,0,0,0
208,-37.0,-1.0,53.0,1644846132.28125,P08,D09,0,0,0
209,-38.0,1.0,52.0,1644846132.3125,P08,D09,0,0,0
210,-37.0,-2.0,52.0,1644846132.34375,P08,D09,0,0,0
211,-37.0,-4.0,51.0,1644846132.375,P08,D09,0,0,0
212,-39.0,-4.0,50.0,1644846132.40625,P08,D09,0,0,0
213,-39.0,-3.0,50.0,1644846132.4375,P08,D09,0,0,0
214,-38.0,-3.0,51.0,1644846132.46875,P08,D09,0,0,0
215,-36.0,-4.0,50.0,1644846132.5,P08,D09,0,0,0
216,-34.0,-1.0,53.0,1644846132.53125,P08,D09,0,0,0
217,-32.0,0.0,55.0,1644846132.5625,P08,D09,0,0,0
218,-33.0,1.0,56.0,1644846132.59375,P08,D09,0,0,0
219,-33.0,0.0,54.0,1644846132.625,P08,D09,0,0,0
220,-35.0,0.0,53.0,1644846132.65625,P08,D09,0,0,0
221,-37.0,-1.0,51.0,1644846132.6875,P08,D09,0,0,0
222,-38.0,-3.0,50.0,1644846132.71875,P08,D09,0,0,0
223,-41.0,-3.0,49.0,1644846132.75,P08,D09,0,0,0
224,-41.0,-2.0,49.0,1644846132.78125,P08,D09,0,0,0
225,-35.0,0.0,52.0,1644846132.8125,P08,D09,0,0,0
226,-33.0,1.0,53.0,1644846132.84375,P08,D09,0,0,0
227,-33.0,0.0,54.0,1644846132.875,P08,D09,0,0,0
228,-34.0,1.0,54.0,1644846132.90625,P08,D09,0,0,0
229,-35.0,-3.0,53.0,1644846132.9375,P08,D09,0,0,0
230,-38.0,-2.0,51.0,1644846132.96875,P08,D09,0,0,0
231,-39.0,-1.0,51.0,1644846133.0,P08,D09,0,0,0
232,-37.0,-6.0,50.0,1644846133.03125,P08,D09,0,0,0
233,-37.0,3.0,50.0,1644846133.0625,P08,D09,0,0,0
234,-34.0,3.0,53.0,1644846133.09375,P08,D09,0,0,0
235,-33.0,3.0,55.0,1644846133.125,P08,D09,0,0,0
236,-33.0,1.0,54.0,1644846133.15625,P08,D09,0,0,0
237,-37.0,5.0,52.0,1644846133.1875,P08,D09,0,0,0
238,-35.0,1.0,54.0,1644846133.21875,P08,D09,0,0,0
239,-36.0,-1.0,54.0,1644846133.25,P08,D09,0,0,0
240,-36.0,-7.0,52.0,1644846133.28125,P08,D09,0,0,0
241,-37.0,-7.0,50.0,1644846133.3125,P08,D09,0,0,0
242,-37.0,-9.0,49.0,1644846133.34375,P08,D09,0,0,0
243,-38.0,-9.0,48.0,1644846133.375,P08,D09,0,0,0
244,-37.0,-8.0,49.0,1644846133.40625,P08,D09,0,0,0
245,-35.0,-5.0,53.0,1644846133.4375,P08,D09,0,0,0
246,-35.0,-4.0,54.0,1644846133.46875,P08,D09,0,0,0
247,-33.0,-4.0,54.0,1644846133.5,P08,D09,0,0,0
248,-33.0,-2.0,55.0,1644846133.53125,P08,D09,0,0,0
249,-35.0,-1.0,53.0,1644846133.5625,P08,D09,0,0,0
250,-37.0,-1.0,53.0,1644846133.59375,P08,D09,0,0,0
251,-37.0,-1.0,52.0,1644846133.625,P08,D09,0,0,0
252,-37.0,-1.0,52.0,1644846133.65625,P08,D09,0,0,0
253,-35.0,-2.0,53.0,1644846133.6875,P08,D09,0,0,0
254,-36.0,-5.0,52.0,1644846133.71875,P08,D09,0,0,0
255,-37.0,-4.0,52.0,1644846133.75,P08,D09,0,0,0
256,-38.0,-3.0,51.0,1644846133.78125,P08,D09,0,0,0
257,-37.0,-3.0,51.0,1644846133.8125,P08,D09,0,0,0
258,-36.0,-2.0,52.0,1644846133.84375,P08,D09,0,0,0
259,-36.0,-2.0,53.0,1644846133.875,P08,D09,0,0,0
260,-37.0,-4.0,52.0,1644846133.90625,P08,D09,0,0,0
261,-37.0,-4.0,51.0,1644846133.9375,P08,D09,0,0,0
262,-37.0,-5.0,51.0,1644846133.96875,P08,D09,0,0,0
263,-35.0,-4.0,52.0,1644846134.0,P08,D09,0,0,0
264,-36.0,-4.0,53.0,1644846134.03125,P08,D09,0,0,0
265,-32.0,-7.0,53.0,1644846134.0625,P08,D09,0,0,0
266,-32.0,-6.0,53.0,1644846134.09375,P08,D09,0,0,0
267,-32.0,-7.0,52.0,1644846134.125,P08,D09,0,0,0
268,-36.0,-5.0,53.0,1644846134.15625,P08,D09,0,0,0
269,-38.0,-3.0,53.0,1644846134.1875,P08,D09,0,0,0
270,-42.0,-6.0,51.0,1644846134.21875,P08,D09,0,0,0
271,-36.0,0.0,53.0,1644846134.25,P08,D09,0,0,0
272,-38.0,3.0,53.0,1644846134.28125,P08,D09,0,0,0
273,-35.0,3.0,52.0,1644846134.3125,P08,D09,0,0,0
274,-37.0,3.0,52.0,1644846134.34375,P08,D09,0,0,0
275,-39.0,-1.0,51.0,1644846134.375,P08,D09,0,0,0
276,-38.0,-1.0,51.0,1644846134.40625,P08,D09,0,0,0
277,-34.0,-4.0,53.0,1644846134.4375,P08,D09,0,0,0
278,-34.0,-3.0,54.0,1644846134.46875,P08,D09,0,0,0
279,-34.0,-3.0,54.0,1644846134.5,P08,D09,0,0,0
280,-34.0,-3.0,53.0,1644846134.53125,P08,D09,0,0,0
281,-34.0,-3.0,53.0,1644846134.5625,P08,D09,0,0,0
282,-38.0,-4.0,51.0,1644846134.59375,P08,D09,0,0,0
283,-36.0,-4.0,51.0,1644846134.625,P08,D09,0,0,0
284,-35.0,-4.0,52.0,1644846134.65625,P08,D09,0,0,0
285,-36.0,-3.0,53.0,1644846134.6875,P08,D09,0,0,0
286,-38.0,-3.0,51.0,1644846134.71875,P08,D09,0,0,0
287,-36.0,-3.0,53.0,1644846134.75,P08,D09,0,0,0
288,-36.0,-3.0,53.0,1644846134.78125,P08,D09,0,0,0
289,-35.0,-5.0,52.0,1644846134.8125,P08,D09,0,0,0
290,-35.0,-4.0,52.0,1644846134.84375,P08,D09,0,0,0
291,-36.0,-3.0,53.0,1644846134.875,P08,D09,0,0,0
292,-36.0,-2.0,53.0,1644846134.90625,P08,D09,0,0,0
293,-36.0,-2.0,53.0,1644846134.9375,P08,D09,0,0,0
294,-36.0,-3.0,53.0,1644846134.96875,P08,D09,0,0,0
295,-36.0,-4.0,51.0,1644846135.0,P08,D09,0,0,0
296,-37.0,-3.0,52.0,1644846135.03125,P08,D09,0,0,0
297,-35.0,-3.0,52.0,1644846135.0625,P08,D09,0,0,0
298,-36.0,-3.0,52.0,1644846135.09375,P08,D09,0,0,0
299,-35.0,-3.0,52.0,1644846135.125,P08,D09,0,0,0
300,-35.0,-2.0,53.0,1644846135.15625,P08,D09,0,0,0
301,-35.0,-3.0,52.0,1644846135.1875,P08,D09,0,0,0
302,-35.0,-3.0,53.0,1644846135.21875,P08,D09,0,0,0
303,-37.0,-4.0,51.0,1644846135.25,P08,D09,0,0,0
304,-35.0,-4.0,52.0,1644846135.28125,P08,D09,0,0,0
305,-33.0,-3.0,53.0,1644846135.3125,P08,D09,0,0,0
306,-32.0,-3.0,54.0,1644846135.34375,P08,D09,0,0,0
307,-33.0,-2.0,54.0,1644846135.375,P08,D09,0,0,0
308,-34.0,-2.0,53.0,1644846135.40625,P08,D09,0,0,0
309,-36.0,-3.0,52.0,1644846135.4375,P08,D09,0,0,0
310,-36.0,-3.0,52.0,1644846135.46875,P08,D09,0,0,0
311,-37.0,-3.0,51.0,1644846135.5,P08,D09,0,0,0
312,-37.0,-4.0,51.0,1644846135.53125,P08,D09,0,0,0
313,-35.0,-3.0,53.0,1644846135.5625,P08,D09,0,0,0
314,-37.0,-4.0,52.0,1644846135.59375,P08,D09,0,0,0
315,-34.0,-3.0,53.0,1644846135.625,P08,D09,0,0,0
316,-34.0,-3.0,54.0,1644846135.65625,P08,D09,0,0,0
317,-33.0,-3.0,54.0,1644846135.6875,P08,D09,0,0,0
318,-34.0,-2.0,53.0,1644846135.71875,P08,D09,0,0,0
319,-36.0,-3.0,52.0,1644846135.75,P08,D09,0,0,0
320,-36.0,-3.0,52.0,1644846135.78125,P08,D09,0,0,0
321,-37.0,-3.0,52.0,1644846135.8125,P08,D09,0,0,0
322,-36.0,-3.0,52.0,1644846135.84375,P08,D09,0,0,0
323,-35.0,-3.0,53.0,1644846135.875,P08,D09,0,0,0
324,-35.0,-3.0,53.0,1644846135.90625,P08,D09,0,0,0
325,-36.0,-3.0,52.0,1644846135.9375,P08,D09,0,0,0
326,-36.0,-3.0,52.0,1644846135.96875,P08,D09,0,0,0
327,-37.0,-4.0,51.0,1644846136.0,P08,D09,0,0,0
328,-37.0,-4.0,52.0,1644846136.03125,P08,D09,0,0,0
329,-36.0,-4.0,52.0,1644846136.0625,P08,D09,0,0,0
330,-34.0,-5.0,52.0,1644846136.09375,P08,D09,0,0,0
331,-34.0,-4.0,52.0,1644846136.125,P08,D09,0,0,0
332,-34.0,-4.0,53.0,1644846136.15625,P08,D09,0,0,0
333,-35.0,-3.0,53.0,1644846136.1875,P08,D09,0,0,0
334,-36.0,-3.0,53.0,1644846136.21875,P08,D09,0,0,0
335,-38.0,-3.0,51.0,1644846136.25,P08,D09,0,0,0
336,-38.0,-4.0,50.0,1644846136.28125,P08,D09,0,0,0
337,-38.0,-4.0,51.0,1644846136.3125,P08,D09,0,0,0
338,-38.0,-4.0,51.0,1644846136.34375,P08,D09,0,0,0
339,-36.0,-3.0,52.0,1644846136.375,P08,D09,0,0,0
340,-36.0,-4.0,52.0,1644846136.40625,P08,D09,0,0,0
341,-36.0,-4.0,52.0,1644846136.4375,P08,D09,0,0,0
342,-36.0,-3.0,52.0,1644846136.46875,P08,D09,0,0,0
343,-36.0,-3.0,52.0,1644846136.5,P08,D09,0,0,0
344,-37.0,-4.0,52.0,1644846136.53125,P08,D09,0,0,0
345,-37.0,-4.0,52.0,1644846136.5625,P08,D09,0,0,0
346,-36.0,-4.0,52.0,1644846136.59375,P08,D09,0,0,0
347,-36.0,-4.0,52.0,1644846136.625,P08,D09,0,0,0
348,-36.0,-4.0,52.0,1644846136.65625,P08,D09,0,0,0
349,-36.0,-4.0,52.0,1644846136.6875,P08,D09,0,0,0
350,-36.0,-4.0,52.0,1644846136.71875,P08,D09,0,0,0
351,-36.0,-4.0,52.0,1644846136.75,P08,D09,0,0,0
352,-36.0,-4.0,52.0,1644846136.78125,P08,D09,0,0,0
353,-36.0,-4.0,52.0,1644846136.8125,P08,D09,0,0,0
354,-36.0,-4.0,52.0,1644846136.84375,P08,D09,0,0,0
355,-36.0,-4.0,52.0,1644846136.875,P08,D09,0,0,0
356,-36.0,-4.0,52.0,1644846136.90625,P08,D09,0,0,0
357,-36.0,-4.0,52.0,1644846136.9375,P08,D09,0,0,0
358,-36.0,-4.0,52.0,1644846136.96875,P08,D09,0,0,0
359,-35.0,-4.0,52.0,1644846137.0,P08,D09,0,0,0
360,-36.0,-3.0,53.0,1644846137.03125,P08,D09,0,0,0
361,-36.0,-3.0,53.0,1644846137.0625,P08,D09,0,0,0
362,-36.0,-4.0,52.0,1644846137.09375,P08,D09,0,0,0
363,-37.0,-4.0,52.0,1644846137.125,P08,D09,0,0,0
364,-37.0,-4.0,52.0,1644846137.15625,P08,D09,0,0,0
365,-36.0,-4.0,52.0,1644846137.1875,P08,D09,0,0,0
366,-36.0,-4.0,52.0,1644846137.21875,P08,D09,0,0,0
367,-36.0,-4.0,52.0,1644846137.25,P08,D09,0,0,0
368,-36.0,-4.0,52.0,1644846137.28125,P08,D09,0,0,0
369,-36.0,-4.0,52.0,1644846137.3125,P08,D09,0,0,0
370,-36.0,-4.0,53.0,1644846137.34375,P08,D09,0,0,0
371,-36.0,-4.0,52.0,1644846137.375,P08,D09,0,0,0
372,-37.0,-4.0,51.0,1644846137.40625,P08,D09,0,0,0
373,-37.0,-4.0,51.0,1644846137.4375,P08,D09,0,0,0
374,-36.0,-4.0,52.0,1644846137.46875,P08,D09,0,0,0
375,-36.0,-3.0,52.0,1644846137.5,P08,D09,0,0,0
376,-36.0,-4.0,52.0,1644846137.53125,P08,D09,0,0,0
377,-36.0,-4.0,52.0,1644846137.5625,P08,D09,0,0,0
378,-37.0,-4.0,52.0,1644846137.59375,P08,D09,0,0,0
379,-37.0,-4.0,52.0,1644846137.625,P08,D09,0,0,0
380,-36.0,-4.0,52.0,1644846137.65625,P08,D09,0,0,0
381,-37.0,-4.0,52.0,1644846137.6875,P08,D09,0,0,0
382,-37.0,-3.0,52.0,1644846137.71875,P08,D09,0,0,0
383,-37.0,-4.0,53.0,1644846137.75,P08,D09,0,0,0
384,-38.0,-3.0,52.0,1644846137.78125,P08,D09,0,0,0
385,-37.0,-5.0,51.0,1644846137.8125,P08,D09,0,0,0
386,-35.0,-6.0,50.0,1644846137.84375,P08,D09,0,0,0
387,-34.0,-6.0,52.0,1644846137.875,P08,D09,0,0,0
388,-35.0,-5.0,53.0,1644846137.90625,P08,D09,0,0,0
389,-36.0,-4.0,53.0,1644846137.9375,P08,D09,0,0,0
390,-37.0,-5.0,52.0,1644846137.96875,P08,D09,0,0,0
391,-37.0,-5.0,51.0,1644846138.0,P08,D09,0,0,0
392,-37.0,-5.0,51.0,1644846138.03125,P08,D09,0,0,0
393,-37.0,-5.0,52.0,1644846138.0625,P08,D09,0,0,0
394,-37.0,-5.0,52.0,1644846138.09375,P08,D09,0,0,0
395,-36.0,-4.0,53.0,1644846138.125,P08,D09,0,0,0
396,-36.0,-5.0,52.0,1644846138.15625,P08,D09,0,0,0
397,-36.0,-5.0,51.0,1644846138.1875,P08,D09,0,0,0
398,-36.0,-6.0,52.0,1644846138.21875,P08,D09,0,0,0
399,-36.0,-5.0,52.0,1644846138.25,P08,D09,0,0,0
400,-36.0,-5.0,52.0,1644846138.28125,P08,D09,0,0,0
401,-36.0,-5.0,53.0,1644846138.3125,P08,D09,0,0,0
402,-36.0,-5.0,52.0,1644846138.34375,P08,D09,0,0,0
403,-35.0,-6.0,52.0,1644846138.375,P08,D09,0,0,0
404,-35.0,-5.0,52.0,1644846138.40625,P08,D09,0,0,0
405,-37.0,-4.0,52.0,1644846138.4375,P08,D09,0,0,0
406,-38.0,-5.0,52.0,1644846138.46875,P08,D09,0,0,0
407,-38.0,-5.0,51.0,1644846138.5,P08,D09,0,0,0
408,-38.0,-5.0,51.0,1644846138.53125,P08,D09,0,0,0
409,-36.0,-5.0,51.0,1644846138.5625,P08,D09,0,0,0
410,-36.0,-5.0,51.0,1644846138.59375,P08,D09,0,0,0
411,-37.0,-5.0,52.0,1644846138.625,P08,D09,0,0,0
412,-37.0,-5.0,52.0,1644846138.65625,P08,D09,0,0,0
413,-37.0,-4.0,52.0,1644846138.6875,P08,D09,0,0,0
414,-37.0,-5.0,52.0,1644846138.71875,P08,D09,0,0,0
415,-37.0,-5.0,51.0,1644846138.75,P08,D09,0,0,0
416,-37.0,-5.0,52.0,1644846138.78125,P08,D09,0,0,0
417,-37.0,-5.0,52.0,1644846138.8125,P08,D09,0,0,0
418,-37.0,-5.0,52.0,1644846138.84375,P08,D09,0,0,0
419,-37.0,-5.0,51.0,1644846138.875,P08,D09,0,0,0
420,-35.0,-5.0,51.0,1644846138.90625,P08,D09,0,0,0
421,-35.0,-5.0,52.0,1644846138.9375,P08,D09,0,0,0
422,-35.0,-5.0,53.0,1644846138.96875,P08,D09,0,0,0
423,-36.0,-5.0,52.0,1644846139.0,P08,D09,0,0,0
424,-37.0,-5.0,52.0,1644846139.03125,P08,D09,0,0,0
425,-37.0,-5.0,51.0,1644846139.0625,P08,D09,0,0,0
426,-37.0,-5.0,51.0,1644846139.09375,P08,D09,0,0,0
427,-37.0,-5.0,51.0,1644846139.125,P08,D09,0,0,0
428,-36.0,-5.0,52.0,1644846139.15625,P08,D09,0,0,0
429,-36.0,-5.0,52.0,1644846139.1875,P08,D09,0,0,0
430,-36.0,-5.0,52.0,1644846139.21875,P08,D09,0,0,0
431,-37.0,-5.0,52.0,1644846139.25,P08,D09,0,0,0
432,-36.0,-5.0,51.0,1644846139.28125,P08,D09,0,0,0
433,-37.0,-5.0,52.0,1644846139.3125,P08,D09,0,0,0
434,-36.0,-5.0,52.0,1644846139.34375,P08,D09,0,0,0
435,-36.0,-5.0,52.0,1644846139.375,P08,D09,0,0,0
436,-37.0,-4.0,52.0,1644846139.40625,P08,D09,0,0,0
437,-36.0,-5.0,52.0,1644846139.4375,P08,D09,0,0,0
438,-36.0,-4.0,52.0,1644846139.46875,P08,D09,0,0,0
439,-36.0,-5.0,52.0,1644846139.5,P08,D09,0,0,0
440,-36.0,-5.0,52.0,1644846139.53125,P08,D09,0,0,0
441,-36.0,-5.0,52.0,1644846139.5625,P08,D09,0,0,0
442,-36.0,-5.0,52.0,1644846139.59375,P08,D09,0,0,0
443,-36.0,-5.0,52.0,1644846139.625,P08,D09,0,0,0
444,-36.0,-5.0,52.0,1644846139.65625,P08,D09,0,0,0
445,-36.0,-5.0,52.0,1644846139.6875,P08,D09,0,0,0
446,-36.0,-5.0,52.0,1644846139.71875,P08,D09,0,0,0
447,-36.0,-4.0,52.0,1644846139.75,P08,D09,0,0,0
448,-36.0,-5.0,52.0,1644846139.78125,P08,D09,0,0,0
449,-36.0,-5.0,52.0,1644846139.8125,P08,D09,0,0,0
450,-37.0,-5.0,52.0,1644846139.84375,P08,D09,0,0,0
451,-36.0,-4.0,52.0,1644846139.875,P08,D09,0,0,0
452,-36.0,-5.0,52.0,1644846139.90625,P08,D09,0,0,0
453,-36.0,-4.0,52.0,1644846139.9375,P08,D09,0,0,0
454,-36.0,-5.0,52.0,1644846139.96875,P08,D09,0,0,0
455,-36.0,-5.0,52.0,1644846140.0,P08,D09,0,0,0
456,-37.0,-5.0,52.0,1644846140.03125,P08,D09,0,0,0
457,-36.0,-5.0,52.0,1644846140.0625,P08,D09,0,0,0
458,-36.0,-4.0,52.0,1644846140.09375,P08,D09,0,0,0
459,-36.0,-4.0,52.0,1644846140.125,P08,D09,0,0,0
460,-36.0,-4.0,52.0,1644846140.15625,P08,D09,0,0,0
461,-36.0,-4.0,52.0,1644846140.1875,P08,D09,0,0,0
462,-36.0,-4.0,52.0,1644846140.21875,P08,D09,0,0,0
463,-36.0,-4.0,52.0,1644846140.25,P08,D09,0,0,0
464,-36.0,-4.0,52.0,1644846140.28125,P08,D09,0,0,0
465,-36.0,-4.0,52.0,1644846140.3125,P08,D09,0,0,0
466,-36.0,-4.0,52.0,1644846140.34375,P08,D09,0,0,0
467,-37.0,-4.0,52.0,1644846140.375,P08,D09,0,0,0
468,-37.0,-3.0,52.0,1644846140.40625,P08,D09,0,0,0
469,-36.0,-5.0,52.0,1644846140.4375,P08,D09,0,0,0
470,-35.0,-4.0,52.0,1644846140.46875,P08,D09,0,0,0
471,-35.0,-3.0,53.0,1644846140.5,P08,D09,0,0,0
472,-36.0,-4.0,53.0,1644846140.53125,P08,D09,0,0,0
473,-37.0,-4.0,52.0,1644846140.5625,P08,D09,0,0,0
474,-37.0,-4.0,51.0,1644846140.59375,P08,D09,0,0,0
475,-37.0,-4.0,51.0,1644846140.625,P08,D09,0,0,0
476,-37.0,-4.0,52.0,1644846140.65625,P08,D09,0,0,0
477,-36.0,-4.0,52.0,1644846140.6875,P08,D09,0,0,0
478,-36.0,-4.0,52.0,1644846140.71875,P08,D09,0,0,0
479,-36.0,-4.0,52.0,1644846140.75,P08,D09,0,0,0
480,-36.0,-4.0,52.0,1644846140.78125,P08,D09,0,0,0
481,-36.0,-4.0,52.0,1644846140.8125,P08,D09,0,0,0
482,-36.0,-4.0,52.0,1644846140.84375,P08,D09,0,0,0
483,-36.0,-4.0,52.0,1644846140.875,P08,D09,0,0,0
484,-37.0,-4.0,52.0,1644846140.90625,P08,D09,0,0,0
485,-37.0,-4.0,52.0,1644846140.9375,P08,D09,0,0,0
486,-36.0,-4.0,52.0,1644846140.96875,P08,D09,0,0,0
487,-36.0,-4.0,52.0,1644846141.0,P08,D09,0,0,0
488,-36.0,-4.0,52.0,1644846141.03125,P08,D09,0,0,0
489,-37.0,-4.0,52.0,1644846141.0625,P08,D09,0,0,0
490,-36.0,-5.0,52.0,1644846141.09375,P08,D09,0,0,0
491,-36.0,-4.0,52.0,1644846141.125,P08,D09,0,0,0
492,-37.0,-4.0,52.0,1644846141.15625,P08,D09,0,0,0
493,-37.0,-4.0,52.0,1644846141.1875,P08,D09,0,0,0
494,-37.0,-4.0,52.0,1644846141.21875,P08,D09,0,0,0
495,-37.0,-4.0,52.0,1644846141.25,P08,D09,0,0,0
496,-37.0,-4.0,52.0,1644846141.28125,P08,D09,0,0,0
497,-37.0,-4.0,52.0,1644846141.3125,P08,D09,0,0,0
498,-37.0,-4.0,52.0,1644846141.34375,P08,D09,0,0,0
499,-36.0,-4.0,52.0,1644846141.375,P08,D09,0,0,0
500,-36.0,-4.0,52.0,1644846141.40625,P08,D09,0,0,0
501,-37.0,-4.0,52.0,1644846141.4375,P08,D09,0,0,0
502,-37.0,-4.0,52.0,1644846141.46875,P08,D09,0,0,0
503,-36.0,-4.0,52.0,1644846141.5,P08,D09,0,0,0
504,-37.0,-4.0,52.0,1644846141.53125,P08,D09,0,0,0
505,-37.0,-4.0,52.0,1644846141.5625,P08,D09,0,0,0
506,-37.0,-4.0,52.0,1644846141.59375,P08,D09,0,0,0
507,-36.0,-4.0,52.0,1644846141.625,P08,D09,0,0,0
508,-37.0,-4.0,51.0,1644846141.65625,P08,D09,0,0,0
509,-37.0,-4.0,52.0,1644846141.6875,P08,D09,0,0,0
510,-37.0,-4.0,52.0,1644846141.71875,P08,D09,0,0,0
511,-36.0,-4.0,52.0,1644846141.75,P08,D09,0,0,0
512,-36.0,-4.0,52.0,1644846141.78125,P08,D09,0,0,0
513,-37.0,-4.0,52.0,1644846141.8125,P08,D09,0,0,0
514,-37.0,-4.0,51.0,1644846141.84375,P08,D09,0,0,0
515,-37.0,-4.0,51.0,1644846141.875,P08,D09,0,0,0
516,-37.0,-4.0,52.0,1644846141.90625,P08,D09,0,0,0
517,-37.0,-4.0,52.0,1644846141.9375,P08,D09,0,0,0
518,-37.0,-4.0,52.0,1644846141.96875,P08,D09,0,0,0
519,-37.0,-4.0,51.0,1644846142.0,P08,D09,0,0,0
520,-37.0,-4.0,52.0,1644846142.03125,P08,D09,0,0,0
521,-37.0,-4.0,51.0,1644846142.0625,P08,D09,0,0,0
522,-37.0,-4.0,51.0,1644846142.09375,P08,D09,0,0,0
523,-37.0,-4.0,52.0,1644846142.125,P08,D09,0,0,0
524,-36.0,-4.0,52.0,1644846142.15625,P08,D09,0,0,0
525,-36.0,-4.0,52.0,1644846142.1875,P08,D09,0,0,0
526,-37.0,-4.0,51.0,1644846142.21875,P08,D09,0,0,0
527,-37.0,-4.0,51.0,1644846142.25,P08,D09,0,0,0
528,-37.0,-4.0,51.0,1644846142.28125,P08,D09,0,0,0
529,-36.0,-4.0,52.0,1644846142.3125,P08,D09,0,0,0
530,-37.0,-4.0,52.0,1644846142.34375,P08,D09,0,0,0
531,-37.0,-4.0,52.0,1644846142.375,P08,D09,0,0,0
532,-37.0,-4.0,52.0,1644846142.40625,P08,D09,0,0,0
533,-37.0,-4.0,52.0,1644846142.4375,P08,D09,0,0,0
534,-37.0,-4.0,52.0,1644846142.46875,P08,D09,0,0,0
535,-37.0,-4.0,52.0,1644846142.5,P08,D09,0,0,0
536,-36.0,-4.0,52.0,1644846142.53125,P08,D09,0,0,0
537,-36.0,-4.0,52.0,1644846142.5625,P08,D09,0,0,0
538,-37.0,-4.0,52.0,1644846142.59375,P08,D09,0,0,0
539,-37.0,-4.0,52.0,1644846142.625,P08,D09,0,0,0
540,-37.0,-4.0,52.0,1644846142.65625,P08,D09,0,0,0
541,-37.0,-4.0,52.0,1644846142.6875,P08,D09,0,0,0
542,-37.0,-4.0,52.0,1644846142.71875,P08,D09,0,0,0
543,-36.0,-4.0,52.0,1644846142.75,P08,D09,0,0,0
544,-36.0,-4.0,52.0,1644846142.78125,P08,D09,0,0,0
545,-36.0,-4.0,52.0,1644846142.8125,P08,D09,0,0,0
546,-37.0,-4.0,52.0,1644846142.84375,P08,D09,0,0,0
547,-37.0,-4.0,52.0,1644846142.875,P08,D09,0,0,0
548,-37.0,-4.0,52.0,1644846142.90625,P08,D09,0,0,0
549,-37.0,-4.0,52.0,1644846142.9375,P08,D09,0,0,0
550,-37.0,-4.0,52.0,1644846142.96875,P08,D09,0,0,0
551,-37.0,-4.0,51.0,1644846143.0,P08,D09,0,0,0
552,-36.0,-4.0,52.0,1644846143.03125,P08,D09,0,0,0
553,-37.0,-4.0,52.0,1644846143.0625,P08,D09,0,0,0
554,-37.0,-4.0,52.0,1644846143.09375,P08,D09,0,0,0
555,-37.0,-4.0,52.0,1644846143.125,P08,D09,0,0,0
556,-37.0,-4.0,52.0,1644846143.15625,P08,D09,0,0,0
557,-37.0,-4.0,51.0,1644846143.1875,P08,D09,0,0,0
558,-37.0,-4.0,52.0,1644846143.21875,P08,D09,0,0,0
559,-37.0,-4.0,52.0,1644846143.25,P08,D09,0,0,0
560,-37.0,-4.0,52.0,1644846143.28125,P08,D09,0,0,0
561,-37.0,-4.0,51.0,1644846143.3125,P08,D09,0,0,0
562,-37.0,-4.0,52.0,1644846143.34375,P08,D09,0,0,0
563,-37.0,-4.0,52.0,1644846143.375,P08,D09,0,0,0
564,-37.0,-4.0,52.0,1644846143.40625,P08,D09,0,0,0
565,-37.0,-4.0,52.0,1644846143.4375,P08,D09,0,0,0
566,-37.0,-5.0,52.0,1644846143.46875,P08,D09,0,0,0
567,-37.0,-4.0,51.0,1644846143.5,P08,D09,0,0,0
568,-37.0,-4.0,51.0,1644846143.53125,P08,D09,0,0,0
569,-37.0,-4.0,52.0,1644846143.5625,P08,D09,0,0,0
570,-37.0,-5.0,52.0,1644846143.59375,P08,D09,0,0,0
571,-37.0,-4.0,52.0,1644846143.625,P08,D09,0,0,0
572,-37.0,-4.0,52.0,1644846143.65625,P08,D09,0,0,0
573,-37.0,-4.0,52.0,1644846143.6875,P08,D09,0,0,0
574,-37.0,-4.0,52.0,1644846143.71875,P08,D09,0,0,0
575,-37.0,-4.0,52.0,1644846143.75,P08,D09,0,0,0
576,-37.0,-4.0,51.0,1644846143.78125,P08,D09,0,0,0
577,-37.0,-5.0,52.0,1644846143.8125,P08,D09,0,0,0
578,-37.0,-4.0,52.0,1644846143.84375,P08,D09,0,0,0
579,-37.0,-4.0,51.0,1644846143.875,P08,D09,0,0,0
580,-36.0,-4.0,52.0,1644846143.90625,P08,D09,0,0,0
581,-36.0,-5.0,52.0,1644846143.9375,P08,D09,0,0,0
582,-37.0,-4.0,52.0,1644846143.96875,P08,D09,0,0,0
583,-37.0,-4.0,52.0,1644846144.0,P08,D09,0,0,0
584,-37.0,-4.0,52.0,1644846144.03125,P08,D09,0,0,0
585,-37.0,-4.0,52.0,1644846144.0625,P08,D09,0,0,0
586,-37.0,-4.0,52.0,1644846144.09375,P08,D09,0,0,0
587,-37.0,-4.0,51.0,1644846144.125,P08,D09,0,0,0
588,-37.0,-4.0,51.0,1644846144.15625,P08,D09,0,0,0
589,-37.0,-4.0,52.0,1644846144.1875,P08,D09,0,0,0
590,-37.0,-4.0,52.0,1644846144.21875,P08,D09,0,0,0
591,-37.0,-4.0,52.0,1644846144.25,P08,D09,0,0,0
592,-37.0,-4.0,52.0,1644846144.28125,P08,D09,0,0,0
593,-37.0,-4.0,52.0,1644846144.3125,P08,D09,0,0,0
594,-37.0,-4.0,52.0,1644846144.34375,P08,D09,0,0,0
595,-37.0,-5.0,51.0,1644846144.375,P08,D09,0,0,0
596,-35.0,-4.0,52.0,1644846144.40625,P08,D09,0,0,0
597,-37.0,-4.0,52.0,1644846144.4375,P08,D09,0,0,0
598,-37.0,-4.0,51.0,1644846144.46875,P08,D09,0,0,0
599,-37.0,-4.0,51.0,1644846144.5,P08,D09,0,0,0
600,-37.0,-4.0,52.0,1644846144.53125,P08,D09,0,0,0
601,-37.0,-4.0,52.0,1644846144.5625,P08,D09,0,0,0
602,-37.0,-4.0,52.0,1644846144.59375,P08,D09,0,0,0
603,-37.0,-4.0,52.0,1644846144.625,P08,D09,0,0,0
604,-37.0,-4.0,52.0,1644846144.65625,P08,D09,0,0,0
605,-36.0,-4.0,52.0,1644846144.6875,P08,D09,0,0,0
606,-37.0,-4.0,52.0,1644846144.71875,P08,D09,0,0,0
607,-37.0,-4.0,52.0,1644846144.75,P08,D09,0,0,0
608,-36.0,-4.0,52.0,1644846144.78125,P08,D09,0,0,0
609,-37.0,-4.0,52.0,1644846144.8125,P08,D09,0,0,0
610,-37.0,-5.0,52.0,1644846144.84375,P08,D09,0,0,0
611,-37.0,-5.0,52.0,1644846144.875,P08,D09,0,0,0
612,-37.0,-5.0,51.0,1644846144.90625,P08,D09,0,0,0
613,-36.0,-5.0,52.0,1644846144.9375,P08,D09,0,0,0
614,-36.0,-4.0,52.0,1644846144.96875,P08,D09,0,0,0
615,-37.0,-4.0,52.0,1644846145.0,P08,D09,0,0,0
616,-37.0,-4.0,52.0,1644846145.03125,P08,D09,0,0,0
617,-37.0,-4.0,52.0,1644846145.0625,P08,D09,0,0,0
618,-37.0,-5.0,51.0,1644846145.09375,P08,D09,0,0,0
619,-37.0,-4.0,52.0,1644846145.125,P08,D09,0,0,0
620,-37.0,-4.0,52.0,1644846145.15625,P08,D09,0,0,0
621,-36.0,-4.0,52.0,1644846145.1875,P08,D09,0,0,0
622,-36.0,-5.0,52.0,1644846145.21875,P08,D09,0,0,0
623,-36.0,-4.0,52.0,1644846145.25,P08,D09,0,0,0
624,-36.0,-5.0,52.0,1644846145.28125,P08,D09,0,0,0
625,-37.0,-5.0,51.0,1644846145.3125,P08,D09,0,0,0
626,-36.0,-5.0,52.0,1644846145.34375,P08,D09,0,0,0
627,-36.0,-5.0,52.0,1644846145.375,P08,D09,0,0,0
628,-36.0,-5.0,52.0,1644846145.40625,P08,D09,0,0,0
629,-37.0,-4.0,52.0,1644846145.4375,P08,D09,0,0,0
630,-37.0,-5.0,52.0,1644846145.46875,P08,D09,0,0,0
631,-36.0,-4.0,52.0,1644846145.5,P08,D09,0,0,0
632,-36.0,-5.0,52.0,1644846145.53125,P08,D09,0,0,0
633,-37.0,-4.0,52.0,1644846145.5625,P08,D09,0,0,0
634,-37.0,-5.0,52.0,1644846145.59375,P08,D09,0,0,0
635,-36.0,-5.0,51.0,1644846145.625,P08,D09,0,0,0
636,-37.0,-5.0,52.0,1644846145.65625,P08,D09,0,0,0
637,-37.0,-5.0,52.0,1644846145.6875,P08,D09,0,0,0
638,-36.0,-5.0,52.0,1644846145.71875,P08,D09,0,0,0
639,-37.0,-5.0,52.0,1644846145.75,P08,D09,0,0,0
640,-37.0,-5.0,52.0,1644846145.78125,P08,D09,0,0,0
641,-36.0,-5.0,52.0,1644846145.8125,P08,D09,0,0,0
642,-37.0,-5.0,52.0,1644846145.84375,P08,D09,0,0,0
643,-36.0,-4.0,52.0,1644846145.875,P08,D09,0,0,0
644,-37.0,-5.0,52.0,1644846145.90625,P08,D09,0,0,0
645,-36.0,-5.0,52.0,1644846145.9375,P08,D09,0,0,0
646,-36.0,-5.0,52.0,1644846145.96875,P08,D09,0,0,0
647,-36.0,-5.0,52.0,1644846146.0,P08,D09,0,0,0
648,-37.0,-4.0,52.0,1644846146.03125,P08,D09,0,0,0
649,-37.0,-5.0,52.0,1644846146.0625,P08,D09,0,0,0
650,-36.0,-5.0,52.0,1644846146.09375,P08,D09,0,0,0
651,-36.0,-5.0,52.0,1644846146.125,P08,D09,0,0,0
652,-36.0,-5.0,52.0,1644846146.15625,P08,D09,0,0,0
653,-36.0,-5.0,52.0,1644846146.1875,P08,D09,0,0,0
654,-36.0,-5.0,52.0,1644846146.21875,P08,D09,0,0,0
655,-37.0,-5.0,52.0,1644846146.25,P08,D09,0,0,0
656,-37.0,-5.0,52.0,1644846146.28125,P08,D09,0,0,0
657,-37.0,-5.0,52.0,1644846146.3125,P08,D09,0,0,0
658,-36.0,-5.0,52.0,1644846146.34375,P08,D09,0,0,0
659,-36.0,-5.0,52.0,1644846146.375,P08,D09,0,0,0
660,-37.0,-5.0,51.0,1644846146.40625,P08,D09,0,0,0
661,-37.0,-5.0,52.0,1644846146.4375,P08,D09,0,0,0
662,-36.0,-5.0,52.0,1644846146.46875,P08,D09,0,0,0
663,-36.0,-5.0,52.0,1644846146.5,P08,D09,0,0,0
664,-37.0,-4.0,52.0,1644846146.53125,P08,D09,0,0,0
665,-36.0,-5.0,52.0,1644846146.5625,P08,D09,0,0,0
666,-37.0,-4.0,52.0,1644846146.59375,P08,D09,0,0,0
667,-36.0,-5.0,52.0,1644846146.625,P08,D09,0,0,0
668,-36.0,-4.0,52.0,1644846146.65625,P08,D09,0,0,0
669,-36.0,-5.0,52.0,1644846146.6875,P08,D09,0,0,0
670,-36.0,-5.0,52.0,1644846146.71875,P08,D09,0,0,0
671,-37.0,-5.0,52.0,1644846146.75,P08,D09,0,0,0
672,-36.0,-5.0,52.0,1644846146.78125,P08,D09,0,0,0
673,-37.0,-5.0,52.0,1644846146.8125,P08,D09,0,0,0
674,-36.0,-5.0,51.0,1644846146.84375,P08,D09,0,0,0
675,-36.0,-5.0,52.0,1644846146.875,P08,D09,0,0,0
676,-36.0,-4.0,52.0,1644846146.90625,P08,D09,0,0,0
677,-36.0,-5.0,52.0,1644846146.9375,P08,D09,0,0,0
678,-36.0,-5.0,52.0,1644846146.96875,P08,D09,0,0,0
679,-37.0,-5.0,52.0,1644846147.0,P08,D09,0,0,0
680,-37.0,-5.0,52.0,1644846147.03125,P08,D09,0,0,0
681,-37.0,-5.0,52.0,1644846147.0625,P08,D09,0,0,0
682,-36.0,-5.0,52.0,1644846147.09375,P08,D09,0,0,0
683,-36.0,-5.0,52.0,1644846147.125,P08,D09,0,0,0
684,-37.0,-5.0,52.0,1644846147.15625,P08,D09,0,0,0
685,-37.0,-5.0,52.0,1644846147.1875,P08,D09,0,0,0
686,-36.0,-5.0,52.0,1644846147.21875,P08,D09,0,0,0
687,-36.0,-5.0,52.0,1644846147.25,P08,D09,0,0,0
688,-37.0,-4.0,52.0,1644846147.28125,P08,D09,0,0,0
689,-37.0,-5.0,52.0,1644846147.3125,P08,D09,0,0,0
690,-36.0,-5.0,52.0,1644846147.34375,P08,D09,0,0,0
691,-36.0,-5.0,52.0,1644846147.375,P08,D09,0,0,0
692,-37.0,-5.0,52.0,1644846147.40625,P08,D09,0,0,0
693,-36.0,-5.0,52.0,1644846147.4375,P08,D09,0,0,0
694,-36.0,-5.0,52.0,1644846147.46875,P08,D09,0,0,0
695,-37.0,-5.0,52.0,1644846147.5,P08,D09,0,0,0
696,-37.0,-5.0,51.0,1644846147.53125,P08,D09,0,0,0
697,-37.0,-5.0,52.0,1644846147.5625,P08,D09,0,0,0
698,-36.0,-5.0,52.0,1644846147.59375,P08,D09,0,0,0
699,-36.0,-5.0,52.0,1644846147.625,P08,D09,0,0,0
700,-37.0,-5.0,52.0,1644846147.65625,P08,D09,0,0,0
701,-36.0,-5.0,52.0,1644846147.6875,P08,D09,0,0,0
702,-36.0,-5.0,52.0,1644846147.71875,P08,D09,0,0,0
703,-37.0,-5.0,52.0,1644846147.75,P08,D09,0,0,0
704,-37.0,-5.0,52.0,1644846147.78125,P08,D09,0,0,0
705,-36.0,-5.0,52.0,1644846147.8125,P08,D09,0,0,0
706,-36.0,-5.0,52.0,1644846147.84375,P08,D09,0,0,0
707,-36.0,-5.0,52.0,1644846147.875,P08,D09,0,0,0
708,-37.0,-5.0,52.0,1644846147.90625,P08,D09,0,0,0
709,-37.0,-5.0,51.0,1644846147.9375,P08,D09,0,0,0
710,-37.0,-5.0,52.0,1644846147.96875,P08,D09,0,0,0
711,-36.0,-5.0,52.0,1644846148.0,P08,D09,0,0,0
712,-36.0,-5.0,52.0,1644846148.03125,P08,D09,0,0,0
713,-37.0,-5.0,52.0,1644846148.0625,P08,D09,0,0,0
714,-37.0,-5.0,52.0,1644846148.09375,P08,D09,0,0,0
715,-37.0,-5.0,51.0,1644846148.125,P08,D09,0,0,0
716,-36.0,-5.0,52.0,1644846148.15625,P08,D09,0,0,0
717,-36.0,-5.0,52.0,1644846148.1875,P08,D09,0,0,0
718,-37.0,-5.0,52.0,1644846148.21875,P08,D09,0,0,0
719,-37.0,-5.0,52.0,1644846148.25,P08,D09,0,0,0
720,-36.0,-5.0,52.0,1644846148.28125,P08,D09,0,0,0
721,-36.0,-5.0,52.0,1644846148.3125,P08,D09,0,0,0
722,-37.0,-5.0,52.0,1644846148.34375,P08,D09,0,0,0
723,-37.0,-5.0,51.0,1644846148.375,P08,D09,0,0,0
724,-36.0,-5.0,52.0,1644846148.40625,P08,D09,0,0,0
725,-37.0,-5.0,52.0,1644846148.4375,P08,D09,0,0,0
726,-37.0,-5.0,52.0,1644846148.46875,P08,D09,0,0,0
727,-36.0,-5.0,52.0,1644846148.5,P08,D09,0,0,0
728,-36.0,-5.0,52.0,1644846148.53125,P08,D09,0,0,0
729,-37.0,-5.0,52.0,1644846148.5625,P08,D09,0,0,0
730,-37.0,-5.0,52.0,1644846148.59375,P08,D09,0,0,0
731,-36.0,-5.0,52.0,1644846148.625,P08,D09,0,0,0
732,-37.0,-5.0,52.0,1644846148.65625,P08,D09,0,0,0
733,-37.0,-5.0,52.0,1644846148.6875,P08,D09,0,0,0
734,-36.0,-5.0,51.0,1644846148.71875,P08,D09,0,0,0
735,-36.0,-5.0,52.0,1644846148.75,P08,D09,0,0,0
736,-37.0,-5.0,52.0,1644846148.78125,P08,D09,0,0,0
737,-36.0,-5.0,52.0,1644846148.8125,P08,D09,0,0,0
738,-36.0,-5.0,52.0,1644846148.84375,P08,D09,0,0,0
739,-36.0,-5.0,52.0,1644846148.875,P08,D09,0,0,0
740,-37.0,-5.0,52.0,1644846148.90625,P08,D09,0,0,0
741,-37.0,-5.0,52.0,1644846148.9375,P08,D09,0,0,0
742,-36.0,-5.0,52.0,1644846148.96875,P08,D09,0,0,0
743,-36.0,-5.0,52.0,1644846149.0,P08,D09,0,0,0
744,-37.0,-5.0,52.0,1644846149.03125,P08,D09,0,0,0
745,-36.0,-5.0,52.0,1644846149.0625,P08,D09,0,0,0
746,-36.0,-5.0,52.0,1644846149.09375,P08,D09,0,0,0
747,-36.0,-5.0,52.0,1644846149.125,P08,D09,0,0,0
748,-37.0,-5.0,52.0,1644846149.15625,P08,D09,0,0,0
749,-37.0,-5.0,52.0,1644846149.1875,P08,D09,0,0,0
750,-36.0,-5.0,52.0,1644846149.21875,P08,D09,0,0,0
751,-36.0,-5.0,52.0,1644846149.25,P08,D09,0,0,0
752,-36.0,-5.0,52.0,1644846149.28125,P08,D09,0,0,0
753,-36.0,-5.0,52.0,1644846149.3125,P08,D09,0,0,0
754,-36.0,-5.0,52.0,1644846149.34375,P08,D09,0,0,0
755,-36.0,-5.0,52.0,1644846149.375,P08,D09,0,0,0
756,-37.0,-5.0,52.0,1644846149.40625,P08,D09,0,0,0
757,-37.0,-5.0,52.0,1644846149.4375,P08,D09,0,0,0
758,-37.0,-5.0,52.0,1644846149.46875,P08,D09,0,0,0
759,-36.0,-5.0,52.0,1644846149.5,P08,D09,0,0,0
760,-37.0,-5.0,52.0,1644846149.53125,P08,D09,0,0,0
761,-36.0,-5.0,52.0,1644846149.5625,P08,D09,0,0,0
762,-37.0,-5.0,52.0,1644846149.59375,P08,D09,0,0,0
763,-36.0,-5.0,52.0,1644846149.625,P08,D09,0,0,0
764,-36.0,-5.0,52.0,1644846149.65625,P08,D09,0,0,0
765,-36.0,-5.0,52.0,1644846149.6875,P08,D09,0,0,0
766,-37.0,-5.0,52.0,1644846149.71875,P08,D09,0,0,0
767,-36.0,-5.0,52.0,1644846149.75,P08,D09,0,0,0
768,-36.0,-5.0,52.0,1644846149.78125,P08,D09,0,0,0
769,-36.0,-5.0,52.0,1644846149.8125,P08,D09,0,0,0
770,-37.0,-5.0,52.0,1644846149.84375,P08,D09,0,0,0
771,-37.0,-5.0,52.0,1644846149.875,P08,D09,0,0,0
772,-36.0,-5.0,52.0,1644846149.90625,P08,D09,0,0,0
773,-36.0,-5.0,52.0,1644846149.9375,P08,D09,0,0,0
774,-37.0,-5.0,52.0,1644846149.96875,P08,D09,0,0,0
775,-36.0,-5.0,52.0,1644846150.0,P08,D09,0,0,0
776,-37.0,-5.0,52.0,1644846150.03125,P08,D09,0,0,0
777,-37.0,-5.0,52.0,1644846150.0625,P08,D09,0,0,0
778,-36.0,-5.0,52.0,1644846150.09375,P08,D09,0,0,0
779,-36.0,-5.0,52.0,1644846150.125,P08,D09,0,0,0
780,-37.0,-5.0,52.0,1644846150.15625,P08,D09,0,0,0
781,-37.0,-5.0,52.0,1644846150.1875,P08,D09,0,0,0
782,-36.0,-5.0,52.0,1644846150.21875,P08,D09,0,0,0
783,-36.0,-5.0,52.0,1644846150.25,P08,D09,0,0,0
784,-36.0,-5.0,52.0,1644846150.28125,P08,D09,0,0,0
785,-36.0,-5.0,52.0,1644846150.3125,P08,D09,0,0,0
786,-36.0,-5.0,52.0,1644846150.34375,P08,D09,0,0,0
787,-36.0,-5.0,52.0,1644846150.375,P08,D09,0,0,0
788,-37.0,-5.0,52.0,1644846150.40625,P08,D09,0,0,0
789,-36.0,-5.0,52.0,1644846150.4375,P08,D09,0,0,0
790,-36.0,-5.0,52.0,1644846150.46875,P08,D09,0,0,0
791,-36.0,-5.0,52.0,1644846150.5,P08,D09,0,0,0
792,-36.0,-5.0,52.0,1644846150.53125,P08,D09,0,0,0
793,-36.0,-5.0,52.0,1644846150.5625,P08,D09,0,0,0
794,-36.0,-5.0,52.0,1644846150.59375,P08,D09,0,0,0
795,-36.0,-5.0,52.0,1644846150.625,P08,D09,0,0,0
796,-36.0,-5.0,52.0,1644846150.65625,P08,D09,0,0,0
797,-36.0,-5.0,52.0,1644846150.6875,P08,D09,0,0,0
798,-36.0,-5.0,52.0,1644846150.71875,P08,D09,0,0,0
799,-37.0,-5.0,52.0,1644846150.75,P08,D09,0,0,0
800,-37.0,-4.0,52.0,1644846150.78125,P08,D09,0,0,0
801,-36.0,-5.0,52.0,1644846150.8125,P08,D09,0,0,0
802,-36.0,-5.0,52.0,1644846150.84375,P08,D09,0,0,0
803,-36.0,-5.0,52.0,1644846150.875,P08,D09,0,0,0
804,-36.0,-5.0,52.0,1644846150.90625,P08,D09,0,0,0
805,-36.0,-5.0,52.0,1644846150.9375,P08,D09,0,0,0
806,-36.0,-5.0,52.0,1644846150.96875,P08,D09,0,0,0
807,-37.0,-5.0,52.0,1644846151.0,P08,D09,0,0,0
808,-36.0,-5.0,51.0,1644846151.03125,P08,D09,0,0,0
809,-36.0,-5.0,52.0,1644846151.0625,P08,D09,0,0,0
810,-36.0,-5.0,52.0,1644846151.09375,P08,D09,0,0,0
811,-36.0,-5.0,52.0,1644846151.125,P08,D09,0,0,0
812,-36.0,-5.0,52.0,1644846151.15625,P08,D09,0,0,0
813,-36.0,-5.0,52.0,1644846151.1875,P08,D09,0,0,0
814,-36.0,-5.0,52.0,1644846151.21875,P08,D09,0,0,0
815,-36.0,-5.0,52.0,1644846151.25,P08,D09,0,0,0
816,-36.0,-5.0,52.0,1644846151.28125,P08,D09,0,0,0
817,-36.0,-5.0,52.0,1644846151.3125,P08,D09,0,0,0
818,-37.0,-5.0,52.0,1644846151.34375,P08,D09,0,0,0
819,-36.0,-5.0,51.0,1644846151.375,P08,D09,0,0,0
820,-36.0,-5.0,52.0,1644846151.40625,P08,D09,0,0,0
821,-36.0,-5.0,52.0,1644846151.4375,P08,D09,0,0,0
822,-36.0,-5.0,52.0,1644846151.46875,P08,D09,0,0,0
823,-36.0,-5.0,52.0,1644846151.5,P08,D09,0,0,0
824,-36.0,-5.0,52.0,1644846151.53125,P08,D09,0,0,0
825,-36.0,-5.0,52.0,1644846151.5625,P08,D09,0,0,0
826,-36.0,-5.0,52.0,1644846151.59375,P08,D09,0,0,0
827,-36.0,-5.0,52.0,1644846151.625,P08,D09,0,0,0
828,-36.0,-5.0,52.0,1644846151.65625,P08,D09,0,0,0
829,-36.0,-5.0,52.0,1644846151.6875,P08,D09,0,0,0
830,-36.0,-5.0,52.0,1644846151.71875,P08,D09,0,0,0
831,-36.0,-5.0,52.0,1644846151.75,P08,D09,0,0,0
832,-36.0,-5.0,52.0,1644846151.78125,P08,D09,0,0,0
833,-36.0,-5.0,52.0,1644846151.8125,P08,D09,0,0,0
834,-36.0,-5.0,52.0,1644846151.84375,P08,D09,0,0,0
835,-37.0,-5.0,52.0,1644846151.875,P08,D09,0,0,0
836,-37.0,-5.0,52.0,1644846151.90625,P08,D09,0,0,0
837,-36.0,-5.0,52.0,1644846151.9375,P08,D09,0,0,0
838,-36.0,-5.0,52.0,1644846151.96875,P08,D09,0,0,0
839,-36.0,-5.0,52.0,1644846152.0,P08,D09,0,0,0
840,-36.0,-5.0,52.0,1644846152.03125,P08,D09,0,0,0
841,-36.0,-5.0,52.0,1644846152.0625,P08,D09,0,0,0
842,-36.0,-5.0,52.0,1644846152.09375,P08,D09,0,0,0
843,-37.0,-5.0,52.0,1644846152.125,P08,D09,0,0,0
844,-36.0,-4.0,52.0,1644846152.15625,P08,D09,0,0,0
845,-36.0,-5.0,52.0,1644846152.1875,P08,D09,0,0,0
846,-36.0,-5.0,52.0,1644846152.21875,P08,D09,0,0,0
847,-36.0,-5.0,52.0,1644846152.25,P08,D09,0,0,0
848,-36.0,-5.0,52.0,1644846152.28125,P08,D09,0,0,0
849,-36.0,-5.0,52.0,1644846152.3125,P08,D09,0,0,0
850,-36.0,-5.0,52.0,1644846152.34375,P08,D09,0,0,0
851,-36.0,-5.0,52.0,1644846152.375,P08,D09,0,0,0
852,-36.0,-5.0,52.0,1644846152.40625,P08,D09,0,0,0
853,-36.0,-5.0,52.0,1644846152.4375,P08,D09,0,0,0
854,-36.0,-5.0,52.0,1644846152.46875,P08,D09,0,0,0
855,-36.0,-5.0,52.0,1644846152.5,P08,D09,0,0,0
856,-36.0,-5.0,52.0,1644846152.53125,P08,D09,0,0,0
857,-36.0,-5.0,52.0,1644846152.5625,P08,D09,0,0,0
858,-36.0,-5.0,52.0,1644846152.59375,P08,D09,0,0,0
859,-36.0,-5.0,52.0,1644846152.625,P08,D09,0,0,0
860,-36.0,-5.0,52.0,1644846152.65625,P08,D09,0,0,0
861,-36.0,-5.0,52.0,1644846152.6875,P08,D09,0,0,0
862,-36.0,-5.0,52.0,1644846152.71875,P08,D09,0,0,0
863,-36.0,-5.0,52.0,1644846152.75,P08,D09,0,0,0
864,-37.0,-5.0,52.0,1644846152.78125,P08,D09,0,0,0
865,-36.0,-5.0,52.0,1644846152.8125,P08,D09,0,0,0
866,-36.0,-4.0,52.0,1644846152.84375,P08,D09,0,0,0
867,-36.0,-5.0,52.0,1644846152.875,P08,D09,0,0,0
868,-36.0,-5.0,52.0,1644846152.90625,P08,D09,0,0,0
869,-36.0,-5.0,52.0,1644846152.9375,P08,D09,0,0,0
870,-36.0,-5.0,52.0,1644846152.96875,P08,D09,0,0,0
871,-36.0,-5.0,52.0,1644846153.0,P08,D09,0,0,0
872,-36.0,-5.0,52.0,1644846153.03125,P08,D09,0,0,0
873,-36.0,-5.0,52.0,1644846153.0625,P08,D09,0,0,0
874,-36.0,-5.0,52.0,1644846153.09375,P08,D09,0,0,0
875,-36.0,-5.0,52.0,1644846153.125,P08,D09,0,0,0
876,-36.0,-5.0,52.0,1644846153.15625,P08,D09,0,0,0
877,-36.0,-5.0,52.0,1644846153.1875,P08,D09,0,0,0
878,-36.0,-5.0,52.0,1644846153.21875,P08,D09,0,0,0
879,-36.0,-5.0,52.0,1644846153.25,P08,D09,0,0,0
880,-36.0,-5.0,52.0,1644846153.28125,P08,D09,0,0,0
881,-36.0,-5.0,52.0,1644846153.3125,P08,D09,0,0,0
882,-36.0,-5.0,52.0,1644846153.34375,P08,D09,0,0,0
883,-36.0,-5.0,52.0,1644846153.375,P08,D09,0,0,0
884,-36.0,-5.0,52.0,1644846153.40625,P08,D09,0,0,0
885,-36.0,-5.0,52.0,1644846153.4375,P08,D09,0,0,0
886,-36.0,-5.0,52.0,1644846153.46875,P08,D09,0,0,0
887,-36.0,-5.0,52.0,1644846153.5,P08,D09,0,0,0
888,-36.0,-5.0,52.0,1644846153.53125,P08,D09,0,0,0
889,-36.0,-5.0,52.0,1644846153.5625,P08,D09,0,0,0
890,-36.0,-5.0,52.0,1644846153.59375,P08,D09,0,0,0
891,-36.0,-4.0,52.0,1644846153.625,P08,D09,0,0,0
892,-36.0,-5.0,52.0,1644846153.65625,P08,D09,0,0,0
893,-36.0,-5.0,52.0,1644846153.6875,P08,D09,0,0,0
894,-36.0,-5.0,52.0,1644846153.71875,P08,D09,0,0,0
895,-36.0,-5.0,52.0,1644846153.75,P08,D09,0,0,0
896,-36.0,-5.0,52.0,1644846153.78125,P08,D09,0,0,0
897,-36.0,-4.0,53.0,1644846153.8125,P08,D09,0,0,0
898,-36.0,-5.0,52.0,1644846153.84375,P08,D09,0,0,0
899,-37.0,-4.0,52.0,1644846153.875,P08,D09,0,0,0
900,-36.0,-5.0,52.0,1644846153.90625,P08,D09,0,0,0
901,-36.0,-6.0,52.0,1644846153.9375,P08,D09,0,0,0
902,-36.0,-5.0,52.0,1644846153.96875,P08,D09,0,0,0
903,-36.0,-5.0,52.0,1644846154.0,P08,D09,0,0,0
904,-36.0,-5.0,52.0,1644846154.03125,P08,D09,0,0,0
905,-36.0,-6.0,52.0,1644846154.0625,P08,D09,0,0,0
906,-36.0,-6.0,52.0,1644846154.09375,P08,D09,0,0,0
907,-36.0,-6.0,52.0,1644846154.125,P08,D09,0,0,0
908,-36.0,-6.0,51.0,1644846154.15625,P08,D09,0,0,0
909,-36.0,-6.0,52.0,1644846154.1875,P08,D09,0,0,0
910,-36.0,-6.0,52.0,1644846154.21875,P08,D09,0,0,0
911,-36.0,-5.0,53.0,1644846154.25,P08,D09,0,0,0
912,-36.0,-5.0,53.0,1644846154.28125,P08,D09,0,0,0
913,-36.0,-5.0,52.0,1644846154.3125,P08,D09,0,0,0
914,-35.0,-5.0,52.0,1644846154.34375,P08,D09,0,0,0
915,-35.0,-6.0,53.0,1644846154.375,P08,D09,0,0,0
916,-35.0,-5.0,53.0,1644846154.40625,P08,D09,0,0,0
917,-35.0,-5.0,53.0,1644846154.4375,P08,D09,0,0,0
918,-35.0,-6.0,52.0,1644846154.46875,P08,D09,0,0,0
919,-35.0,-6.0,52.0,1644846154.5,P08,D09,0,0,0
920,-36.0,-7.0,52.0,1644846154.53125,P08,D09,0,0,0
921,-37.0,-7.0,51.0,1644846154.5625,P08,D09,0,0,0
922,-36.0,-6.0,52.0,1644846154.59375,P08,D09,0,0,0
923,-35.0,-5.0,52.0,1644846154.625,P08,D09,0,0,0
924,-35.0,-4.0,53.0,1644846154.65625,P08,D09,0,0,0
925,-35.0,-5.0,53.0,1644846154.6875,P08,D09,0,0,0
926,-35.0,-6.0,53.0,1644846154.71875,P08,D09,0,0,0
927,-36.0,-6.0,52.0,1644846154.75,P08,D09,0,0,0
928,-36.0,-6.0,51.0,1644846154.78125,P08,D09,0,0,0
929,-37.0,-5.0,52.0,1644846154.8125,P08,D09,0,0,0
930,-37.0,-4.0,52.0,1644846154.84375,P08,D09,0,0,0
931,-36.0,-5.0,53.0,1644846154.875,P08,D09,0,0,0
932,-36.0,-5.0,53.0,1644846154.90625,P08,D09,0,0,0
933,-35.0,-6.0,52.0,1644846154.9375,P08,D09,0,0,0
934,-36.0,-6.0,52.0,1644846154.96875,P08,D09,0,0,0
935,-36.0,-6.0,52.0,1644846155.0,P08,D09,0,0,0
936,-36.0,-6.0,52.0,1644846155.03125,P08,D09,0,0,0
937,-36.0,-5.0,52.0,1644846155.0625,P08,D09,0,0,0
938,-36.0,-5.0,52.0,1644846155.09375,P08,D09,0,0,0
939,-36.0,-5.0,52.0,1644846155.125,P08,D09,0,0,0
940,-36.0,-6.0,52.0,1644846155.15625,P08,D09,0,0,0
941,-36.0,-6.0,51.0,1644846155.1875,P08,D09,0,0,0
942,-36.0,-6.0,51.0,1644846155.21875,P08,D09,0,0,0
943,-35.0,-6.0,52.0,1644846155.25,P08,D09,0,0,0
944,-36.0,-6.0,52.0,1644846155.28125,P08,D09,0,0,0
945,-36.0,-5.0,52.0,1644846155.3125,P08,D09,0,0,0
946,-36.0,-6.0,52.0,1644846155.34375,P08,D09,0,0,0
947,-36.0,-5.0,53.0,1644846155.375,P08,D09,0,0,0
948,-36.0,-5.0,53.0,1644846155.40625,P08,D09,0,0,0
949,-36.0,-6.0,52.0,1644846155.4375,P08,D09,0,0,0
950,-36.0,-6.0,51.0,1644846155.46875,P08,D09,0,0,0
951,-37.0,-6.0,52.0,1644846155.5,P08,D09,0,0,0
952,-36.0,-6.0,52.0,1644846155.53125,P08,D09,0,0,0
953,-36.0,-6.0,52.0,1644846155.5625,P08,D09,0,0,0
954,-36.0,-6.0,52.0,1644846155.59375,P08,D09,0,0,0
955,-35.0,-5.0,52.0,1644846155.625,P08,D09,0,0,0
956,-35.0,-6.0,52.0,1644846155.65625,P08,D09,0,0,0
957,-36.0,-6.0,52.0,1644846155.6875,P08,D09,0,0,0
958,-36.0,-5.0,52.0,1644846155.71875,P08,D09,0,0,0
959,-36.0,-5.0,52.0,1644846155.75,P08,D09,0,0,0
960,-36.0,-5.0,52.0,1644846155.78125,P08,D09,0,0,0
961,-36.0,-5.0,52.0,1644846155.8125,P08,D09,0,0,0
962,-36.0,-5.0,52.0,1644846155.84375,P08,D09,0,0,0
963,-36.0,-5.0,52.0,1644846155.875,P08,D09,0,0,0
964,-36.0,-5.0,52.0,1644846155.90625,P08,D09,0,0,0
965,-36.0,-5.0,52.0,1644846155.9375,P08,D09,0,0,0
966,-36.0,-5.0,52.0,1644846155.96875,P08,D09,0,0,0
967,-36.0,-5.0,52.0,1644846156.0,P08,D09,0,0,0
968,-36.0,-5.0,52.0,1644846156.03125,P08,D09,0,0,0
969,-36.0,-5.0,52.0,1644846156.0625,P08,D09,0,0,0
970,-36.0,-5.0,53.0,1644846156.09375,P08,D09,0,0,0
971,-36.0,-5.0,52.0,1644846156.125,P08,D09,0,0,0
972,-36.0,-5.0,52.0,1644846156.15625,P08,D09,0,0,0
973,-37.0,-5.0,51.0,1644846156.1875,P08,D09,0,0,0
974,-36.0,-5.0,51.0,1644846156.21875,P08,D09,0,0,0
975,-36.0,-5.0,52.0,1644846156.25,P08,D09,0,0,0
976,-36.0,-5.0,52.0,1644846156.28125,P08,D09,0,0,0
977,-36.0,-5.0,52.0,1644846156.3125,P08,D09,0,0,0
978,-36.0,-5.0,52.0,1644846156.34375,P08,D09,0,0,0
979,-36.0,-5.0,52.0,1644846156.375,P08,D09,0,0,0
980,-36.0,-5.0,52.0,1644846156.40625,P08,D09,0,0,0
981,-36.0,-5.0,52.0,1644846156.4375,P08,D09,0,0,0
982,-36.0,-5.0,52.0,1644846156.46875,P08,D09,0,0,0
983,-37.0,-5.0,52.0,1644846156.5,P08,D09,0,0,0
984,-36.0,-5.0,52.0,1644846156.53125,P08,D09,0,0,0
985,-36.0,-5.0,52.0,1644846156.5625,P08,D09,0,0,0
986,-37.0,-5.0,52.0,1644846156.59375,P08,D09,0,0,0
987,-37.0,-5.0,52.0,1644846156.625,P08,D09,0,0,0
988,-36.0,-5.0,52.0,1644846156.65625,P08,D09,0,0,0
989,-36.0,-5.0,52.0,1644846156.6875,P08,D09,0,0,0
990,-36.0,-5.0,52.0,1644846156.71875,P08,D09,0,0,0
991,-36.0,-5.0,52.0,1644846156.75,P08,D09,0,0,0
992,-36.0,-5.0,52.0,1644846156.78125,P08,D09,0,0,0
993,-36.0,-5.0,52.0,1644846156.8125,P08,D09,0,0,0
994,-36.0,-5.0,52.0,1644846156.84375,P08,D09,0,0,0
995,-36.0,-5.0,52.0,1644846156.875,P08,D09,0,0,0
996,-36.0,-5.0,52.0,1644846156.90625,P08,D09,0,0,0
997,-36.0,-5.0,52.0,1644846156.9375,P08,D09,0,0,0
998,-36.0,-5.0,52.0,1644846156.96875,P08,D09,0,0,0
999,-36.0,-5.0,52.0,1644846157.0,P08,D09,0,0,0
1000,-36.0,-5.0,52.0,1644846157.03125,P08,D09,0,0,0
1001,-36.0,-5.0,52.0,1644846157.0625,P08,D09,0,0,0
1002,-37.0,-5.0,52.0,1644846157.09375,P08,D09,0,0,0
1003,-37.0,-4.0,52.0,1644846157.125,P08,D09,0,0,0
1004,-36.0,-5.0,52.0,1644846157.15625,P08,D09,0,0,0
1005,-35.0,-5.0,52.0,1644846157.1875,P08,D09,0,0,0
1006,-36.0,-5.0,52.0,1644846157.21875,P08,D09,0,0,0
1007,-36.0,-4.0,52.0,1644846157.25,P08,D09,0,0,0
1008,-36.0,-5.0,52.0,1644846157.28125,P08,D09,0,0,0
1009,-36.0,-5.0,52.0,1644846157.3125,P08,D09,0,0,0
1010,-36.0,-5.0,52.0,1644846157.34375,P08,D09,0,0,0
1011,-37.0,-5.0,52.0,1644846157.375,P08,D09,0,0,0
1012,-37.0,-4.0,52.0,1644846157.40625,P08,D09,0,0,0
1013,-36.0,-4.0,52.0,1644846157.4375,P08,D09,0,0,0
1014,-36.0,-5.0,52.0,1644846157.46875,P08,D09,0,0,0
1015,-36.0,-5.0,52.0,1644846157.5,P08,D09,0,0,0
1016,-36.0,-5.0,52.0,1644846157.53125,P08,D09,0,0,0
1017,-37.0,-5.0,52.0,1644846157.5625,P08,D09,0,0,0
1018,-36.0,-5.0,52.0,1644846157.59375,P08,D09,0,0,0
1019,-37.0,-5.0,52.0,1644846157.625,P08,D09,0,0,0
1020,-36.0,-5.0,52.0,1644846157.65625,P08,D09,0,0,0
1021,-36.0,-5.0,52.0,1644846157.6875,P08,D09,0,0,0
1022,-36.0,-5.0,52.0,1644846157.71875,P08,D09,0,0,0
1023,-36.0,-5.0,52.0,1644846157.75,P08,D09,0,0,0
1024,-37.0,-5.0,51.0,1644846157.78125,P08,D09,0,0,0
1025,-36.0,-5.0,52.0,1644846157.8125,P08,D09,0,0,0
1026,-36.0,-5.0,52.0,1644846157.84375,P08,D09,0,0,0
1027,-36.0,-5.0,52.0,1644846157.875,P08,D09,0,0,0
1028,-36.0,-5.0,52.0,1644846157.90625,P08,D09,0,0,0
1029,-36.0,-5.0,52.0,1644846157.9375,P08,D09,0,0,0
1030,-37.0,-5.0,52.0,1644846157.96875,P08,D09,0,0,0
1031,-37.0,-5.0,52.0,1644846158.0,P08,D09,0,0,0
1032,-36.0,-5.0,52.0,1644846158.03125,P08,D09,0,0,0
1033,-36.0,-5.0,52.0,1644846158.0625,P08,D09,0,0,0
1034,-37.0,-5.0,52.0,1644846158.09375,P08,D09,0,0,0
1035,-37.0,-5.0,52.0,1644846158.125,P08,D09,0,0,0
1036,-36.0,-5.0,52.0,1644846158.15625,P08,D09,0,0,0
1037,-36.0,-5.0,52.0,1644846158.1875,P08,D09,0,0,0
1038,-36.0,-5.0,52.0,1644846158.21875,P08,D09,0,0,0
1039,-36.0,-5.0,52.0,1644846158.25,P08,D09,0,0,0
1040,-37.0,-5.0,52.0,1644846158.28125,P08,D09,0,0,0
1041,-36.0,-5.0,52.0,1644846158.3125,P08,D09,0,0,0
1042,-36.0,-5.0,52.0,1644846158.34375,P08,D09,0,0,0
1043,-36.0,-5.0,52.0,1644846158.375,P08,D09,0,0,0
1044,-36.0,-5.0,52.0,1644846158.40625,P08,D09,0,0,0
1045,-36.0,-5.0,52.0,1644846158.4375,P08,D09,0,0,0
1046,-36.0,-5.0,52.0,1644846158.46875,P08,D09,0,0,0
1047,-36.0,-5.0,52.0,1644846158.5,P08,D09,0,0,0
1048,-37.0,-5.0,52.0,1644846158.53125,P08,D09,0,0,0
1049,-37.0,-5.0,51.0,1644846158.5625,P08,D09,0,0,0
1050,-37.0,-5.0,52.0,1644846158.59375,P08,D09,0,0,0
1051,-36.0,-5.0,52.0,1644846158.625,P08,D09,0,0,0
1052,-36.0,-5.0,52.0,1644846158.65625,P08,D09,0,0,0
1053,-36.0,-5.0,52.0,1644846158.6875,P08,D09,0,0,0
1054,-36.0,-5.0,52.0,1644846158.71875,P08,D09,0,0,0
1055,-36.0,-5.0,52.0,1644846158.75,P08,D09,0,0,0
1056,-36.0,-5.0,52.0,1644846158.78125,P08,D09,0,0,0
1057,-36.0,-5.0,52.0,1644846158.8125,P08,D09,0,0,0
1058,-36.0,-5.0,52.0,1644846158.84375,P08,D09,0,0,0
1059,-36.0,-5.0,52.0,1644846158.875,P08,D09,0,0,0
1060,-36.0,-5.0,52.0,1644846158.90625,P08,D09,0,0,0
1061,-36.0,-5.0,52.0,1644846158.9375,P08,D09,0,0,0
1062,-36.0,-5.0,52.0,1644846158.96875,P08,D09,0,0,0
1063,-36.0,-5.0,52.0,1644846159.0,P08,D09,0,0,0
1064,-36.0,-5.0,52.0,1644846159.03125,P08,D09,0,0,0
1065,-36.0,-5.0,52.0,1644846159.0625,P08,D09,0,0,0
1066,-36.0,-5.0,52.0,1644846159.09375,P08,D09,0,0,0
1067,-36.0,-5.0,52.0,1644846159.125,P08,D09,0,0,0
1068,-36.0,-5.0,52.0,1644846159.15625,P08,D09,0,0,0
1069,-36.0,-5.0,52.0,1644846159.1875,P08,D09,0,0,0
1070,-36.0,-5.0,52.0,1644846159.21875,P08,D09,0,0,0
1071,-36.0,-5.0,52.0,1644846159.25,P08,D09,0,0,0
1072,-36.0,-5.0,52.0,1644846159.28125,P08,D09,0,0,0
1073,-36.0,-5.0,52.0,1644846159.3125,P08,D09,0,0,0
1074,-36.0,-5.0,52.0,1644846159.34375,P08,D09,0,0,0
1075,-36.0,-5.0,52.0,1644846159.375,P08,D09,0,0,0
1076,-36.0,-5.0,52.0,1644846159.40625,P08,D09,0,0,0
1077,-36.0,-5.0,52.0,1644846159.4375,P08,D09,0,0,0
1078,-36.0,-5.0,52.0,1644846159.46875,P08,D09,0,0,0
1079,-36.0,-5.0,52.0,1644846159.5,P08,D09,0,0,0
1080,-36.0,-5.0,52.0,1644846159.53125,P08,D09,0,0,0
1081,-36.0,-5.0,52.0,1644846159.5625,P08,D09,0,0,0
1082,-36.0,-5.0,52.0,1644846159.59375,P08,D09,0,0,0
1083,-36.0,-5.0,52.0,1644846159.625,P08,D09,0,0,0
1084,-36.0,-5.0,52.0,1644846159.65625,P08,D09,0,0,0
1085,-36.0,-5.0,52.0,1644846159.6875,P08,D09,0,0,0
1086,-36.0,-5.0,52.0,1644846159.71875,P08,D09,0,0,0
1087,-36.0,-5.0,52.0,1644846159.75,P08,D09,0,0,0
1088,-36.0,-5.0,52.0,1644846159.78125,P08,D09,0,0,0
1089,-36.0,-5.0,52.0,1644846159.8125,P08,D09,0,0,0
1090,-36.0,-6.0,52.0,1644846159.84375,P08,D09,0,0,0
1091,-36.0,-5.0,52.0,1644846159.875,P08,D09,0,0,0
1092,-36.0,-5.0,52.0,1644846159.90625,P08,D09,0,0,0
1093,-36.0,-5.0,52.0,1644846159.9375,P08,D09,0,0,0
1094,-36.0,-5.0,52.0,1644846159.96875,P08,D09,0,0,0
1095,-36.0,-5.0,52.0,1644846160.0,P08,D09,0,0,0
1096,-36.0,-6.0,52.0,1644846160.03125,P08,D09,0,0,0
1097,-36.0,-5.0,52.0,1644846160.0625,P08,D09,0,0,0
1098,-36.0,-6.0,52.0,1644846160.09375,P08,D09,0,0,0
1099,-36.0,-6.0,52.0,1644846160.125,P08,D09,0,0,0
1100,-36.0,-6.0,52.0,1644846160.15625,P08,D09,0,0,0
1101,-36.0,-5.0,53.0,1644846160.1875,P08,D09,0,0,0
1102,-36.0,-5.0,52.0,1644846160.21875,P08,D09,0,0,0
1103,-36.0,-5.0,52.0,1644846160.25,P08,D09,0,0,0
1104,-36.0,-5.0,52.0,1644846160.28125,P08,D09,0,0,0
1105,-37.0,-6.0,51.0,1644846160.3125,P08,D09,0,0,0
1106,-37.0,-5.0,52.0,1644846160.34375,P08,D09,0,0,0
1107,-36.0,-5.0,52.0,1644846160.375,P08,D09,0,0,0
1108,-36.0,-5.0,52.0,1644846160.40625,P08,D09,0,0,0
1109,-36.0,-5.0,52.0,1644846160.4375,P08,D09,0,0,0
1110,-37.0,-6.0,52.0,1644846160.46875,P08,D09,0,0,0
1111,-36.0,-6.0,51.0,1644846160.5,P08,D09,0,0,0
1112,-36.0,-5.0,52.0,1644846160.53125,P08,D09,0,0,0
1113,-36.0,-5.0,53.0,1644846160.5625,P08,D09,0,0,0
1114,-36.0,-5.0,52.0,1644846160.59375,P08,D09,0,0,0
1115,-36.0,-5.0,52.0,1644846160.625,P08,D09,0,0,0
1116,-36.0,-6.0,52.0,1644846160.65625,P08,D09,0,0,0
1117,-36.0,-5.0,52.0,1644846160.6875,P08,D09,0,0,0
1118,-36.0,-5.0,52.0,1644846160.71875,P08,D09,0,0,0
1119,-35.0,-5.0,52.0,1644846160.75,P08,D09,0,0,0
1120,-35.0,-5.0,52.0,1644846160.78125,P08,D09,0,0,0
1121,-35.0,-6.0,52.0,1644846160.8125,P08,D09,0,0,0
1122,-35.0,-6.0,52.0,1644846160.84375,P08,D09,0,0,0
1123,-35.0,-5.0,52.0,1644846160.875,P08,D09,0,0,0
1124,-36.0,-4.0,52.0,1644846160.90625,P08,D09,0,0,0
1125,-37.0,-4.0,52.0,1644846160.9375,P08,D09,0,0,0
1126,-36.0,-3.0,53.0,1644846160.96875,P08,D09,0,0,0
1127,-36.0,-4.0,52.0,1644846161.0,P08,D09,0,0,0
1128,-34.0,-4.0,53.0,1644846161.03125,P08,D09,0,0,0
1129,-34.0,-5.0,53.0,1644846161.0625,P08,D09,0,0,0
1130,-35.0,-3.0,53.0,1644846161.09375,P08,D09,0,0,0
1131,-36.0,-1.0,53.0,1644846161.125,P08,D09,0,0,0
1132,-36.0,-2.0,52.0,1644846161.15625,P08,D09,0,0,0
1133,-36.0,-4.0,51.0,1644846161.1875,P08,D09,0,0,0
1134,-37.0,-4.0,52.0,1644846161.21875,P08,D09,0,0,0
1135,-36.0,-4.0,52.0,1644846161.25,P08,D09,0,0,0
1136,-38.0,-3.0,51.0,1644846161.28125,P08,D09,0,0,0
1137,-38.0,-4.0,51.0,1644846161.3125,P08,D09,0,0,0
1138,-39.0,-3.0,50.0,1644846161.34375,P08,D09,0,0,0
1139,-39.0,-1.0,50.0,1644846161.375,P08,D09,0,0,0
1140,-40.0,0.0,50.0,1644846161.40625,P08,D09,0,0,0
1141,-40.0,0.0,49.0,1644846161.4375,P08,D09,0,0,0
1142,-40.0,-1.0,49.0,1644846161.46875,P08,D09,0,0,0
1143,-40.0,-1.0,49.0,1644846161.5,P08,D09,0,0,0
1144,-40.0,-2.0,49.0,1644846161.53125,P08,D09,0,0,0
1145,-38.0,0.0,51.0,1644846161.5625,P08,D09,0,0,0
1146,-37.0,0.0,52.0,1644846161.59375,P08,D09,0,0,0
1147,-37.0,-1.0,51.0,1644846161.625,P08,D09,0,0,0
1148,-37.0,-4.0,50.0,1644846161.65625,P08,D09,0,0,0
1149,-38.0,-4.0,52.0,1644846161.6875,P08,D09,0,0,0
1150,-35.0,0.0,53.0,1644846161.71875,P08,D09,0,0,0
1151,-34.0,-2.0,54.0,1644846161.75,P08,D09,0,0,0
1152,-34.0,-1.0,53.0,1644846161.78125,P08,D09,0,0,0
1153,-35.0,-1.0,53.0,1644846161.8125,P08,D09,0,0,0
1154,-37.0,0.0,51.0,1644846161.84375,P08,D09,0,0,0
1155,-39.0,-1.0,50.0,1644846161.875,P08,D09,0,0,0
1156,-41.0,-1.0,49.0,1644846161.90625,P08,D09,0,0,0
1157,-41.0,0.0,49.0,1644846161.9375,P08,D09,0,0,0
1158,-40.0,0.0,49.0,1644846161.96875,P08,D09,0,0,0
1159,-39.0,0.0,50.0,1644846162.0,P08,D09,0,0,0
1160,-39.0,1.0,50.0,1644846162.03125,P08,D09,0,0,0
1161,-42.0,-1.0,48.0,1644846162.0625,P08,D09,0,0,0
1162,-44.0,-2.0,46.0,1644846162.09375,P08,D09,0,0,0
1163,-44.0,-2.0,45.0,1644846162.125,P08,D09,0,0,0
1164,-44.0,-1.0,45.0,1644846162.15625,P08,D09,0,0,0
1165,-43.0,2.0,48.0,1644846162.1875,P08,D09,0,0,0
1166,-41.0,2.0,49.0,1644846162.21875,P08,D09,0,0,0
1167,-39.0,3.0,50.0,1644846162.25,P08,D09,0,0,0
1168,-37.0,3.0,51.0,1644846162.28125,P08,D09,0,0,0
1169,-36.0,2.0,52.0,1644846162.3125,P08,D09,0,0,0
1170,-36.0,4.0,52.0,1644846162.34375,P08,D09,0,0,0
1171,-39.0,6.0,51.0,1644846162.375,P08,D09,0,0,0
1172,-36.0,5.0,51.0,1644846162.40625,P08,D09,0,0,0
1173,-36.0,5.0,52.0,1644846162.4375,P08,D09,0,0,0
1174,-38.0,3.0,51.0,1644846162.46875,P08,D09,0,0,0
1175,-38.0,2.0,51.0,1644846162.5,P08,D09,0,0,0
1176,-40.0,2.0,50.0,1644846162.53125,P08,D09,0,0,0
1177,-38.0,2.0,51.0,1644846162.5625,P08,D09,0,0,0
1178,-37.0,2.0,51.0,1644846162.59375,P08,D09,0,0,0
1179,-37.0,2.0,51.0,1644846162.625,P08,D09,0,0,0
1180,-39.0,2.0,51.0,1644846162.65625,P08,D09,0,0,0
1181,-39.0,2.0,50.0,1644846162.6875,P08,D09,0,0,0
1182,-38.0,2.0,50.0,1644846162.71875,P08,D09,0,0,0
1183,-39.0,3.0,50.0,1644846162.75,P08,D09,0,0,0
1184,-39.0,3.0,50.0,1644846162.78125,P08,D09,0,0,0
1185,-39.0,2.0,50.0,1644846162.8125,P08,D09,0,0,0
1186,-38.0,2.0,50.0,1644846162.84375,P08,D09,0,0,0
1187,-37.0,2.0,52.0,1644846162.875,P08,D09,0,0,0
1188,-36.0,2.0,52.0,1644846162.90625,P08,D09,0,0,0
1189,-39.0,3.0,51.0,1644846162.9375,P08,D09,0,0,0
1190,-39.0,2.0,50.0,1644846162.96875,P08,D09,0,0,0
1191,-39.0,1.0,50.0,1644846163.0,P08,D09,0,0,0
1192,-40.0,2.0,49.0,1644846163.03125,P08,D09,0,0,0
1193,-43.0,2.0,48.0,1644846163.0625,P08,D09,0,0,0
1194,-44.0,-2.0,47.0,1644846163.09375,P08,D09,0,0,0
1195,-43.0,-2.0,47.0,1644846163.125,P08,D09,0,0,0
1196,-42.0,-5.0,50.0,1644846163.15625,P08,D09,0,0,0
1197,-42.0,-2.0,50.0,1644846163.1875,P08,D09,0,0,0
1198,-40.0,-2.0,49.0,1644846163.21875,P08,D09,0,0,0
1199,-39.0,-1.0,50.0,1644846163.25,P08,D09,0,0,0
1200,-40.0,0.0,49.0,1644846163.28125,P08,D09,0,0,0
1201,-39.0,1.0,49.0,1644846163.3125,P08,D09,0,0,0
1202,-41.0,2.0,48.0,1644846163.34375,P08,D09,0,0,0
1203,-42.0,10.0,47.0,1644846163.375,P08,D09,0,0,0
1204,-46.0,5.0,45.0,1644846163.40625,P08,D09,0,0,0
1205,-44.0,7.0,46.0,1644846163.4375,P08,D09,0,0,0
1206,-45.0,7.0,46.0,1644846163.46875,P08,D09,0,0,0
1207,-42.0,6.0,48.0,1644846163.5,P08,D09,0,0,0
1208,-41.0,1.0,47.0,1644846163.53125,P08,D09,0,0,0
1209,-42.0,-3.0,47.0,1644846163.5625,P08,D09,0,0,0
1210,-42.0,-4.0,47.0,1644846163.59375,P08,D09,0,0,0
1211,-41.0,0.0,48.0,1644846163.625,P08,D09,0,0,0
1212,-42.0,1.0,48.0,1644846163.65625,P08,D09,0,0,0
1213,-40.0,4.0,48.0,1644846163.6875,P08,D09,0,0,0
1214,-41.0,4.0,48.0,1644846163.71875,P08,D09,0,0,0
1215,-42.0,2.0,48.0,1644846163.75,P08,D09,0,0,0
1216,-45.0,1.0,46.0,1644846163.78125,P08,D09,0,0,0
1217,-44.0,0.0,46.0,1644846163.8125,P08,D09,0,0,0
1218,-42.0,-1.0,46.0,1644846163.84375,P08,D09,0,0,0
1219,-43.0,-1.0,46.0,1644846163.875,P08,D09,0,0,0
1220,-43.0,-1.0,47.0,1644846163.90625,P08,D09,0,0,0
1221,-43.0,-1.0,47.0,1644846163.9375,P08,D09,0,0,0
1222,-43.0,2.0,47.0,1644846163.96875,P08,D09,0,0,0
1223,-43.0,3.0,46.0,1644846164.0,P08,D09,0,0,0
1224,-45.0,2.0,46.0,1644846164.03125,P08,D09,0,0,0
1225,-45.0,2.0,45.0,1644846164.0625,P08,D09,0,0,0
1226,-45.0,5.0,45.0,1644846164.09375,P08,D09,0,0,0
1227,-45.0,7.0,46.0,1644846164.125,P08,D09,0,0,0
1228,-44.0,6.0,47.0,1644846164.15625,P08,D09,0,0,0
1229,-45.0,1.0,47.0,1644846164.1875,P08,D09,0,0,0
1230,-43.0,1.0,48.0,1644846164.21875,P08,D09,0,0,0
1231,-43.0,1.0,49.0,1644846164.25,P08,D09,0,0,0
1232,-43.0,1.0,49.0,1644846164.28125,P08,D09,0,0,0
1233,-42.0,5.0,52.0,1644846164.3125,P08,D09,0,0,0
1234,-44.0,3.0,55.0,1644846164.34375,P08,D09,0,0,0
1235,-54.0,-4.0,54.0,1644846164.375,P08,D09,0,0,0
1236,-50.0,-3.0,53.0,1644846164.40625,P08,D09,0,0,0
1237,-41.0,-8.0,45.0,1644846164.4375,P08,D09,0,0,0
1238,-30.0,-11.0,40.0,1644846164.46875,P08,D09,0,0,0
1239,-24.0,-12.0,41.0,1644846164.5,P08,D09,0,0,0
1240,-24.0,-12.0,47.0,1644846164.53125,P08,D09,0,0,0
1241,-28.0,-9.0,51.0,1644846164.5625,P08,D09,0,0,0
1242,-37.0,-15.0,51.0,1644846164.59375,P08,D09,0,0,0
1243,-25.0,-19.0,51.0,1644846164.625,P08,D09,0,0,0
1244,-9.0,-13.0,55.0,1644846164.65625,P08,D09,0,0,0
1245,-9.0,-11.0,58.0,1644846164.6875,P08,D09,0,0,0
1246,-22.0,-8.0,56.0,1644846164.71875,P08,D09,0,0,0
1247,-32.0,-5.0,55.0,1644846164.75,P08,D09,0,0,0
1248,-40.0,-3.0,53.0,1644846164.78125,P08,D09,0,0,0
1249,-44.0,-17.0,52.0,1644846164.8125,P08,D09,0,0,0
1250,-62.0,-7.0,48.0,1644846164.84375,P08,D09,0,0,0
1251,-57.0,0.0,43.0,1644846164.875,P08,D09,0,0,0
1252,-48.0,-5.0,41.0,1644846164.90625,P08,D09,0,0,0
1253,-43.0,-2.0,46.0,1644846164.9375,P08,D09,0,0,0
1254,-46.0,0.0,46.0,1644846164.96875,P08,D09,0,0,0
1255,-45.0,2.0,47.0,1644846165.0,P08,D09,0,0,0
1256,-44.0,3.0,47.0,1644846165.03125,P08,D09,0,0,0
1257,-44.0,1.0,47.0,1644846165.0625,P08,D09,0,0,0
1258,-44.0,0.0,46.0,1644846165.09375,P08,D09,0,0,0
1259,-45.0,0.0,45.0,1644846165.125,P08,D09,0,0,0
1260,-45.0,0.0,45.0,1644846165.15625,P08,D09,0,0,0
1261,-44.0,0.0,46.0,1644846165.1875,P08,D09,0,0,0
1262,-44.0,1.0,47.0,1644846165.21875,P08,D09,0,0,0
1263,-43.0,1.0,47.0,1644846165.25,P08,D09,0,0,0
1264,-43.0,1.0,47.0,1644846165.28125,P08,D09,0,0,0
1265,-43.0,1.0,47.0,1644846165.3125,P08,D09,0,0,0
1266,-43.0,1.0,47.0,1644846165.34375,P08,D09,0,0,0
1267,-42.0,1.0,47.0,1644846165.375,P08,D09,0,0,0
1268,-42.0,1.0,48.0,1644846165.40625,P08,D09,0,0,0
1269,-42.0,1.0,48.0,1644846165.4375,P08,D09,0,0,0
1270,-41.0,1.0,49.0,1644846165.46875,P08,D09,0,0,0
1271,-41.0,0.0,49.0,1644846165.5,P08,D09,0,0,0
1272,-42.0,-2.0,47.0,1644846165.53125,P08,D09,0,0,0
1273,-43.0,-2.0,47.0,1644846165.5625,P08,D09,0,0,0
1274,-43.0,-2.0,47.0,1644846165.59375,P08,D09,0,0,0
1275,-41.0,-1.0,48.0,1644846165.625,P08,D09,0,0,0
1276,-41.0,0.0,48.0,1644846165.65625,P08,D09,0,0,0
1277,-41.0,0.0,49.0,1644846165.6875,P08,D09,0,0,0
1278,-41.0,0.0,49.0,1644846165.71875,P08,D09,0,0,0
1279,-40.0,0.0,49.0,1644846165.75,P08,D09,0,0,0
1280,-40.0,1.0,49.0,1644846165.78125,P08,D09,0,0,0
1281,-40.0,1.0,49.0,1644846165.8125,P08,D09,0,0,0
1282,-40.0,1.0,50.0,1644846165.84375,P08,D09,0,0,0
1283,-39.0,1.0,50.0,1644846165.875,P08,D09,0,0,0
1284,-40.0,1.0,49.0,1644846165.90625,P08,D09,0,0,0
1285,-41.0,1.0,49.0,1644846165.9375,P08,D09,0,0,0
1286,-41.0,1.0,49.0,1644846165.96875,P08,D09,0,0,0
1287,-41.0,1.0,49.0,1644846166.0,P08,D09,0,0,0
1288,-40.0,1.0,49.0,1644846166.03125,P08,D09,0,0,0
1289,-41.0,1.0,49.0,1644846166.0625,P08,D09,0,0,0
1290,-40.0,1.0,49.0,1644846166.09375,P08,D09,0,0,0
1291,-40.0,1.0,49.0,1644846166.125,P08,D09,0,0,0
1292,-40.0,1.0,49.0,1644846166.15625,P08,D09,0,0,0
1293,-40.0,2.0,49.0,1644846166.1875,P08,D09,0,0,0
1294,-39.0,1.0,50.0,1644846166.21875,P08,D09,0,0,0
1295,-40.0,0.0,49.0,1644846166.25,P08,D09,0,0,0
1296,-41.0,1.0,49.0,1644846166.28125,P08,D09,0,0,0
1297,-42.0,0.0,48.0,1644846166.3125,P08,D09,0,0,0
1298,-42.0,0.0,48.0,1644846166.34375,P08,D09,0,0,0
1299,-41.0,1.0,48.0,1644846166.375,P08,D09,0,0,0
1300,-41.0,1.0,48.0,1644846166.40625,P08,D09,0,0,0
1301,-41.0,1.0,49.0,1644846166.4375,P08,D09,0,0,0
1302,-40.0,1.0,49.0,1644846166.46875,P08,D09,0,0,0
1303,-40.0,1.0,49.0,1644846166.5,P08,D09,0,0,0
1304,-41.0,1.0,49.0,1644846166.53125,P08,D09,0,0,0
1305,-41.0,1.0,49.0,1644846166.5625,P08,D09,0,0,0
1306,-40.0,1.0,49.0,1644846166.59375,P08,D09,0,0,0
1307,-39.0,1.0,50.0,1644846166.625,P08,D09,0,0,0
1308,-40.0,2.0,49.0,1644846166.65625,P08,D09,0,0,0
1309,-41.0,1.0,49.0,1644846166.6875,P08,D09,0,0,0
1310,-41.0,2.0,49.0,1644846166.71875,P08,D09,0,0,0
1311,-41.0,2.0,49.0,1644846166.75,P08,D09,0,0,0
1312,-40.0,1.0,49.0,1644846166.78125,P08,D09,0,0,0
1313,-41.0,1.0,49.0,1644846166.8125,P08,D09,0,0,0
1314,-41.0,1.0,49.0,1644846166.84375,P08,D09,0,0,0
1315,-41.0,1.0,48.0,1644846166.875,P08,D09,0,0,0
1316,-41.0,0.0,49.0,1644846166.90625,P08,D09,0,0,0
1317,-40.0,-3.0,50.0,1644846166.9375,P08,D09,0,0,0
1318,-38.0,2.0,50.0,1644846166.96875,P08,D09,0,0,0
1319,-37.0,5.0,52.0,1644846167.0,P08,D09,0,0,0
1320,-37.0,5.0,52.0,1644846167.03125,P08,D09,0,0,0
1321,-36.0,3.0,52.0,1644846167.0625,P08,D09,0,0,0
1322,-36.0,2.0,52.0,1644846167.09375,P08,D09,0,0,0
1323,-38.0,1.0,51.0,1644846167.125,P08,D09,0,0,0
1324,-39.0,1.0,50.0,1644846167.15625,P08,D09,0,0,0
1325,-39.0,1.0,50.0,1644846167.1875,P08,D09,0,0,0
1326,-39.0,1.0,50.0,1644846167.21875,P08,D09,0,0,0
1327,-39.0,1.0,50.0,1644846167.25,P08,D09,0,0,0
1328,-39.0,1.0,50.0,1644846167.28125,P08,D09,0,0,0
1329,-39.0,1.0,50.0,1644846167.3125,P08,D09,0,0,0
1330,-39.0,1.0,50.0,1644846167.34375,P08,D09,0,0,0
1331,-39.0,1.0,50.0,1644846167.375,P08,D09,0,0,0
1332,-39.0,1.0,50.0,1644846167.40625,P08,D09,0,0,0
1333,-38.0,1.0,50.0,1644846167.4375,P08,D09,0,0,0
1334,-38.0,1.0,51.0,1644846167.46875,P08,D09,0,0,0
1335,-38.0,1.0,51.0,1644846167.5,P08,D09,0,0,0
1336,-39.0,1.0,50.0,1644846167.53125,P08,D09,0,0,0
1337,-39.0,1.0,50.0,1644846167.5625,P08,D09,0,0,0
1338,-39.0,1.0,50.0,1644846167.59375,P08,D09,0,0,0
1339,-38.0,1.0,50.0,1644846167.625,P08,D09,0,0,0
1340,-38.0,1.0,51.0,1644846167.65625,P08,D09,0,0,0
1341,-39.0,1.0,51.0,1644846167.6875,P08,D09,0,0,0
1342,-39.0,1.0,51.0,1644846167.71875,P08,D09,0,0,0
1343,-38.0,1.0,50.0,1644846167.75,P08,D09,0,0,0
1344,-38.0,1.0,51.0,1644846167.78125,P08,D09,0,0,0
1345,-38.0,1.0,51.0,1644846167.8125,P08,D09,0,0,0
1346,-38.0,1.0,51.0,1644846167.84375,P08,D09,0,0,0
1347,-38.0,1.0,51.0,1644846167.875,P08,D09,0,0,0
1348,-38.0,1.0,51.0,1644846167.90625,P08,D09,0,0,0
1349,-37.0,1.0,51.0,1644846167.9375,P08,D09,0,0,0
1350,-38.0,1.0,51.0,1644846167.96875,P08,D09,0,0,0
1351,-38.0,1.0,51.0,1644846168.0,P08,D09,0,0,0
1352,-38.0,0.0,51.0,1644846168.03125,P08,D09,0,0,0
1353,-38.0,1.0,51.0,1644846168.0625,P08,D09,0,0,0
1354,-38.0,1.0,51.0,1644846168.09375,P08,D09,0,0,0
1355,-38.0,1.0,51.0,1644846168.125,P08,D09,0,0,0
1356,-38.0,1.0,51.0,1644846168.15625,P08,D09,0,0,0
1357,-38.0,1.0,51.0,1644846168.1875,P08,D09,0,0,0
1358,-38.0,1.0,51.0,1644846168.21875,P08,D09,0,0,0
1359,-38.0,1.0,51.0,1644846168.25,P08,D09,0,0,0
1360,-38.0,1.0,51.0,1644846168.28125,P08,D09,0,0,0
1361,-38.0,1.0,51.0,1644846168.3125,P08,D09,0,0,0
1362,-38.0,1.0,51.0,1644846168.34375,P08,D09,0,0,0
1363,-38.0,1.0,51.0,1644846168.375,P08,D09,0,0,0
1364,-38.0,1.0,51.0,1644846168.40625,P08,D09,0,0,0
1365,-38.0,1.0,51.0,1644846168.4375,P08,D09,0,0,0
1366,-38.0,0.0,51.0,1644846168.46875,P08,D09,0,0,0
1367,-38.0,0.0,51.0,1644846168.5,P08,D09,0,0,0
1368,-38.0,1.0,51.0,1644846168.53125,P08,D09,0,0,0
1369,-38.0,1.0,51.0,1644846168.5625,P08,D09,0,0,0
1370,-38.0,1.0,51.0,1644846168.59375,P08,D09,0,0,0
1371,-38.0,1.0,51.0,1644846168.625,P08,D09,0,0,0
1372,-38.0,1.0,51.0,1644846168.65625,P08,D09,0,0,0
1373,-39.0,1.0,51.0,1644846168.6875,P08,D09,0,0,0
1374,-39.0,1.0,50.0,1644846168.71875,P08,D09,0,0,0
1375,-38.0,1.0,51.0,1644846168.75,P08,D09,0,0,0
1376,-38.0,1.0,51.0,1644846168.78125,P08,D09,0,0,0
1377,-37.0,1.0,51.0,1644846168.8125,P08,D09,0,0,0
1378,-38.0,1.0,51.0,1644846168.84375,P08,D09,0,0,0
1379,-38.0,1.0,51.0,1644846168.875,P08,D09,0,0,0
1380,-38.0,1.0,51.0,1644846168.90625,P08,D09,0,0,0
1381,-38.0,1.0,51.0,1644846168.9375,P08,D09,0,0,0
1382,-38.0,1.0,51.0,1644846168.96875,P08,D09,0,0,0
1383,-38.0,1.0,51.0,1644846169.0,P08,D09,0,0,0
1384,-38.0,1.0,51.0,1644846169.03125,P08,D09,0,0,0
1385,-38.0,1.0,51.0,1644846169.0625,P08,D09,0,0,0
1386,-38.0,1.0,51.0,1644846169.09375,P08,D09,0,0,0
1387,-38.0,1.0,51.0,1644846169.125,P08,D09,0,0,0
1388,-38.0,1.0,51.0,1644846169.15625,P08,D09,0,0,0
1389,-38.0,1.0,51.0,1644846169.1875,P08,D09,0,0,0
1390,-38.0,1.0,51.0,1644846169.21875,P08,D09,0,0,0
1391,-38.0,1.0,51.0,1644846169.25,P08,D09,0,0,0
1392,-38.0,1.0,51.0,1644846169.28125,P08,D09,0,0,0
1393,-38.0,1.0,50.0,1644846169.3125,P08,D09,0,0,0
1394,-38.0,1.0,50.0,1644846169.34375,P08,D09,0,0,0
1395,-39.0,1.0,51.0,1644846169.375,P08,D09,0,0,0
1396,-39.0,1.0,50.0,1644846169.40625,P08,D09,0,0,0
1397,-38.0,1.0,51.0,1644846169.4375,P08,D09,0,0,0
1398,-38.0,1.0,51.0,1644846169.46875,P08,D09,0,0,0
1399,-38.0,1.0,51.0,1644846169.5,P08,D09,0,0,0
1400,-38.0,1.0,50.0,1644846169.53125,P08,D09,0,0,0
1401,-39.0,1.0,51.0,1644846169.5625,P08,D09,0,0,0
1402,-38.0,1.0,50.0,1644846169.59375,P08,D09,0,0,0
1403,-38.0,1.0,51.0,1644846169.625,P08,D09,0,0,0
1404,-38.0,1.0,51.0,1644846169.65625,P08,D09,0,0,0
1405,-38.0,1.0,50.0,1644846169.6875,P08,D09,0,0,0
1406,-39.0,1.0,50.0,1644846169.71875,P08,D09,0,0,0
1407,-39.0,1.0,51.0,1644846169.75,P08,D09,0,0,0
1408,-38.0,1.0,51.0,1644846169.78125,P08,D09,0,0,0
1409,-38.0,1.0,51.0,1644846169.8125,P08,D09,0,0,0
1410,-38.0,1.0,51.0,1644846169.84375,P08,D09,0,0,0
1411,-39.0,1.0,50.0,1644846169.875,P08,D09,0,0,0
1412,-38.0,1.0,50.0,1644846169.90625,P08,D09,0,0,0
1413,-39.0,1.0,50.0,1644846169.9375,P08,D09,0,0,0
1414,-39.0,1.0,50.0,1644846169.96875,P08,D09,0,0,0
1415,-39.0,1.0,50.0,1644846170.0,P08,D09,0,0,0
1416,-38.0,1.0,51.0,1644846170.03125,P08,D09,0,0,0
1417,-38.0,1.0,51.0,1644846170.0625,P08,D09,0,0,0
1418,-38.0,1.0,51.0,1644846170.09375,P08,D09,0,0,0
1419,-38.0,1.0,50.0,1644846170.125,P08,D09,0,0,0
1420,-39.0,1.0,50.0,1644846170.15625,P08,D09,0,0,0
1421,-39.0,1.0,50.0,1644846170.1875,P08,D09,0,0,0
1422,-38.0,1.0,51.0,1644846170.21875,P08,D09,0,0,0
1423,-38.0,1.0,51.0,1644846170.25,P08,D09,0,0,0
1424,-38.0,1.0,51.0,1644846170.28125,P08,D09,0,0,0
1425,-38.0,1.0,50.0,1644846170.3125,P08,D09,0,0,0
1426,-39.0,1.0,50.0,1644846170.34375,P08,D09,0,0,0
1427,-39.0,1.0,50.0,1644846170.375,P08,D09,0,0,0
1428,-38.0,1.0,51.0,1644846170.40625,P08,D09,0,0,0
1429,-38.0,1.0,51.0,1644846170.4375,P08,D09,0,0,0
1430,-38.0,1.0,51.0,1644846170.46875,P08,D09,0,0,0
1431,-38.0,1.0,51.0,1644846170.5,P08,D09,0,0,0
1432,-39.0,1.0,50.0,1644846170.53125,P08,D09,0,0,0
1433,-39.0,1.0,50.0,1644846170.5625,P08,D09,0,0,0
1434,-39.0,1.0,50.0,1644846170.59375,P08,D09,0,0,0
1435,-39.0,1.0,50.0,1644846170.625,P08,D09,0,0,0
1436,-38.0,1.0,51.0,1644846170.65625,P08,D09,0,0,0
1437,-39.0,1.0,50.0,1644846170.6875,P08,D09,0,0,0
1438,-39.0,1.0,50.0,1644846170.71875,P08,D09,0,0,0
1439,-39.0,1.0,50.0,1644846170.75,P08,D09,0,0,0
1440,-39.0,1.0,50.0,1644846170.78125,P08,D09,0,0,0
1441,-39.0,1.0,50.0,1644846170.8125,P08,D09,0,0,0
1442,-39.0,1.0,50.0,1644846170.84375,P08,D09,0,0,0
1443,-39.0,1.0,51.0,1644846170.875,P08,D09,0,0,0
1444,-39.0,1.0,50.0,1644846170.90625,P08,D09,0,0,0
1445,-39.0,1.0,50.0,1644846170.9375,P08,D09,0,0,0
1446,-39.0,1.0,50.0,1644846170.96875,P08,D09,0,0,0
1447,-38.0,1.0,50.0,1644846171.0,P08,D09,0,0,0
1448,-39.0,1.0,50.0,1644846171.03125,P08,D09,0,0,0
1449,-39.0,1.0,50.0,1644846171.0625,P08,D09,0,0,0
1450,-39.0,1.0,50.0,1644846171.09375,P08,D09,0,0,0
1451,-39.0,1.0,50.0,1644846171.125,P08,D09,0,0,0
1452,-39.0,1.0,50.0,1644846171.15625,P08,D09,0,0,0
1453,-39.0,1.0,50.0,1644846171.1875,P08,D09,0,0,0
1454,-39.0,1.0,50.0,1644846171.21875,P08,D09,0,0,0
1455,-40.0,2.0,50.0,1644846171.25,P08,D09,0,0,0
1456,-38.0,1.0,51.0,1644846171.28125,P08,D09,0,0,0
1457,-39.0,1.0,50.0,1644846171.3125,P08,D09,0,0,0
1458,-39.0,1.0,50.0,1644846171.34375,P08,D09,0,0,0
1459,-39.0,1.0,50.0,1644846171.375,P08,D09,0,0,0
1460,-39.0,1.0,50.0,1644846171.40625,P08,D09,0,0,0
1461,-39.0,1.0,50.0,1644846171.4375,P08,D09,0,0,0
1462,-39.0,1.0,50.0,1644846171.46875,P08,D09,0,0,0
1463,-39.0,1.0,50.0,1644846171.5,P08,D09,0,0,0
1464,-39.0,1.0,50.0,1644846171.53125,P08,D09,0,0,0
1465,-39.0,1.0,50.0,1644846171.5625,P08,D09,0,0,0
1466,-39.0,1.0,50.0,1644846171.59375,P08,D09,0,0,0
1467,-39.0,1.0,50.0,1644846171.625,P08,D09,0,0,0
1468,-39.0,1.0,50.0,1644846171.65625,P08,D09,0,0,0
1469,-39.0,1.0,50.0,1644846171.6875,P08,D09,0,0,0
1470,-39.0,1.0,50.0,1644846171.71875,P08,D09,0,0,0
1471,-39.0,1.0,50.0,1644846171.75,P08,D09,0,0,0
1472,-39.0,1.0,50.0,1644846171.78125,P08,D09,0,0,0
1473,-39.0,1.0,50.0,1644846171.8125,P08,D09,0,0,0
1474,-39.0,1.0,50.0,1644846171.84375,P08,D09,0,0,0
1475,-39.0,1.0,50.0,1644846171.875,P08,D09,0,0,0
1476,-39.0,1.0,50.0,1644846171.90625,P08,D09,0,0,0
1477,-39.0,1.0,50.0,1644846171.9375,P08,D09,0,0,0
1478,-39.0,1.0,50.0,1644846171.96875,P08,D09,0,0,0
1479,-39.0,1.0,50.0,1644846172.0,P08,D09,0,0,0
1480,-39.0,1.0,50.0,1644846172.03125,P08,D09,0,0,0
1481,-39.0,1.0,50.0,1644846172.0625,P08,D09,0,0,0
1482,-39.0,1.0,50.0,1644846172.09375,P08,D09,0,0,0
1483,-39.0,1.0,50.0,1644846172.125,P08,D09,0,0,0
1484,-39.0,1.0,50.0,1644846172.15625,P08,D09,0,0,0
1485,-39.0,1.0,50.0,1644846172.1875,P08,D09,0,0,0
1486,-39.0,1.0,50.0,1644846172.21875,P08,D09,0,0,0
1487,-39.0,1.0,50.0,1644846172.25,P08,D09,0,0,0
1488,-39.0,1.0,50.0,1644846172.28125,P08,D09,0,0,0
1489,-39.0,1.0,50.0,1644846172.3125,P08,D09,0,0,0
1490,-39.0,1.0,50.0,1644846172.34375,P08,D09,0,0,0
1491,-39.0,1.0,50.0,1644846172.375,P08,D09,0,0,0
1492,-39.0,1.0,50.0,1644846172.40625,P08,D09,0,0,0
1493,-39.0,1.0,50.0,1644846172.4375,P08,D09,0,0,0
1494,-39.0,1.0,50.0,1644846172.46875,P08,D09,0,0,0
1495,-40.0,1.0,50.0,1644846172.5,P08,D09,0,0,0
1496,-39.0,1.0,50.0,1644846172.53125,P08,D09,0,0,0
1497,-39.0,1.0,50.0,1644846172.5625,P08,D09,0,0,0
1498,-39.0,1.0,50.0,1644846172.59375,P08,D09,0,0,0
1499,-39.0,1.0,50.0,1644846172.625,P08,D09,0,0,0
1500,-39.0,1.0,50.0,1644846172.65625,P08,D09,0,0,0
1501,-39.0,1.0,50.0,1644846172.6875,P08,D09,0,0,0
1502,-39.0,1.0,50.0,1644846172.71875,P08,D09,0,0,0
1503,-40.0,1.0,50.0,1644846172.75,P08,D09,0,0,0
1504,-40.0,1.0,50.0,1644846172.78125,P08,D09,0,0,0
1505,-39.0,1.0,50.0,1644846172.8125,P08,D09,0,0,0
1506,-39.0,1.0,50.0,1644846172.84375,P08,D09,0,0,0
1507,-39.0,1.0,50.0,1644846172.875,P08,D09,0,0,0
1508,-39.0,1.0,50.0,1644846172.90625,P08,D09,0,0,0
1509,-39.0,1.0,50.0,1644846172.9375,P08,D09,0,0,0
1510,-39.0,1.0,50.0,1644846172.96875,P08,D09,0,0,0
1511,-39.0,1.0,50.0,1644846173.0,P08,D09,0,0,0
1512,-39.0,1.0,50.0,1644846173.03125,P08,D09,0,0,0
1513,-39.0,1.0,50.0,1644846173.0625,P08,D09,0,0,0
1514,-39.0,1.0,50.0,1644846173.09375,P08,D09,0,0,0
1515,-39.0,1.0,50.0,1644846173.125,P08,D09,0,0,0
1516,-40.0,1.0,50.0,1644846173.15625,P08,D09,0,0,0
1517,-40.0,1.0,50.0,1644846173.1875,P08,D09,0,0,0
1518,-39.0,1.0,50.0,1644846173.21875,P08,D09,0,0,0
1519,-38.0,1.0,50.0,1644846173.25,P08,D09,0,0,0
1520,-39.0,1.0,50.0,1644846173.28125,P08,D09,0,0,0
1521,-39.0,1.0,50.0,1644846173.3125,P08,D09,0,0,0
1522,-39.0,1.0,50.0,1644846173.34375,P08,D09,0,0,0
1523,-39.0,1.0,50.0,1644846173.375,P08,D09,0,0,0
1524,-39.0,1.0,50.0,1644846173.40625,P08,D09,0,0,0
1525,-39.0,1.0,50.0,1644846173.4375,P08,D09,0,0,0
1526,-39.0,1.0,50.0,1644846173.46875,P08,D09,0,0,0
1527,-39.0,1.0,50.0,1644846173.5,P08,D09,0,0,0
1528,-39.0,1.0,50.0,1644846173.53125,P08,D09,0,0,0
1529,-39.0,1.0,50.0,1644846173.5625,P08,D09,0,0,0
1530,-39.0,1.0,50.0,1644846173.59375,P08,D09,0,0,0
1531,-39.0,1.0,50.0,1644846173.625,P08,D09,0,0,0
1532,-39.0,1.0,50.0,1644846173.65625,P08,D09,0,0,0
1533,-39.0,1.0,50.0,1644846173.6875,P08,D09,0,0,0
1534,-39.0,1.0,50.0,1644846173.71875,P08,D09,0,0,0
1535,-40.0,1.0,50.0,1644846173.75,P08,D09,0,0,0
1536,-40.0,1.0,50.0,1644846173.78125,P08,D09,0,0,0
1537,-40.0,1.0,50.0,1644846173.8125,P08,D09,0,0,0
1538,-39.0,1.0,50.0,1644846173.84375,P08,D09,0,0,0
1539,-39.0,1.0,50.0,1644846173.875,P08,D09,0,0,0
1540,-40.0,1.0,50.0,1644846173.90625,P08,D09,0,0,0
1541,-40.0,1.0,50.0,1644846173.9375,P08,D09,0,0,0
1542,-39.0,1.0,50.0,1644846173.96875,P08,D09,0,0,0
1543,-39.0,1.0,50.0,1644846174.0,P08,D09,0,0,0
1544,-39.0,1.0,50.0,1644846174.03125,P08,D09,0,0,0
1545,-39.0,1.0,50.0,1644846174.0625,P08,D09,0,0,0
1546,-39.0,1.0,50.0,1644846174.09375,P08,D09,0,0,0
1547,-39.0,1.0,50.0,1644846174.125,P08,D09,0,0,0
1548,-39.0,1.0,50.0,1644846174.15625,P08,D09,0,0,0
1549,-39.0,1.0,50.0,1644846174.1875,P08,D09,0,0,0
1550,-39.0,1.0,50.0,1644846174.21875,P08,D09,0,0,0
1551,-38.0,1.0,51.0,1644846174.25,P08,D09,0,0,0
1552,-39.0,1.0,50.0,1644846174.28125,P08,D09,0,0,0
1553,-41.0,2.0,49.0,1644846174.3125,P08,D09,0,0,0
1554,-40.0,1.0,49.0,1644846174.34375,P08,D09,0,0,0
1555,-41.0,1.0,48.0,1644846174.375,P08,D09,0,0,0
1556,-41.0,1.0,49.0,1644846174.40625,P08,D09,0,0,0
1557,-40.0,1.0,49.0,1644846174.4375,P08,D09,0,0,0
1558,-40.0,1.0,49.0,1644846174.46875,P08,D09,0,0,0
1559,-40.0,1.0,50.0,1644846174.5,P08,D09,0,0,0
1560,-40.0,1.0,49.0,1644846174.53125,P08,D09,0,0,0
1561,-40.0,1.0,49.0,1644846174.5625,P08,D09,0,0,0
1562,-40.0,2.0,49.0,1644846174.59375,P08,D09,0,0,0
1563,-41.0,1.0,49.0,1644846174.625,P08,D09,0,0,0
1564,-40.0,1.0,49.0,1644846174.65625,P08,D09,0,0,0
1565,-40.0,1.0,49.0,1644846174.6875,P08,D09,0,0,0
1566,-40.0,1.0,49.0,1644846174.71875,P08,D09,0,0,0
1567,-40.0,1.0,49.0,1644846174.75,P08,D09,0,0,0
1568,-40.0,1.0,50.0,1644846174.78125,P08,D09,0,0,0
1569,-40.0,1.0,50.0,1644846174.8125,P08,D09,0,0,0
1570,-40.0,1.0,50.0,1644846174.84375,P08,D09,0,0,0
1571,-40.0,1.0,49.0,1644846174.875,P08,D09,0,0,0
1572,-41.0,1.0,49.0,1644846174.90625,P08,D09,0,0,0
1573,-40.0,1.0,49.0,1644846174.9375,P08,D09,0,0,0
1574,-40.0,1.0,49.0,1644846174.96875,P08,D09,0,0,0
1575,-40.0,1.0,49.0,1644846175.0,P08,D09,0,0,0
1576,-40.0,1.0,49.0,1644846175.03125,P08,D09,0,0,0
1577,-40.0,1.0,49.0,1644846175.0625,P08,D09,0,0,0
1578,-40.0,1.0,49.0,1644846175.09375,P08,D09,0,0,0
1579,-40.0,1.0,49.0,1644846175.125,P08,D09,0,0,0
1580,-40.0,1.0,49.0,1644846175.15625,P08,D09,0,0,0
1581,-40.0,1.0,49.0,1644846175.1875,P08,D09,0,0,0
1582,-40.0,1.0,49.0,1644846175.21875,P08,D09,0,0,0
1583,-40.0,1.0,49.0,1644846175.25,P08,D09,0,0,0
1584,-40.0,1.0,49.0,1644846175.28125,P08,D09,0,0,0
1585,-40.0,1.0,49.0,1644846175.3125,P08,D09,0,0,0
1586,-40.0,2.0,50.0,1644846175.34375,P08,D09,0,0,0
1587,-40.0,2.0,50.0,1644846175.375,P08,D09,0,0,0
1588,-40.0,1.0,49.0,1644846175.40625,P08,D09,0,0,0
1589,-40.0,1.0,49.0,1644846175.4375,P08,D09,0,0,0
1590,-40.0,1.0,49.0,1644846175.46875,P08,D09,0,0,0
1591,-40.0,1.0,49.0,1644846175.5,P08,D09,0,0,0
1592,-40.0,2.0,50.0,1644846175.53125,P08,D09,0,0,0
1593,-40.0,1.0,50.0,1644846175.5625,P08,D09,0,0,0
1594,-40.0,1.0,49.0,1644846175.59375,P08,D09,0,0,0
1595,-40.0,1.0,49.0,1644846175.625,P08,D09,0,0,0
1596,-40.0,1.0,50.0,1644846175.65625,P08,D09,0,0,0
1597,-40.0,1.0,50.0,1644846175.6875,P08,D09,0,0,0
1598,-40.0,1.0,50.0,1644846175.71875,P08,D09,0,0,0
1599,-40.0,1.0,50.0,1644846175.75,P08,D09,0,0,0
1600,-40.0,1.0,49.0,1644846175.78125,P08,D09,0,0,0
1601,-40.0,1.0,50.0,1644846175.8125,P08,D09,0,0,0
1602,-40.0,1.0,49.0,1644846175.84375,P08,D09,0,0,0
1603,-40.0,1.0,49.0,1644846175.875,P08,D09,0,0,0
1604,-40.0,1.0,49.0,1644846175.90625,P08,D09,0,0,0
1605,-40.0,1.0,49.0,1644846175.9375,P08,D09,0,0,0
1606,-40.0,1.0,50.0,1644846175.96875,P08,D09,0,0,0
1607,-40.0,1.0,49.0,1644846176.0,P08,D09,0,0,0
1608,-40.0,1.0,50.0,1644846176.03125,P08,D09,0,0,0
1609,-40.0,1.0,49.0,1644846176.0625,P08,D09,0,0,0
1610,-40.0,1.0,49.0,1644846176.09375,P08,D09,0,0,0
1611,-40.0,1.0,50.0,1644846176.125,P08,D09,0,0,0
1612,-39.0,1.0,50.0,1644846176.15625,P08,D09,0,0,0
1613,-40.0,1.0,50.0,1644846176.1875,P08,D09,0,0,0
1614,-40.0,1.0,49.0,1644846176.21875,P08,D09,0,0,0
1615,-40.0,1.0,49.0,1644846176.25,P08,D09,0,0,0
1616,-39.0,1.0,50.0,1644846176.28125,P08,D09,0,0,0
1617,-40.0,1.0,50.0,1644846176.3125,P08,D09,0,0,0
1618,-40.0,1.0,50.0,1644846176.34375,P08,D09,0,0,0
1619,-40.0,1.0,50.0,1644846176.375,P08,D09,0,0,0
1620,-40.0,1.0,50.0,1644846176.40625,P08,D09,0,0,0
1621,-40.0,1.0,50.0,1644846176.4375,P08,D09,0,0,0
1622,-40.0,1.0,50.0,1644846176.46875,P08,D09,0,0,0
1623,-40.0,1.0,49.0,1644846176.5,P08,D09,0,0,0
1624,-39.0,1.0,50.0,1644846176.53125,P08,D09,0,0,0
1625,-40.0,1.0,50.0,1644846176.5625,P08,D09,0,0,0
1626,-40.0,2.0,50.0,1644846176.59375,P08,D09,0,0,0
1627,-40.0,1.0,50.0,1644846176.625,P08,D09,0,0,0
1628,-40.0,1.0,50.0,1644846176.65625,P08,D09,0,0,0
1629,-40.0,1.0,49.0,1644846176.6875,P08,D09,0,0,0
1630,-39.0,1.0,50.0,1644846176.71875,P08,D09,0,0,0
1631,-40.0,1.0,50.0,1644846176.75,P08,D09,0,0,0
1632,-39.0,1.0,50.0,1644846176.78125,P08,D09,0,0,0
1633,-39.0,1.0,50.0,1644846176.8125,P08,D09,0,0,0
1634,-40.0,1.0,49.0,1644846176.84375,P08,D09,0,0,0
1635,-40.0,1.0,50.0,1644846176.875,P08,D09,0,0,0
1636,-39.0,1.0,50.0,1644846176.90625,P08,D09,0,0,0
1637,-39.0,1.0,50.0,1644846176.9375,P08,D09,0,0,0
1638,-39.0,1.0,50.0,1644846176.96875,P08,D09,0,0,0
1639,-40.0,1.0,50.0,1644846177.0,P08,D09,0,0,0
1640,-40.0,1.0,50.0,1644846177.03125,P08,D09,0,0,0
1641,-40.0,1.0,50.0,1644846177.0625,P08,D09,0,0,0
1642,-39.0,1.0,50.0,1644846177.09375,P08,D09,0,0,0
1643,-40.0,1.0,50.0,1644846177.125,P08,D09,0,0,0
1644,-40.0,1.0,50.0,1644846177.15625,P08,D09,0,0,0
1645,-40.0,1.0,50.0,1644846177.1875,P08,D09,0,0,0
1646,-40.0,1.0,50.0,1644846177.21875,P08,D09,0,0,0
1647,-40.0,1.0,50.0,1644846177.25,P08,D09,0,0,0
1648,-39.0,1.0,50.0,1644846177.28125,P08,D09,0,0,0
1649,-40.0,1.0,50.0,1644846177.3125,P08,D09,0,0,0
1650,-40.0,1.0,50.0,1644846177.34375,P08,D09,0,0,0
1651,-40.0,1.0,50.0,1644846177.375,P08,D09,0,0,0
1652,-40.0,1.0,50.0,1644846177.40625,P08,D09,0,0,0
1653,-39.0,1.0,50.0,1644846177.4375,P08,D09,0,0,0
1654,-40.0,1.0,50.0,1644846177.46875,P08,D09,0,0,0
1655,-40.0,1.0,50.0,1644846177.5,P08,D09,0,0,0
1656,-39.0,1.0,50.0,1644846177.53125,P08,D09,0,0,0
1657,-40.0,1.0,50.0,1644846177.5625,P08,D09,0,0,0
1658,-40.0,1.0,50.0,1644846177.59375,P08,D09,0,0,0
1659,-39.0,1.0,50.0,1644846177.625,P08,D09,0,0,0
1660,-39.0,1.0,50.0,1644846177.65625,P08,D09,0,0,0
1661,-40.0,1.0,50.0,1644846177.6875,P08,D09,0,0,0
1662,-40.0,1.0,49.0,1644846177.71875,P08,D09,0,0,0
1663,-40.0,1.0,50.0,1644846177.75,P08,D09,0,0,0
1664,-39.0,1.0,50.0,1644846177.78125,P08,D09,0,0,0
1665,-39.0,1.0,50.0,1644846177.8125,P08,D09,0,0,0
1666,-39.0,1.0,50.0,1644846177.84375,P08,D09,0,0,0
1667,-40.0,1.0,50.0,1644846177.875,P08,D09,0,0,0
1668,-40.0,1.0,50.0,1644846177.90625,P08,D09,0,0,0
1669,-39.0,1.0,50.0,1644846177.9375,P08,D09,0,0,0
1670,-39.0,1.0,50.0,1644846177.96875,P08,D09,0,0,0
1671,-40.0,1.0,50.0,1644846178.0,P08,D09,0,0,0
1672,-39.0,1.0,50.0,1644846178.03125,P08,D09,0,0,0
1673,-39.0,1.0,50.0,1644846178.0625,P08,D09,0,0,0
1674,-39.0,1.0,50.0,1644846178.09375,P08,D09,0,0,0
1675,-39.0,1.0,50.0,1644846178.125,P08,D09,0,0,0
1676,-40.0,1.0,50.0,1644846178.15625,P08,D09,0,0,0
1677,-39.0,1.0,50.0,1644846178.1875,P08,D09,0,0,0
1678,-40.0,1.0,50.0,1644846178.21875,P08,D09,0,0,0
1679,-40.0,1.0,50.0,1644846178.25,P08,D09,0,0,0
1680,-39.0,1.0,50.0,1644846178.28125,P08,D09,0,0,0
1681,-40.0,1.0,50.0,1644846178.3125,P08,D09,0,0,0
1682,-40.0,1.0,50.0,1644846178.34375,P08,D09,0,0,0
1683,-39.0,1.0,50.0,1644846178.375,P08,D09,0,0,0
1684,-40.0,1.0,50.0,1644846178.40625,P08,D09,0,0,0
1685,-40.0,1.0,50.0,1644846178.4375,P08,D09,0,0,0
1686,-39.0,1.0,50.0,1644846178.46875,P08,D09,0,0,0
1687,-39.0,1.0,50.0,1644846178.5,P08,D09,0,0,0
1688,-40.0,1.0,50.0,1644846178.53125,P08,D09,0,0,0
1689,-40.0,1.0,50.0,1644846178.5625,P08,D09,0,0,0
1690,-40.0,1.0,50.0,1644846178.59375,P08,D09,0,0,0
1691,-39.0,1.0,50.0,1644846178.625,P08,D09,0,0,0
1692,-39.0,1.0,50.0,1644846178.65625,P08,D09,0,0,0
1693,-40.0,1.0,50.0,1644846178.6875,P08,D09,0,0,0
1694,-40.0,1.0,50.0,1644846178.71875,P08,D09,0,0,0
1695,-40.0,1.0,50.0,1644846178.75,P08,D09,0,0,0
1696,-39.0,1.0,50.0,1644846178.78125,P08,D09,0,0,0
1697,-39.0,1.0,50.0,1644846178.8125,P08,D09,0,0,0
1698,-40.0,1.0,50.0,1644846178.84375,P08,D09,0,0,0
1699,-40.0,1.0,50.0,1644846178.875,P08,D09,0,0,0
1700,-40.0,1.0,50.0,1644846178.90625,P08,D09,0,0,0
1701,-39.0,1.0,50.0,1644846178.9375,P08,D09,0,0,0
1702,-39.0,1.0,50.0,1644846178.96875,P08,D09,0,0,0
1703,-40.0,1.0,50.0,1644846179.0,P08,D09,0,0,0
1704,-40.0,1.0,50.0,1644846179.03125,P08,D09,0,0,0
1705,-39.0,1.0,50.0,1644846179.0625,P08,D09,0,0,0
1706,-39.0,1.0,50.0,1644846179.09375,P08,D09,0,0,0
1707,-39.0,1.0,50.0,1644846179.125,P08,D09,0,0,0
1708,-40.0,1.0,50.0,1644846179.15625,P08,D09,0,0,0
1709,-40.0,1.0,50.0,1644846179.1875,P08,D09,0,0,0
1710,-39.0,1.0,50.0,1644846179.21875,P08,D09,0,0,0
1711,-39.0,1.0,50.0,1644846179.25,P08,D09,0,0,0
1712,-39.0,1.0,50.0,1644846179.28125,P08,D09,0,0,0
1713,-39.0,1.0,50.0,1644846179.3125,P08,D09,0,0,0
1714,-40.0,1.0,50.0,1644846179.34375,P08,D09,0,0,0
1715,-40.0,1.0,50.0,1644846179.375,P08,D09,0,0,0
1716,-40.0,1.0,50.0,1644846179.40625,P08,D09,0,0,0
1717,-40.0,1.0,49.0,1644846179.4375,P08,D09,0,0,0
1718,-40.0,1.0,50.0,1644846179.46875,P08,D09,0,0,0
1719,-40.0,1.0,50.0,1644846179.5,P08,D09,0,0,0
1720,-40.0,1.0,50.0,1644846179.53125,P08,D09,0,0,0
1721,-40.0,1.0,49.0,1644846179.5625,P08,D09,0,0,0
1722,-40.0,1.0,50.0,1644846179.59375,P08,D09,0,0,0
1723,-40.0,1.0,50.0,1644846179.625,P08,D09,0,0,0
1724,-39.0,1.0,50.0,1644846179.65625,P08,D09,0,0,0
1725,-40.0,1.0,50.0,1644846179.6875,P08,D09,0,0,0
1726,-40.0,1.0,50.0,1644846179.71875,P08,D09,0,0,0
1727,-40.0,1.0,50.0,1644846179.75,P08,D09,0,0,0
1728,-40.0,1.0,49.0,1644846179.78125,P08,D09,0,0,0
1729,-40.0,1.0,50.0,1644846179.8125,P08,D09,0,0,0
1730,-40.0,1.0,50.0,1644846179.84375,P08,D09,0,0,0
1731,-40.0,1.0,50.0,1644846179.875,P08,D09,0,0,0
1732,-40.0,1.0,50.0,1644846179.90625,P08,D09,0,0,0
1733,-39.0,1.0,50.0,1644846179.9375,P08,D09,0,0,0
1734,-40.0,1.0,50.0,1644846179.96875,P08,D09,0,0,0
1735,-40.0,1.0,50.0,1644846180.0,P08,D09,0,0,0
1736,-39.0,1.0,50.0,1644846180.03125,P08,D09,0,0,0
1737,-40.0,1.0,50.0,1644846180.0625,P08,D09,0,0,0
1738,-40.0,1.0,50.0,1644846180.09375,P08,D09,0,0,0
1739,-39.0,1.0,50.0,1644846180.125,P08,D09,0,0,0
1740,-40.0,1.0,50.0,1644846180.15625,P08,D09,0,0,0
1741,-39.0,1.0,50.0,1644846180.1875,P08,D09,0,0,0
1742,-40.0,1.0,50.0,1644846180.21875,P08,D09,0,0,0
1743,-40.0,1.0,50.0,1644846180.25,P08,D09,0,0,0
1744,-40.0,1.0,50.0,1644846180.28125,P08,D09,0,0,0
1745,-39.0,1.0,50.0,1644846180.3125,P08,D09,0,0,0
1746,-39.0,1.0,50.0,1644846180.34375,P08,D09,0,0,0
1747,-39.0,1.0,50.0,1644846180.375,P08,D09,0,0,0
1748,-40.0,1.0,50.0,1644846180.40625,P08,D09,0,0,0
1749,-40.0,1.0,50.0,1644846180.4375,P08,D09,0,0,0
1750,-40.0,1.0,50.0,1644846180.46875,P08,D09,0,0,0
1751,-39.0,1.0,50.0,1644846180.5,P08,D09,0,0,0
1752,-39.0,1.0,50.0,1644846180.53125,P08,D09,0,0,0
1753,-40.0,1.0,50.0,1644846180.5625,P08,D09,0,0,0
1754,-39.0,1.0,50.0,1644846180.59375,P08,D09,0,0,0
1755,-40.0,1.0,50.0,1644846180.625,P08,D09,0,0,0
1756,-41.0,1.0,49.0,1644846180.65625,P08,D09,0,0,0
1757,-40.0,1.0,49.0,1644846180.6875,P08,D09,0,0,0
1758,-41.0,1.0,49.0,1644846180.71875,P08,D09,0,0,0
1759,-41.0,1.0,49.0,1644846180.75,P08,D09,0,0,0
1760,-41.0,1.0,49.0,1644846180.78125,P08,D09,0,0,0
1761,-41.0,1.0,49.0,1644846180.8125,P08,D09,0,0,0
1762,-41.0,1.0,49.0,1644846180.84375,P08,D09,0,0,0
1763,-41.0,1.0,49.0,1644846180.875,P08,D09,0,0,0
1764,-40.0,1.0,49.0,1644846180.90625,P08,D09,0,0,0
1765,-40.0,1.0,49.0,1644846180.9375,P08,D09,0,0,0
1766,-40.0,1.0,49.0,1644846180.96875,P08,D09,0,0,0
1767,-40.0,1.0,49.0,1644846181.0,P08,D09,0,0,0
1768,-41.0,1.0,49.0,1644846181.03125,P08,D09,0,0,0
1769,-41.0,1.0,49.0,1644846181.0625,P08,D09,0,0,0
1770,-40.0,1.0,49.0,1644846181.09375,P08,D09,0,0,0
1771,-40.0,1.0,49.0,1644846181.125,P08,D09,0,0,0
1772,-40.0,1.0,49.0,1644846181.15625,P08,D09,0,0,0
1773,-41.0,1.0,49.0,1644846181.1875,P08,D09,0,0,0
1774,-41.0,1.0,49.0,1644846181.21875,P08,D09,0,0,0
1775,-41.0,1.0,49.0,1644846181.25,P08,D09,0,0,0
1776,-41.0,1.0,49.0,1644846181.28125,P08,D09,0,0,0
1777,-41.0,1.0,49.0,1644846181.3125,P08,D09,0,0,0
1778,-41.0,1.0,49.0,1644846181.34375,P08,D09,0,0,0
1779,-41.0,1.0,49.0,1644846181.375,P08,D09,0,0,0
1780,-41.0,1.0,49.0,1644846181.40625,P08,D09,0,0,0
1781,-41.0,1.0,49.0,1644846181.4375,P08,D09,0,0,0
1782,-40.0,1.0,49.0,1644846181.46875,P08,D09,0,0,0
1783,-41.0,1.0,49.0,1644846181.5,P08,D09,0,0,0
1784,-41.0,1.0,49.0,1644846181.53125,P08,D09,0,0,0
1785,-41.0,1.0,49.0,1644846181.5625,P08,D09,0,0,0
1786,-41.0,1.0,49.0,1644846181.59375,P08,D09,0,0,0
1787,-41.0,1.0,49.0,1644846181.625,P08,D09,0,0,0
1788,-41.0,1.0,49.0,1644846181.65625,P08,D09,0,0,0
1789,-40.0,1.0,49.0,1644846181.6875,P08,D09,0,0,0
1790,-41.0,1.0,49.0,1644846181.71875,P08,D09,0,0,0
1791,-41.0,1.0,49.0,1644846181.75,P08,D09,0,0,0
1792,-41.0,1.0,49.0,1644846181.78125,P08,D09,0,0,0
1793,-41.0,1.0,49.0,1644846181.8125,P08,D09,0,0,0
1794,-41.0,1.0,49.0,1644846181.84375,P08,D09,0,0,0
1795,-40.0,1.0,49.0,1644846181.875,P08,D09,0,0,0
1796,-41.0,1.0,49.0,1644846181.90625,P08,D09,0,0,0
1797,-41.0,1.0,48.0,1644846181.9375,P08,D09,0,0,0
1798,-41.0,1.0,49.0,1644846181.96875,P08,D09,0,0,0
1799,-41.0,1.0,49.0,1644846182.0,P08,D09,0,0,0
1800,-40.0,1.0,49.0,1644846182.03125,P08,D09,0,0,0
1801,-41.0,1.0,49.0,1644846182.0625,P08,D09,0,0,0
1802,-41.0,1.0,49.0,1644846182.09375,P08,D09,0,0,0
1803,-41.0,1.0,49.0,1644846182.125,P08,D09,0,0,0
1804,-41.0,1.0,49.0,1644846182.15625,P08,D09,0,0,0
1805,-41.0,1.0,49.0,1644846182.1875,P08,D09,0,0,0
1806,-41.0,1.0,49.0,1644846182.21875,P08,D09,0,0,0
1807,-41.0,1.0,48.0,1644846182.25,P08,D09,0,0,0
1808,-41.0,1.0,49.0,1644846182.28125,P08,D09,0,0,0
1809,-41.0,1.0,49.0,1644846182.3125,P08,D09,0,0,0
1810,-40.0,1.0,49.0,1644846182.34375,P08,D09,0,0,0
1811,-41.0,1.0,49.0,1644846182.375,P08,D09,0,0,0
1812,-41.0,1.0,49.0,1644846182.40625,P08,D09,0,0,0
1813,-41.0,1.0,49.0,1644846182.4375,P08,D09,0,0,0
1814,-41.0,1.0,49.0,1644846182.46875,P08,D09,0,0,0
1815,-40.0,1.0,49.0,1644846182.5,P08,D09,0,0,0
1816,-40.0,1.0,49.0,1644846182.53125,P08,D09,0,0,0
1817,-41.0,1.0,49.0,1644846182.5625,P08,D09,0,0,0
1818,-41.0,1.0,48.0,1644846182.59375,P08,D09,0,0,0
1819,-41.0,1.0,49.0,1644846182.625,P08,D09,0,0,0
1820,-41.0,1.0,49.0,1644846182.65625,P08,D09,0,0,0
1821,-40.0,1.0,49.0,1644846182.6875,P08,D09,0,0,0
1822,-41.0,1.0,49.0,1644846182.71875,P08,D09,0,0,0
1823,-41.0,1.0,49.0,1644846182.75,P08,D09,0,0,0
1824,-40.0,1.0,49.0,1644846182.78125,P08,D09,0,0,0
1825,-41.0,1.0,49.0,1644846182.8125,P08,D09,0,0,0
1826,-40.0,1.0,49.0,1644846182.84375,P08,D09,0,0,0
1827,-40.0,1.0,49.0,1644846182.875,P08,D09,0,0,0
1828,-41.0,1.0,49.0,1644846182.90625,P08,D09,0,0,0
1829,-40.0,1.0,49.0,1644846182.9375,P08,D09,0,0,0
1830,-41.0,1.0,49.0,1644846182.96875,P08,D09,0,0,0
1831,-40.0,1.0,49.0,1644846183.0,P08,D09,0,0,0
1832,-40.0,1.0,49.0,1644846183.03125,P08,D09,0,0,0
1833,-41.0,1.0,49.0,1644846183.0625,P08,D09,0,0,0
1834,-40.0,1.0,49.0,1644846183.09375,P08,D09,0,0,0
1835,-40.0,1.0,49.0,1644846183.125,P08,D09,0,0,0
1836,-40.0,1.0,49.0,1644846183.15625,P08,D09,0,0,0
1837,-40.0,1.0,49.0,1644846183.1875,P08,D09,0,0,0
1838,-41.0,1.0,49.0,1644846183.21875,P08,D09,0,0,0
1839,-40.0,1.0,49.0,1644846183.25,P08,D09,0,0,0
1840,-41.0,1.0,49.0,1644846183.28125,P08,D09,0,0,0
1841,-40.0,1.0,49.0,1644846183.3125,P08,D09,0,0,0
1842,-41.0,1.0,49.0,1644846183.34375,P08,D09,0,0,0
1843,-41.0,1.0,49.0,1644846183.375,P08,D09,0,0,0
1844,-40.0,1.0,49.0,1644846183.40625,P08,D09,0,0,0
1845,-40.0,1.0,49.0,1644846183.4375,P08,D09,0,0,0
1846,-40.0,1.0,49.0,1644846183.46875,P08,D09,0,0,0
1847,-40.0,1.0,49.0,1644846183.5,P08,D09,0,0,0
1848,-40.0,1.0,49.0,1644846183.53125,P08,D09,0,0,0
1849,-40.0,1.0,49.0,1644846183.5625,P08,D09,0,0,0
1850,-40.0,1.0,49.0,1644846183.59375,P08,D09,0,0,0
1851,-40.0,1.0,49.0,1644846183.625,P08,D09,0,0,0
1852,-41.0,1.0,49.0,1644846183.65625,P08,D09,0,0,0
1853,-40.0,1.0,49.0,1644846183.6875,P08,D09,0,0,0
1854,-40.0,1.0,49.0,1644846183.71875,P08,D09,0,0,0
1855,-40.0,1.0,49.0,1644846183.75,P08,D09,0,0,0
1856,-41.0,1.0,49.0,1644846183.78125,P08,D09,0,0,0
1857,-41.0,1.0,49.0,1644846183.8125,P08,D09,0,0,0
1858,-41.0,1.0,49.0,1644846183.84375,P08,D09,0,0,0
1859,-40.0,1.0,49.0,1644846183.875,P08,D09,0,0,0
1860,-40.0,1.0,49.0,1644846183.90625,P08,D09,0,0,0
1861,-40.0,1.0,49.0,1644846183.9375,P08,D09,0,0,0
1862,-41.0,1.0,49.0,1644846183.96875,P08,D09,0,0,0
1863,-41.0,1.0,49.0,1644846184.0,P08,D09,0,0,0
1864,-41.0,1.0,49.0,1644846184.03125,P08,D09,0,0,0
1865,-41.0,1.0,49.0,1644846184.0625,P08,D09,0,0,0
1866,-40.0,1.0,49.0,1644846184.09375,P08,D09,0,0,0
1867,-40.0,1.0,49.0,1644846184.125,P08,D09,0,0,0
1868,-41.0,1.0,49.0,1644846184.15625,P08,D09,0,0,0
1869,-41.0,1.0,49.0,1644846184.1875,P08,D09,0,0,0
1870,-40.0,1.0,49.0,1644846184.21875,P08,D09,0,0,0
1871,-40.0,1.0,49.0,1644846184.25,P08,D09,0,0,0
1872,-40.0,1.0,49.0,1644846184.28125,P08,D09,0,0,0
1873,-40.0,1.0,49.0,1644846184.3125,P08,D09,0,0,0
1874,-41.0,1.0,49.0,1644846184.34375,P08,D09,0,0,0
1875,-41.0,1.0,48.0,1644846184.375,P08,D09,0,0,0
1876,-41.0,1.0,48.0,1644846184.40625,P08,D09,0,0,0
1877,-40.0,1.0,49.0,1644846184.4375,P08,D09,0,0,0
1878,-40.0,1.0,49.0,1644846184.46875,P08,D09,0,0,0
1879,-41.0,1.0,48.0,1644846184.5,P08,D09,0,0,0
1880,-42.0,1.0,48.0,1644846184.53125,P08,D09,0,0,0
1881,-43.0,1.0,47.0,1644846184.5625,P08,D09,0,0,0
1882,-42.0,1.0,48.0,1644846184.59375,P08,D09,0,0,0
1883,-41.0,1.0,48.0,1644846184.625,P08,D09,0,0,0
1884,-41.0,0.0,48.0,1644846184.65625,P08,D09,0,0,0
1885,-41.0,1.0,48.0,1644846184.6875,P08,D09,0,0,0
1886,-42.0,1.0,48.0,1644846184.71875,P08,D09,0,0,0
1887,-41.0,1.0,48.0,1644846184.75,P08,D09,0,0,0
1888,-41.0,1.0,48.0,1644846184.78125,P08,D09,0,0,0
1889,-41.0,1.0,49.0,1644846184.8125,P08,D09,0,0,0
1890,-41.0,2.0,48.0,1644846184.84375,P08,D09,0,0,0
1891,-41.0,1.0,48.0,1644846184.875,P08,D09,0,0,0
1892,-41.0,1.0,48.0,1644846184.90625,P08,D09,0,0,0
1893,-41.0,1.0,48.0,1644846184.9375,P08,D09,0,0,0
1894,-41.0,1.0,49.0,1644846184.96875,P08,D09,0,0,0
1895,-42.0,1.0,48.0,1644846185.0,P08,D09,0,0,0
1896,-43.0,0.0,47.0,1644846185.03125,P08,D09,0,0,0
1897,-42.0,0.0,48.0,1644846185.0625,P08,D09,0,0,0
1898,-41.0,0.0,48.0,1644846185.09375,P08,D09,0,0,0
1899,-42.0,1.0,48.0,1644846185.125,P08,D09,0,0,0
1900,-41.0,1.0,48.0,1644846185.15625,P08,D09,0,0,0
1901,-42.0,1.0,48.0,1644846185.1875,P08,D09,0,0,0
1902,-43.0,0.0,47.0,1644846185.21875,P08,D09,0,0,0
1903,-42.0,1.0,48.0,1644846185.25,P08,D09,0,0,0
1904,-41.0,1.0,48.0,1644846185.28125,P08,D09,0,0,0
1905,-41.0,1.0,48.0,1644846185.3125,P08,D09,0,0,0
1906,-41.0,1.0,48.0,1644846185.34375,P08,D09,0,0,0
1907,-41.0,1.0,49.0,1644846185.375,P08,D09,0,0,0
1908,-41.0,1.0,48.0,1644846185.40625,P08,D09,0,0,0
1909,-41.0,1.0,49.0,1644846185.4375,P08,D09,0,0,0
1910,-41.0,1.0,49.0,1644846185.46875,P08,D09,0,0,0
1911,-40.0,1.0,49.0,1644846185.5,P08,D09,0,0,0
1912,-40.0,1.0,49.0,1644846185.53125,P08,D09,0,0,0
1913,-40.0,1.0,49.0,1644846185.5625,P08,D09,0,0,0
1914,-41.0,1.0,48.0,1644846185.59375,P08,D09,0,0,0
1915,-41.0,1.0,49.0,1644846185.625,P08,D09,0,0,0
1916,-42.0,0.0,48.0,1644846185.65625,P08,D09,0,0,0
1917,-42.0,0.0,48.0,1644846185.6875,P08,D09,0,0,0
1918,-42.0,0.0,48.0,1644846185.71875,P08,D09,0,0,0
1919,-41.0,1.0,48.0,1644846185.75,P08,D09,0,0,0
1920,-42.0,1.0,48.0,1644846185.78125,P08,D09,0,0,0
1921,-41.0,4.0,47.0,1644846185.8125,P08,D09,0,0,0
1922,-43.0,1.0,48.0,1644846185.84375,P08,D09,0,0,0
1923,-40.0,0.0,49.0,1644846185.875,P08,D09,0,0,0
1924,-39.0,1.0,50.0,1644846185.90625,P08,D09,0,0,0
1925,-39.0,1.0,51.0,1644846185.9375,P08,D09,0,0,0
1926,-39.0,1.0,50.0,1644846185.96875,P08,D09,0,0,0
1927,-40.0,1.0,49.0,1644846186.0,P08,D09,0,0,0
1928,-41.0,1.0,49.0,1644846186.03125,P08,D09,0,0,0
1929,-42.0,0.0,48.0,1644846186.0625,P08,D09,0,0,0
1930,-42.0,1.0,48.0,1644846186.09375,P08,D09,0,0,0
1931,-41.0,1.0,48.0,1644846186.125,P08,D09,0,0,0
1932,-41.0,1.0,49.0,1644846186.15625,P08,D09,0,0,0
1933,-40.0,1.0,49.0,1644846186.1875,P08,D09,0,0,0
1934,-40.0,1.0,49.0,1644846186.21875,P08,D09,0,0,0
1935,-41.0,2.0,49.0,1644846186.25,P08,D09,0,0,0
1936,-42.0,1.0,48.0,1644846186.28125,P08,D09,0,0,0
1937,-42.0,1.0,48.0,1644846186.3125,P08,D09,0,0,0
1938,-42.0,1.0,48.0,1644846186.34375,P08,D09,0,0,0
1939,-41.0,1.0,48.0,1644846186.375,P08,D09,0,0,0
1940,-41.0,2.0,49.0,1644846186.40625,P08,D09,0,0,0
1941,-40.0,2.0,49.0,1644846186.4375,P08,D09,0,0,0
1942,-40.0,1.0,49.0,1644846186.46875,P08,D09,0,0,0
1943,-41.0,0.0,48.0,1644846186.5,P08,D09,0,0,0
1944,-42.0,1.0,48.0,1644846186.53125,P08,D09,0,0,0
1945,-41.0,1.0,48.0,1644846186.5625,P08,D09,0,0,0
1946,-41.0,2.0,49.0,1644846186.59375,P08,D09,0,0,0
1947,-40.0,1.0,49.0,1644846186.625,P08,D09,0,0,0
1948,-41.0,1.0,49.0,1644846186.65625,P08,D09,0,0,0
1949,-41.0,1.0,49.0,1644846186.6875,P08,D09,0,0,0
1950,-41.0,2.0,48.0,1644846186.71875,P08,D09,0,0,0
1951,-41.0,1.0,49.0,1644846186.75,P08,D09,0,0,0
1952,-41.0,1.0,49.0,1644846186.78125,P08,D09,0,0,0
1953,-41.0,1.0,48.0,1644846186.8125,P08,D09,0,0,0
1954,-41.0,1.0,48.0,1644846186.84375,P08,D09,0,0,0
1955,-41.0,1.0,48.0,1644846186.875,P08,D09,0,0,0
1956,-41.0,1.0,49.0,1644846186.90625,P08,D09,0,0,0
1957,-41.0,1.0,48.0,1644846186.9375,P08,D09,0,0,0
1958,-41.0,1.0,48.0,1644846186.96875,P08,D09,0,0,0
1959,-41.0,1.0,48.0,1644846187.0,P08,D09,0,0,0
1960,-41.0,1.0,48.0,1644846187.03125,P08,D09,0,0,0
1961,-41.0,1.0,49.0,1644846187.0625,P08,D09,0,0,0
1962,-41.0,1.0,48.0,1644846187.09375,P08,D09,0,0,0
1963,-41.0,1.0,48.0,1644846187.125,P08,D09,0,0,0
1964,-41.0,1.0,48.0,1644846187.15625,P08,D09,0,0,0
1965,-41.0,1.0,48.0,1644846187.1875,P08,D09,0,0,0
1966,-41.0,1.0,48.0,1644846187.21875,P08,D09,0,0,0
1967,-41.0,1.0,48.0,1644846187.25,P08,D09,0,0,0
1968,-42.0,1.0,48.0,1644846187.28125,P08,D09,0,0,0
1969,-41.0,1.0,48.0,1644846187.3125,P08,D09,0,0,0
1970,-41.0,1.0,48.0,1644846187.34375,P08,D09,0,0,0
1971,-41.0,1.0,49.0,1644846187.375,P08,D09,0,0,0
1972,-41.0,1.0,48.0,1644846187.40625,P08,D09,0,0,0
1973,-41.0,1.0,48.0,1644846187.4375,P08,D09,0,0,0
1974,-41.0,1.0,48.0,1644846187.46875,P08,D09,0,0,0
1975,-41.0,1.0,48.0,1644846187.5,P08,D09,0,0,0
1976,-41.0,1.0,48.0,1644846187.53125,P08,D09,0,0,0
1977,-41.0,1.0,48.0,1644846187.5625,P08,D09,0,0,0
1978,-41.0,1.0,48.0,1644846187.59375,P08,D09,0,0,0
1979,-41.0,1.0,49.0,1644846187.625,P08,D09,0,0,0
1980,-41.0,1.0,49.0,1644846187.65625,P08,D09,0,0,0
1981,-41.0,1.0,49.0,1644846187.6875,P08,D09,0,0,0
1982,-41.0,1.0,48.0,1644846187.71875,P08,D09,0,0,0
1983,-41.0,1.0,48.0,1644846187.75,P08,D09,0,0,0
1984,-41.0,1.0,48.0,1644846187.78125,P08,D09,0,0,0
1985,-41.0,1.0,48.0,1644846187.8125,P08,D09,0,0,0
1986,-41.0,1.0,49.0,1644846187.84375,P08,D09,0,0,0
1987,-41.0,1.0,48.0,1644846187.875,P08,D09,0,0,0
1988,-41.0,1.0,48.0,1644846187.90625,P08,D09,0,0,0
1989,-41.0,1.0,49.0,1644846187.9375,P08,D09,0,0,0
1990,-41.0,1.0,48.0,1644846187.96875,P08,D09,0,0,0
1991,-41.0,1.0,48.0,1644846188.0,P08,D09,0,0,0
1992,-41.0,1.0,48.0,1644846188.03125,P08,D09,0,0,0
1993,-41.0,1.0,48.0,1644846188.0625,P08,D09,0,0,0
1994,-42.0,1.0,48.0,1644846188.09375,P08,D09,0,0,0
1995,-41.0,1.0,48.0,1644846188.125,P08,D09,0,0,0
1996,-41.0,1.0,49.0,1644846188.15625,P08,D09,0,0,0
1997,-41.0,1.0,49.0,1644846188.1875,P08,D09,0,0,0
1998,-41.0,1.0,48.0,1644846188.21875,P08,D09,0,0,0
1999,-41.0,1.0,49.0,1644846188.25,P08,D09,0,0,0
2000,-41.0,1.0,49.0,1644846188.28125,P08,D09,0,0,0
2001,-41.0,1.0,49.0,1644846188.3125,P08,D09,0,0,0
2002,-41.0,1.0,49.0,1644846188.34375,P08,D09,0,0,0
2003,-41.0,1.0,49.0,1644846188.375,P08,D09,0,0,0
2004,-41.0,1.0,49.0,1644846188.40625,P08,D09,0,0,0
2005,-41.0,1.0,49.0,1644846188.4375,P08,D09,0,0,0
2006,-41.0,1.0,49.0,1644846188.46875,P08,D09,0,0,0
2007,-41.0,1.0,49.0,1644846188.5,P08,D09,0,0,0
2008,-41.0,1.0,49.0,1644846188.53125,P08,D09,0,0,0
2009,-41.0,1.0,49.0,1644846188.5625,P08,D09,0,0,0
2010,-41.0,1.0,49.0,1644846188.59375,P08,D09,0,0,0
2011,-41.0,1.0,49.0,1644846188.625,P08,D09,0,0,0
2012,-41.0,1.0,49.0,1644846188.65625,P08,D09,0,0,0
2013,-41.0,1.0,49.0,1644846188.6875,P08,D09,0,0,0
2014,-41.0,1.0,48.0,1644846188.71875,P08,D09,0,0,0
2015,-41.0,1.0,49.0,1644846188.75,P08,D09,0,0,0
2016,-41.0,1.0,49.0,1644846188.78125,P08,D09,0,0,0
2017,-41.0,1.0,49.0,1644846188.8125,P08,D09,0,0,0
2018,-41.0,1.0,48.0,1644846188.84375,P08,D09,0,0,0
2019,-41.0,1.0,48.0,1644846188.875,P08,D09,0,0,0
2020,-41.0,1.0,49.0,1644846188.90625,P08,D09,0,0,0
2021,-41.0,1.0,49.0,1644846188.9375,P08,D09,0,0,0
2022,-41.0,1.0,49.0,1644846188.96875,P08,D09,0,0,0
2023,-41.0,1.0,49.0,1644846189.0,P08,D09,0,0,0
2024,-41.0,1.0,49.0,1644846189.03125,P08,D09,0,0,0
2025,-41.0,1.0,48.0,1644846189.0625,P08,D09,0,0,0
2026,-41.0,1.0,49.0,1644846189.09375,P08,D09,0,0,0
2027,-41.0,1.0,49.0,1644846189.125,P08,D09,0,0,0
2028,-41.0,1.0,49.0,1644846189.15625,P08,D09,0,0,0
2029,-41.0,1.0,49.0,1644846189.1875,P08,D09,0,0,0
2030,-41.0,1.0,49.0,1644846189.21875,P08,D09,0,0,0
2031,-41.0,1.0,49.0,1644846189.25,P08,D09,0,0,0
2032,-41.0,1.0,49.0,1644846189.28125,P08,D09,0,0,0
2033,-41.0,1.0,49.0,1644846189.3125,P08,D09,0,0,0
2034,-41.0,1.0,49.0,1644846189.34375,P08,D09,0,0,0
2035,-41.0,1.0,49.0,1644846189.375,P08,D09,0,0,0
2036,-41.0,1.0,49.0,1644846189.40625,P08,D09,0,0,0
2037,-40.0,1.0,49.0,1644846189.4375,P08,D09,0,0,0
2038,-41.0,2.0,49.0,1644846189.46875,P08,D09,0,0,0
2039,-41.0,1.0,49.0,1644846189.5,P08,D09,0,0,0
2040,-41.0,1.0,48.0,1644846189.53125,P08,D09,0,0,0
2041,-41.0,1.0,49.0,1644846189.5625,P08,D09,0,0,0
2042,-41.0,1.0,49.0,1644846189.59375,P08,D09,0,0,0
2043,-41.0,1.0,48.0,1644846189.625,P08,D09,0,0,0
2044,-41.0,1.0,49.0,1644846189.65625,P08,D09,0,0,0
2045,-41.0,1.0,48.0,1644846189.6875,P08,D09,0,0,0
2046,-41.0,1.0,49.0,1644846189.71875,P08,D09,0,0,0
2047,-41.0,1.0,49.0,1644846189.75,P08,D09,0,0,0
2048,-41.0,1.0,49.0,1644846189.78125,P08,D09,0,0,0
2049,-41.0,1.0,49.0,1644846189.8125,P08,D09,0,0,0
2050,-41.0,1.0,49.0,1644846189.84375,P08,D09,0,0,0
2051,-41.0,1.0,49.0,1644846189.875,P08,D09,0,0,0
2052,-41.0,1.0,49.0,1644846189.90625,P08,D09,0,0,0
2053,-41.0,1.0,49.0,1644846189.9375,P08,D09,0,0,0
2054,-41.0,1.0,49.0,1644846189.96875,P08,D09,0,0,0
2055,-40.0,1.0,49.0,1644846190.0,P08,D09,0,0,0
2056,-41.0,1.0,49.0,1644846190.03125,P08,D09,0,0,0
2057,-41.0,1.0,48.0,1644846190.0625,P08,D09,0,0,0
2058,-41.0,1.0,49.0,1644846190.09375,P08,D09,0,0,0
2059,-41.0,1.0,49.0,1644846190.125,P08,D09,0,0,0
2060,-41.0,1.0,49.0,1644846190.15625,P08,D09,0,0,0
2061,-41.0,1.0,49.0,1644846190.1875,P08,D09,0,0,0
2062,-41.0,1.0,49.0,1644846190.21875,P08,D09,0,0,0
2063,-41.0,1.0,49.0,1644846190.25,P08,D09,0,0,0
2064,-41.0,1.0,49.0,1644846190.28125,P08,D09,0,0,0
2065,-41.0,1.0,49.0,1644846190.3125,P08,D09,0,0,0
2066,-41.0,1.0,49.0,1644846190.34375,P08,D09,0,0,0
2067,-41.0,1.0,49.0,1644846190.375,P08,D09,0,0,0
2068,-41.0,1.0,49.0,1644846190.40625,P08,D09,0,0,0
2069,-41.0,1.0,49.0,1644846190.4375,P08,D09,0,0,0
2070,-40.0,1.0,49.0,1644846190.46875,P08,D09,0,0,0
2071,-41.0,1.0,49.0,1644846190.5,P08,D09,0,0,0
2072,-41.0,1.0,48.0,1644846190.53125,P08,D09,0,0,0
2073,-41.0,1.0,48.0,1644846190.5625,P08,D09,0,0,0
2074,-41.0,1.0,49.0,1644846190.59375,P08,D09,0,0,0
2075,-41.0,1.0,49.0,1644846190.625,P08,D09,0,0,0
2076,-41.0,1.0,48.0,1644846190.65625,P08,D09,0,0,0
2077,-41.0,1.0,48.0,1644846190.6875,P08,D09,0,0,0
2078,-41.0,1.0,48.0,1644846190.71875,P08,D09,0,0,0
2079,-41.0,1.0,49.0,1644846190.75,P08,D09,0,0,0
2080,-41.0,1.0,48.0,1644846190.78125,P08,D09,0,0,0
2081,-41.0,1.0,49.0,1644846190.8125,P08,D09,0,0,0
2082,-41.0,1.0,49.0,1644846190.84375,P08,D09,0,0,0
2083,-41.0,1.0,49.0,1644846190.875,P08,D09,0,0,0
2084,-41.0,1.0,49.0,1644846190.90625,P08,D09,0,0,0
2085,-41.0,1.0,48.0,1644846190.9375,P08,D09,0,0,0
2086,-41.0,1.0,48.0,1644846190.96875,P08,D09,0,0,0
2087,-41.0,1.0,48.0,1644846191.0,P08,D09,0,0,0
2088,-41.0,1.0,48.0,1644846191.03125,P08,D09,0,0,0
2089,-41.0,1.0,48.0,1644846191.0625,P08,D09,0,0,0
2090,-41.0,1.0,49.0,1644846191.09375,P08,D09,0,0,0
2091,-41.0,1.0,49.0,1644846191.125,P08,D09,0,0,0
2092,-41.0,1.0,48.0,1644846191.15625,P08,D09,0,0,0
2093,-41.0,1.0,49.0,1644846191.1875,P08,D09,0,0,0
2094,-41.0,1.0,48.0,1644846191.21875,P08,D09,0,0,0
2095,-41.0,1.0,48.0,1644846191.25,P08,D09,0,0,0
2096,-41.0,1.0,48.0,1644846191.28125,P08,D09,0,0,0
2097,-41.0,1.0,48.0,1644846191.3125,P08,D09,0,0,0
2098,-41.0,1.0,48.0,1644846191.34375,P08,D09,0,0,0
2099,-41.0,1.0,49.0,1644846191.375,P08,D09,0,0,0
2100,-41.0,1.0,48.0,1644846191.40625,P08,D09,0,0,0
2101,-42.0,1.0,48.0,1644846191.4375,P08,D09,0,0,0
2102,-41.0,1.0,49.0,1644846191.46875,P08,D09,0,0,0
2103,-41.0,1.0,49.0,1644846191.5,P08,D09,0,0,0
2104,-41.0,1.0,49.0,1644846191.53125,P08,D09,0,0,0
2105,-41.0,1.0,49.0,1644846191.5625,P08,D09,0,0,0
2106,-42.0,1.0,48.0,1644846191.59375,P08,D09,0,0,0
2107,-41.0,1.0,48.0,1644846191.625,P08,D09,0,0,0
2108,-41.0,1.0,48.0,1644846191.65625,P08,D09,0,0,0
2109,-41.0,1.0,49.0,1644846191.6875,P08,D09,0,0,0
2110,-41.0,1.0,49.0,1644846191.71875,P08,D09,0,0,0
2111,-41.0,1.0,49.0,1644846191.75,P08,D09,0,0,0
2112,-41.0,1.0,48.0,1644846191.78125,P08,D09,0,0,0
2113,-41.0,1.0,48.0,1644846191.8125,P08,D09,0,0,0
2114,-41.0,1.0,48.0,1644846191.84375,P08,D09,0,0,0
2115,-41.0,1.0,48.0,1644846191.875,P08,D09,0,0,0
2116,-41.0,1.0,48.0,1644846191.90625,P08,D09,0,0,0
2117,-41.0,1.0,48.0,1644846191.9375,P08,D09,0,0,0
2118,-41.0,1.0,49.0,1644846191.96875,P08,D09,0,0,0
2119,-41.0,1.0,48.0,1644846192.0,P08,D09,0,0,0
2120,-41.0,1.0,48.0,1644846192.03125,P08,D09,0,0,0
2121,-41.0,1.0,48.0,1644846192.0625,P08,D09,0,0,0
2122,-41.0,1.0,48.0,1644846192.09375,P08,D09,0,0,0
2123,-41.0,1.0,48.0,1644846192.125,P08,D09,0,0,0
2124,-41.0,1.0,48.0,1644846192.15625,P08,D09,0,0,0
2125,-41.0,1.0,48.0,1644846192.1875,P08,D09,0,0,0
2126,-41.0,1.0,48.0,1644846192.21875,P08,D09,0,0,0
2127,-41.0,1.0,48.0,1644846192.25,P08,D09,0,0,0
2128,-41.0,1.0,48.0,1644846192.28125,P08,D09,0,0,0
2129,-41.0,1.0,48.0,1644846192.3125,P08,D09,0,0,0
2130,-41.0,1.0,48.0,1644846192.34375,P08,D09,0,0,0
2131,-41.0,1.0,49.0,1644846192.375,P08,D09,0,0,0
2132,-41.0,1.0,49.0,1644846192.40625,P08,D09,0,0,0
2133,-41.0,1.0,48.0,1644846192.4375,P08,D09,0,0,0
2134,-41.0,1.0,48.0,1644846192.46875,P08,D09,0,0,0
2135,-41.0,1.0,48.0,1644846192.5,P08,D09,0,0,0
2136,-41.0,1.0,48.0,1644846192.53125,P08,D09,0,0,0
2137,-41.0,1.0,48.0,1644846192.5625,P08,D09,0,0,0
2138,-41.0,1.0,48.0,1644846192.59375,P08,D09,0,0,0
2139,-41.0,1.0,49.0,1644846192.625,P08,D09,0,0,0
2140,-41.0,1.0,49.0,1644846192.65625,P08,D09,0,0,0
2141,-41.0,1.0,48.0,1644846192.6875,P08,D09,0,0,0
2142,-41.0,1.0,49.0,1644846192.71875,P08,D09,0,0,0
2143,-41.0,1.0,48.0,1644846192.75,P08,D09,0,0,0
2144,-41.0,1.0,49.0,1644846192.78125,P08,D09,0,0,0
2145,-41.0,1.0,48.0,1644846192.8125,P08,D09,0,0,0
2146,-41.0,1.0,49.0,1644846192.84375,P08,D09,0,0,0
2147,-41.0,1.0,48.0,1644846192.875,P08,D09,0,0,0
2148,-41.0,1.0,49.0,1644846192.90625,P08,D09,0,0,0
2149,-41.0,1.0,48.0,1644846192.9375,P08,D09,0,0,0
2150,-41.0,1.0,48.0,1644846192.96875,P08,D09,0,0,0
2151,-41.0,1.0,48.0,1644846193.0,P08,D09,0,0,0
2152,-41.0,1.0,49.0,1644846193.03125,P08,D09,0,0,0
2153,-41.0,1.0,49.0,1644846193.0625,P08,D09,0,0,0
2154,-41.0,1.0,48.0,1644846193.09375,P08,D09,0,0,0
2155,-41.0,1.0,49.0,1644846193.125,P08,D09,0,0,0
2156,-41.0,1.0,48.0,1644846193.15625,P08,D09,0,0,0
2157,-41.0,1.0,48.0,1644846193.1875,P08,D09,0,0,0
2158,-41.0,1.0,49.0,1644846193.21875,P08,D09,0,0,0
2159,-41.0,1.0,49.0,1644846193.25,P08,D09,0,0,0
2160,-41.0,1.0,49.0,1644846193.28125,P08,D09,0,0,0
2161,-41.0,1.0,49.0,1644846193.3125,P08,D09,0,0,0
2162,-41.0,1.0,48.0,1644846193.34375,P08,D09,0,0,0
2163,-41.0,1.0,49.0,1644846193.375,P08,D09,0,0,0
2164,-41.0,1.0,49.0,1644846193.40625,P08,D09,0,0,0
2165,-41.0,1.0,48.0,1644846193.4375,P08,D09,0,0,0
2166,-41.0,1.0,49.0,1644846193.46875,P08,D09,0,0,0
2167,-41.0,1.0,48.0,1644846193.5,P08,D09,0,0,0
2168,-41.0,1.0,48.0,1644846193.53125,P08,D09,0,0,0
2169,-41.0,1.0,49.0,1644846193.5625,P08,D09,0,0,0
2170,-41.0,1.0,49.0,1644846193.59375,P08,D09,0,0,0
2171,-41.0,1.0,49.0,1644846193.625,P08,D09,0,0,0
2172,-41.0,1.0,49.0,1644846193.65625,P08,D09,0,0,0
2173,-41.0,1.0,49.0,1644846193.6875,P08,D09,0,0,0
2174,-41.0,1.0,49.0,1644846193.71875,P08,D09,0,0,0
2175,-41.0,1.0,48.0,1644846193.75,P08,D09,0,0,0
2176,-41.0,1.0,48.0,1644846193.78125,P08,D09,0,0,0
2177,-41.0,1.0,49.0,1644846193.8125,P08,D09,0,0,0
2178,-41.0,1.0,49.0,1644846193.84375,P08,D09,0,0,0
2179,-41.0,1.0,49.0,1644846193.875,P08,D09,0,0,0
2180,-41.0,1.0,49.0,1644846193.90625,P08,D09,0,0,0
2181,-41.0,1.0,49.0,1644846193.9375,P08,D09,0,0,0
2182,-41.0,1.0,48.0,1644846193.96875,P08,D09,0,0,0
2183,-41.0,1.0,48.0,1644846194.0,P08,D09,0,0,0
2184,-41.0,1.0,49.0,1644846194.03125,P08,D09,0,0,0
2185,-41.0,1.0,48.0,1644846194.0625,P08,D09,0,0,0
2186,-41.0,1.0,48.0,1644846194.09375,P08,D09,0,0,0
2187,-41.0,1.0,49.0,1644846194.125,P08,D09,0,0,0
2188,-41.0,1.0,48.0,1644846194.15625,P08,D09,0,0,0
2189,-41.0,1.0,48.0,1644846194.1875,P08,D09,0,0,0
2190,-41.0,1.0,48.0,1644846194.21875,P08,D09,0,0,0
2191,-41.0,1.0,49.0,1644846194.25,P08,D09,0,0,0
2192,-41.0,1.0,49.0,1644846194.28125,P08,D09,0,0,0
2193,-41.0,1.0,49.0,1644846194.3125,P08,D09,0,0,0
2194,-41.0,1.0,48.0,1644846194.34375,P08,D09,0,0,0
2195,-41.0,1.0,48.0,1644846194.375,P08,D09,0,0,0
2196,-41.0,1.0,49.0,1644846194.40625,P08,D09,0,0,0
2197,-41.0,1.0,49.0,1644846194.4375,P08,D09,0,0,0
2198,-41.0,1.0,49.0,1644846194.46875,P08,D09,0,0,0
2199,-41.0,1.0,48.0,1644846194.5,P08,D09,0,0,0
2200,-41.0,1.0,48.0,1644846194.53125,P08,D09,0,0,0
2201,-41.0,1.0,48.0,1644846194.5625,P08,D09,0,0,0
2202,-41.0,1.0,48.0,1644846194.59375,P08,D09,0,0,0
2203,-41.0,1.0,49.0,1644846194.625,P08,D09,0,0,0
2204,-41.0,1.0,49.0,1644846194.65625,P08,D09,0,0,0
2205,-41.0,1.0,48.0,1644846194.6875,P08,D09,0,0,0
2206,-41.0,1.0,48.0,1644846194.71875,P08,D09,0,0,0
2207,-41.0,1.0,49.0,1644846194.75,P08,D09,0,0,0
2208,-41.0,1.0,49.0,1644846194.78125,P08,D09,0,0,0
2209,-41.0,1.0,49.0,1644846194.8125,P08,D09,0,0,0
2210,-41.0,1.0,48.0,1644846194.84375,P08,D09,0,0,0
2211,-41.0,1.0,49.0,1644846194.875,P08,D09,0,0,0
2212,-41.0,1.0,49.0,1644846194.90625,P08,D09,0,0,0
2213,-41.0,1.0,49.0,1644846194.9375,P08,D09,0,0,0
2214,-41.0,1.0,48.0,1644846194.96875,P08,D09,0,0,0
2215,-41.0,1.0,49.0,1644846195.0,P08,D09,0,0,0
2216,-41.0,1.0,49.0,1644846195.03125,P08,D09,0,0,0
2217,-41.0,1.0,49.0,1644846195.0625,P08,D09,0,0,0
2218,-41.0,1.0,49.0,1644846195.09375,P08,D09,0,0,0
2219,-41.0,1.0,49.0,1644846195.125,P08,D09,0,0,0
2220,-41.0,1.0,49.0,1644846195.15625,P08,D09,0,0,0
2221,-41.0,1.0,48.0,1644846195.1875,P08,D09,0,0,0
2222,-41.0,1.0,48.0,1644846195.21875,P08,D09,0,0,0
2223,-41.0,1.0,49.0,1644846195.25,P08,D09,0,0,0
2224,-41.0,1.0,49.0,1644846195.28125,P08,D09,0,0,0
2225,-41.0,1.0,49.0,1644846195.3125,P08,D09,0,0,0
2226,-41.0,1.0,48.0,1644846195.34375,P08,D09,0,0,0
2227,-41.0,1.0,49.0,1644846195.375,P08,D09,0,0,0
2228,-41.0,1.0,49.0,1644846195.40625,P08,D09,0,0,0
2229,-41.0,1.0,49.0,1644846195.4375,P08,D09,0,0,0
2230,-41.0,1.0,49.0,1644846195.46875,P08,D09,0,0,0
2231,-41.0,1.0,49.0,1644846195.5,P08,D09,0,0,0
2232,-41.0,1.0,49.0,1644846195.53125,P08,D09,0,0,0
2233,-41.0,1.0,49.0,1644846195.5625,P08,D09,0,0,0
2234,-41.0,1.0,49.0,1644846195.59375,P08,D09,0,0,0
2235,-41.0,1.0,49.0,1644846195.625,P08,D09,0,0,0
2236,-41.0,1.0,48.0,1644846195.65625,P08,D09,0,0,0
2237,-41.0,1.0,48.0,1644846195.6875,P08,D09,0,0,0
2238,-41.0,1.0,49.0,1644846195.71875,P08,D09,0,0,0
2239,-41.0,1.0,49.0,1644846195.75,P08,D09,0,0,0
2240,-41.0,1.0,49.0,1644846195.78125,P08,D09,0,0,0
2241,-41.0,1.0,49.0,1644846195.8125,P08,D09,0,0,0
2242,-41.0,1.0,48.0,1644846195.84375,P08,D09,0,0,0
2243,-41.0,1.0,49.0,1644846195.875,P08,D09,0,0,0
2244,-41.0,1.0,49.0,1644846195.90625,P08,D09,0,0,0
2245,-41.0,1.0,49.0,1644846195.9375,P08,D09,0,0,0
2246,-41.0,1.0,49.0,1644846195.96875,P08,D09,0,0,0
2247,-41.0,1.0,49.0,1644846196.0,P08,D09,0,0,0
2248,-41.0,1.0,48.0,1644846196.03125,P08,D09,0,0,0
2249,-41.0,1.0,48.0,1644846196.0625,P08,D09,0,0,0
2250,-41.0,1.0,48.0,1644846196.09375,P08,D09,0,0,0
2251,-41.0,1.0,49.0,1644846196.125,P08,D09,0,0,0
2252,-41.0,1.0,48.0,1644846196.15625,P08,D09,0,0,0
2253,-41.0,1.0,49.0,1644846196.1875,P08,D09,0,0,0
2254,-41.0,1.0,48.0,1644846196.21875,P08,D09,0,0,0
2255,-40.0,1.0,49.0,1644846196.25,P08,D09,0,0,0
2256,-41.0,1.0,48.0,1644846196.28125,P08,D09,0,0,0
2257,-41.0,1.0,48.0,1644846196.3125,P08,D09,0,0,0
2258,-41.0,1.0,48.0,1644846196.34375,P08,D09,0,0,0
2259,-41.0,1.0,48.0,1644846196.375,P08,D09,0,0,0
2260,-41.0,1.0,48.0,1644846196.40625,P08,D09,0,0,0
2261,-41.0,1.0,49.0,1644846196.4375,P08,D09,0,0,0
2262,-41.0,1.0,48.0,1644846196.46875,P08,D09,0,0,0
2263,-41.0,1.0,48.0,1644846196.5,P08,D09,0,0,0
2264,-41.0,1.0,48.0,1644846196.53125,P08,D09,0,0,0
2265,-41.0,1.0,48.0,1644846196.5625,P08,D09,0,0,0
2266,-41.0,1.0,49.0,1644846196.59375,P08,D09,0,0,0
2267,-41.0,1.0,48.0,1644846196.625,P08,D09,0,0,0
2268,-41.0,1.0,48.0,1644846196.65625,P08,D09,0,0,0
2269,-41.0,1.0,48.0,1644846196.6875,P08,D09,0,0,0
2270,-41.0,1.0,49.0,1644846196.71875,P08,D09,0,0,0
2271,-41.0,1.0,49.0,1644846196.75,P08,D09,0,0,0
2272,-41.0,1.0,49.0,1644846196.78125,P08,D09,0,0,0
2273,-41.0,1.0,49.0,1644846196.8125,P08,D09,0,0,0
2274,-41.0,2.0,48.0,1644846196.84375,P08,D09,0,0,0
2275,-41.0,1.0,48.0,1644846196.875,P08,D09,0,0,0
2276,-41.0,1.0,48.0,1644846196.90625,P08,D09,0,0,0
2277,-41.0,1.0,48.0,1644846196.9375,P08,D09,0,0,0
2278,-41.0,1.0,48.0,1644846196.96875,P08,D09,0,0,0
2279,-41.0,1.0,49.0,1644846197.0,P08,D09,0,0,0
2280,-41.0,1.0,49.0,1644846197.03125,P08,D09,0,0,0
2281,-41.0,1.0,49.0,1644846197.0625,P08,D09,0,0,0
2282,-41.0,1.0,49.0,1644846197.09375,P08,D09,0,0,0
2283,-41.0,1.0,48.0,1644846197.125,P08,D09,0,0,0
2284,-41.0,1.0,48.0,1644846197.15625,P08,D09,0,0,0
2285,-41.0,1.0,49.0,1644846197.1875,P08,D09,0,0,0
2286,-41.0,1.0,49.0,1644846197.21875,P08,D09,0,0,0
2287,-41.0,1.0,49.0,1644846197.25,P08,D09,0,0,0
2288,-41.0,1.0,49.0,1644846197.28125,P08,D09,0,0,0
2289,-41.0,1.0,49.0,1644846197.3125,P08,D09,0,0,0
2290,-41.0,1.0,49.0,1644846197.34375,P08,D09,0,0,0
2291,-41.0,1.0,48.0,1644846197.375,P08,D09,0,0,0
2292,-41.0,1.0,48.0,1644846197.40625,P08,D09,0,0,0
2293,-41.0,2.0,48.0,1644846197.4375,P08,D09,0,0,0
2294,-41.0,1.0,48.0,1644846197.46875,P08,D09,0,0,0
2295,-41.0,1.0,48.0,1644846197.5,P08,D09,0,0,0
2296,-41.0,1.0,48.0,1644846197.53125,P08,D09,0,0,0
2297,-41.0,1.0,49.0,1644846197.5625,P08,D09,0,0,0
2298,-41.0,2.0,49.0,1644846197.59375,P08,D09,0,0,0
2299,-41.0,2.0,48.0,1644846197.625,P08,D09,0,0,0
2300,-41.0,1.0,49.0,1644846197.65625,P08,D09,0,0,0
2301,-41.0,1.0,48.0,1644846197.6875,P08,D09,0,0,0
2302,-41.0,1.0,48.0,1644846197.71875,P08,D09,0,0,0
2303,-41.0,2.0,48.0,1644846197.75,P08,D09,0,0,0
2304,-41.0,1.0,48.0,1644846197.78125,P08,D09,0,0,0
2305,-41.0,2.0,48.0,1644846197.8125,P08,D09,0,0,0
2306,-41.0,1.0,48.0,1644846197.84375,P08,D09,0,0,0
2307,-41.0,1.0,48.0,1644846197.875,P08,D09,0,0,0
2308,-41.0,1.0,48.0,1644846197.90625,P08,D09,0,0,0
2309,-41.0,1.0,49.0,1644846197.9375,P08,D09,0,0,0
2310,-41.0,2.0,49.0,1644846197.96875,P08,D09,0,0,0
2311,-41.0,1.0,49.0,1644846198.0,P08,D09,0,0,0
2312,-41.0,1.0,49.0,1644846198.03125,P08,D09,0,0,0
2313,-41.0,2.0,49.0,1644846198.0625,P08,D09,0,0,0
2314,-41.0,2.0,49.0,1644846198.09375,P08,D09,0,0,0
2315,-41.0,1.0,49.0,1644846198.125,P08,D09,0,0,0
2316,-41.0,2.0,49.0,1644846198.15625,P08,D09,0,0,0
2317,-41.0,2.0,49.0,1644846198.1875,P08,D09,0,0,0
2318,-41.0,1.0,49.0,1644846198.21875,P08,D09,0,0,0
2319,-41.0,2.0,49.0,1644846198.25,P08,D09,0,0,0
2320,-41.0,1.0,49.0,1644846198.28125,P08,D09,0,0,0
2321,-41.0,2.0,49.0,1644846198.3125,P08,D09,0,0,0
2322,-41.0,2.0,49.0,1644846198.34375,P08,D09,0,0,0
2323,-41.0,2.0,49.0,1644846198.375,P08,D09,0,0,0
2324,-41.0,2.0,49.0,1644846198.40625,P08,D09,0,0,0
2325,-41.0,2.0,48.0,1644846198.4375,P08,D09,0,0,0
2326,-41.0,2.0,48.0,1644846198.46875,P08,D09,0,0,0
2327,-41.0,2.0,49.0,1644846198.5,P08,D09,0,0,0
2328,-40.0,2.0,49.0,1644846198.53125,P08,D09,0,0,0
2329,-41.0,2.0,49.0,1644846198.5625,P08,D09,0,0,0
2330,-41.0,2.0,49.0,1644846198.59375,P08,D09,0,0,0
2331,-40.0,2.0,49.0,1644846198.625,P08,D09,0,0,0
2332,-41.0,2.0,49.0,1644846198.65625,P08,D09,0,0,0
2333,-41.0,2.0,49.0,1644846198.6875,P08,D09,0,0,0
2334,-41.0,1.0,49.0,1644846198.71875,P08,D09,0,0,0
2335,-41.0,1.0,49.0,1644846198.75,P08,D09,0,0,0
2336,-41.0,1.0,48.0,1644846198.78125,P08,D09,0,0,0
2337,-41.0,2.0,49.0,1644846198.8125,P08,D09,0,0,0
2338,-41.0,2.0,49.0,1644846198.84375,P08,D09,0,0,0
2339,-41.0,2.0,49.0,1644846198.875,P08,D09,0,0,0
2340,-41.0,2.0,49.0,1644846198.90625,P08,D09,0,0,0
2341,-40.0,1.0,49.0,1644846198.9375,P08,D09,0,0,0
2342,-39.0,1.0,50.0,1644846198.96875,P08,D09,0,0,0
2343,-39.0,2.0,50.0,1644846199.0,P08,D09,0,0,0
2344,-40.0,2.0,49.0,1644846199.03125,P08,D09,0,0,0
2345,-41.0,2.0,48.0,1644846199.0625,P08,D09,0,0,0
2346,-41.0,2.0,48.0,1644846199.09375,P08,D09,0,0,0
2347,-41.0,2.0,49.0,1644846199.125,P08,D09,0,0,0
2348,-40.0,2.0,49.0,1644846199.15625,P08,D09,0,0,0
2349,-40.0,2.0,49.0,1644846199.1875,P08,D09,0,0,0
2350,-41.0,2.0,49.0,1644846199.21875,P08,D09,0,0,0
2351,-41.0,2.0,49.0,1644846199.25,P08,D09,0,0,0
2352,-41.0,2.0,49.0,1644846199.28125,P08,D09,0,0,0
2353,-41.0,2.0,49.0,1644846199.3125,P08,D09,0,0,0
2354,-41.0,2.0,49.0,1644846199.34375,P08,D09,0,0,0
2355,-41.0,2.0,49.0,1644846199.375,P08,D09,0,0,0
2356,-41.0,2.0,49.0,1644846199.40625,P08,D09,0,0,0
2357,-40.0,2.0,49.0,1644846199.4375,P08,D09,0,0,0
2358,-40.0,2.0,49.0,1644846199.46875,P08,D09,0,0,0
2359,-41.0,2.0,49.0,1644846199.5,P08,D09,0,0,0
2360,-41.0,2.0,49.0,1644846199.53125,P08,D09,0,0,0
2361,-41.0,2.0,49.0,1644846199.5625,P08,D09,0,0,0
2362,-41.0,1.0,49.0,1644846199.59375,P08,D09,0,0,0
2363,-40.0,2.0,49.0,1644846199.625,P08,D09,0,0,0
2364,-40.0,2.0,49.0,1644846199.65625,P08,D09,0,0,0
2365,-40.0,2.0,49.0,1644846199.6875,P08,D09,0,0,0
2366,-40.0,2.0,49.0,1644846199.71875,P08,D09,0,0,0
2367,-41.0,2.0,49.0,1644846199.75,P08,D09,0,0,0
2368,-41.0,2.0,49.0,1644846199.78125,P08,D09,0,0,0
2369,-40.0,2.0,49.0,1644846199.8125,P08,D09,0,0,0
2370,-41.0,1.0,49.0,1644846199.84375,P08,D09,0,0,0
2371,-40.0,1.0,49.0,1644846199.875,P08,D09,0,0,0
2372,-41.0,1.0,49.0,1644846199.90625,P08,D09,0,0,0
2373,-41.0,2.0,49.0,1644846199.9375,P08,D09,0,0,0
2374,-40.0,2.0,49.0,1644846199.96875,P08,D09,0,0,0
2375,-40.0,1.0,49.0,1644846200.0,P08,D09,0,0,0
2376,-40.0,1.0,49.0,1644846200.03125,P08,D09,0,0,0
2377,-40.0,1.0,49.0,1644846200.0625,P08,D09,0,0,0
2378,-40.0,2.0,49.0,1644846200.09375,P08,D09,0,0,0
2379,-40.0,2.0,49.0,1644846200.125,P08,D09,0,0,0
2380,-40.0,1.0,49.0,1644846200.15625,P08,D09,0,0,0
2381,-40.0,2.0,49.0,1644846200.1875,P08,D09,0,0,0
2382,-40.0,2.0,49.0,1644846200.21875,P08,D09,0,0,0
2383,-40.0,2.0,49.0,1644846200.25,P08,D09,0,0,0
2384,-40.0,1.0,49.0,1644846200.28125,P08,D09,0,0,0
2385,-40.0,1.0,49.0,1644846200.3125,P08,D09,0,0,0
2386,-41.0,1.0,49.0,1644846200.34375,P08,D09,0,0,0
2387,-40.0,2.0,49.0,1644846200.375,P08,D09,0,0,0
2388,-40.0,2.0,49.0,1644846200.40625,P08,D09,0,0,0
2389,-40.0,2.0,50.0,1644846200.4375,P08,D09,0,0,0
2390,-40.0,2.0,49.0,1644846200.46875,P08,D09,0,0,0
2391,-40.0,1.0,49.0,1644846200.5,P08,D09,0,0,0
2392,-41.0,1.0,49.0,1644846200.53125,P08,D09,0,0,0
2393,-40.0,1.0,49.0,1644846200.5625,P08,D09,0,0,0
