,acc_x,acc_y,acc_z,timestamp,participant,document,val,arou,eng
0,36.0,-12.0,49.0,1644832825.3125,P06,D12,0,0,1
1,36.0,-12.0,49.0,1644832825.34375,P06,D12,0,0,1
2,36.0,-12.0,49.0,1644832825.375,P06,D12,0,0,1
3,36.0,-12.0,49.0,1644832825.40625,P06,D12,0,0,1
4,36.0,-12.0,49.0,1644832825.4375,P06,D12,0,0,1
5,36.0,-12.0,49.0,1644832825.46875,P06,D12,0,0,1
6,36.0,-12.0,49.0,1644832825.5,P06,D12,0,0,1
7,36.0,-12.0,49.0,1644832825.53125,P06,D12,0,0,1
8,36.0,-12.0,49.0,1644832825.5625,P06,D12,0,0,1
9,36.0,-12.0,49.0,1644832825.59375,P06,D12,0,0,1
10,36.0,-12.0,49.0,1644832825.625,P06,D12,0,0,1
11,36.0,-12.0,49.0,1644832825.65625,P06,D12,0,0,1
12,36.0,-12.0,49.0,1644832825.6875,P06,D12,0,0,1
13,36.0,-12.0,49.0,1644832825.71875,P06,D12,0,0,1
14,36.0,-12.0,49.0,1644832825.75,P06,D12,0,0,1
15,36.0,-11.0,49.0,1644832825.78125,P06,D12,0,0,1
16,36.0,-12.0,49.0,1644832825.8125,P06,D12,0,0,1
17,36.0,-12.0,49.0,1644832825.84375,P06,D12,0,0,1
18,36.0,-12.0,49.0,1644832825.875,P06,D12,0,0,1
19,36.0,-12.0,49.0,1644832825.90625,P06,D12,0,0,1
20,36.0,-12.0,49.0,1644832825.9375,P06,D12,0,0,1
21,36.0,-12.0,49.0,1644832825.96875,P06,D12,0,0,1
22,36.0,-12.0,49.0,1644832826.0,P06,D12,0,0,1
23,36.0,-12.0,49.0,1644832826.03125,P06,D12,0,0,1
24,36.0,-12.0,49.0,1644832826.0625,P06,D12,0,0,1
25,36.0,-12.0,49.0,1644832826.09375,P06,D12,0,0,1
26,36.0,-12.0,49.0,1644832826.125,P06,D12,0,0,1
27,36.0,-12.0,49.0,1644832826.15625,P06,D12,0,0,1
28,36.0,-12.0,49.0,1644832826.1875,P06,D12,0,0,1
29,36.0,-12.0,49.0,1644832826.21875,P06,D12,0,0,1
30,36.0,-11.0,49.0,1644832826.25,P06,D12,0,0,1
31,36.0,-12.0,49.0,1644832826.28125,P06,D12,0,0,1
32,36.0,-12.0,49.0,1644832826.3125,P06,D12,0,0,1
33,36.0,-11.0,49.0,1644832826.34375,P06,D12,0,0,1
34,36.0,-11.0,49.0,1644832826.375,P06,D12,0,0,1
35,36.0,-12.0,49.0,1644832826.40625,P06,D12,0,0,1
36,36.0,-12.0,49.0,1644832826.4375,P06,D12,0,0,1
37,37.0,-12.0,49.0,1644832826.46875,P06,D12,0,0,1
38,36.0,-12.0,49.0,1644832826.5,P06,D12,0,0,1
39,36.0,-12.0,49.0,1644832826.53125,P06,D12,0,0,1
40,36.0,-12.0,49.0,1644832826.5625,P06,D12,0,0,1
41,36.0,-12.0,49.0,1644832826.59375,P06,D12,0,0,1
42,36.0,-12.0,49.0,1644832826.625,P06,D12,0,0,1
43,37.0,-11.0,49.0,1644832826.65625,P06,D12,0,0,1
44,36.0,-12.0,49.0,1644832826.6875,P06,D12,0,0,1
45,36.0,-12.0,49.0,1644832826.71875,P06,D12,0,0,1
46,36.0,-12.0,49.0,1644832826.75,P06,D12,0,0,1
47,36.0,-12.0,49.0,1644832826.78125,P06,D12,0,0,1
48,36.0,-12.0,49.0,1644832826.8125,P06,D12,0,0,1
49,36.0,-12.0,49.0,1644832826.84375,P06,D12,0,0,1
50,36.0,-12.0,49.0,1644832826.875,P06,D12,0,0,1
51,36.0,-12.0,49.0,1644832826.90625,P06,D12,0,0,1
52,36.0,-12.0,49.0,1644832826.9375,P06,D12,0,0,1
53,36.0,-12.0,49.0,1644832826.96875,P06,D12,0,0,1
54,36.0,-12.0,49.0,1644832827.0,P06,D12,0,0,1
55,36.0,-12.0,49.0,1644832827.03125,P06,D12,0,0,1
56,37.0,-11.0,49.0,1644832827.0625,P06,D12,0,0,1
57,37.0,-11.0,49.0,1644832827.09375,P06,D12,0,0,1
58,37.0,-11.0,49.0,1644832827.125,P06,D12,0,0,1
59,36.0,-11.0,49.0,1644832827.15625,P06,D12,0,0,1
60,36.0,-11.0,49.0,1644832827.1875,P06,D12,0,0,1
61,36.0,-12.0,49.0,1644832827.21875,P06,D12,0,0,1
62,37.0,-12.0,49.0,1644832827.25,P06,D12,0,0,1
63,36.0,-12.0,49.0,1644832827.28125,P06,D12,0,0,1
64,36.0,-12.0,49.0,1644832827.3125,P06,D12,0,0,1
65,36.0,-12.0,49.0,1644832827.34375,P06,D12,0,0,1
66,36.0,-12.0,49.0,1644832827.375,P06,D12,0,0,1
67,36.0,-12.0,49.0,1644832827.40625,P06,D12,0,0,1
68,36.0,-12.0,49.0,1644832827.4375,P06,D12,0,0,1
69,36.0,-12.0,49.0,1644832827.46875,P06,D12,0,0,1
70,36.0,-11.0,49.0,1644832827.5,P06,D12,0,0,1
71,36.0,-12.0,49.0,1644832827.53125,P06,D12,0,0,1
72,36.0,-12.0,49.0,1644832827.5625,P06,D12,0,0,1
73,36.0,-12.0,49.0,1644832827.59375,P06,D12,0,0,1
74,36.0,-12.0,49.0,1644832827.625,P06,D12,0,0,1
75,36.0,-12.0,49.0,1644832827.65625,P06,D12,0,0,1
76,36.0,-12.0,49.0,1644832827.6875,P06,D12,0,0,1
77,36.0,-12.0,49.0,1644832827.71875,P06,D12,0,0,1
78,36.0,-12.0,49.0,1644832827.75,P06,D12,0,0,1
79,36.0,-12.0,49.0,1644832827.78125,P06,D12,0,0,1
80,36.0,-12.0,49.0,1644832827.8125,P06,D12,0,0,1
81,36.0,-12.0,49.0,1644832827.84375,P06,D12,0,0,1
82,36.0,-12.0,49.0,1644832827.875,P06,D12,0,0,1
83,36.0,-12.0,49.0,1644832827.90625,P06,D12,0,0,1
84,36.0,-12.0,49.0,1644832827.9375,P06,D12,0,0,1
85,36.0,-12.0,49.0,1644832827.96875,P06,D12,0,0,1
86,36.0,-12.0,49.0,1644832828.0,P06,D12,0,0,1
87,36.0,-12.0,49.0,1644832828.03125,P06,D12,0,0,1
88,36.0,-12.0,49.0,1644832828.0625,P06,D12,0,0,1
89,36.0,-12.0,49.0,1644832828.09375,P06,D12,0,0,1
90,36.0,-12.0,49.0,1644832828.125,P06,D12,0,0,1
91,36.0,-12.0,49.0,1644832828.15625,P06,D12,0,0,1
92,36.0,-12.0,49.0,1644832828.1875,P06,D12,0,0,1
93,36.0,-12.0,49.0,1644832828.21875,P06,D12,0,0,1
94,36.0,-12.0,49.0,1644832828.25,P06,D12,0,0,1
95,36.0,-12.0,49.0,1644832828.28125,P06,D12,0,0,1
96,36.0,-12.0,49.0,1644832828.3125,P06,D12,0,0,1
97,36.0,-12.0,49.0,1644832828.34375,P06,D12,0,0,1
98,36.0,-12.0,49.0,1644832828.375,P06,D12,0,0,1
99,36.0,-12.0,49.0,1644832828.40625,P06,D12,0,0,1
100,36.0,-12.0,49.0,1644832828.4375,P06,D12,0,0,1
101,36.0,-12.0,49.0,1644832828.46875,P06,D12,0,0,1
102,36.0,-12.0,49.0,1644832828.5,P06,D12,0,0,1
103,36.0,-12.0,49.0,1644832828.53125,P06,D12,0,0,1
104,36.0,-11.0,49.0,1644832828.5625,P06,D12,0,0,1
105,37.0,-12.0,49.0,1644832828.59375,P06,D12,0,0,1
106,37.0,-12.0,49.0,1644832828.625,P06,D12,0,0,1
107,36.0,-11.0,49.0,1644832828.65625,P06,D12,0,0,1
108,36.0,-12.0,49.0,1644832828.6875,P06,D12,0,0,1
109,36.0,-12.0,49.0,1644832828.71875,P06,D12,0,0,1
110,36.0,-11.0,49.0,1644832828.75,P06,D12,0,0,1
111,36.0,-12.0,49.0,1644832828.78125,P06,D12,0,0,1
112,36.0,-12.0,49.0,1644832828.8125,P06,D12,0,0,1
113,36.0,-12.0,49.0,1644832828.84375,P06,D12,0,0,1
114,36.0,-12.0,49.0,1644832828.875,P06,D12,0,0,1
115,36.0,-12.0,49.0,1644832828.90625,P06,D12,0,0,1
116,36.0,-11.0,49.0,1644832828.9375,P06,D12,0,0,1
117,37.0,-11.0,49.0,1644832828.96875,P06,D12,0,0,1
118,37.0,-10.0,49.0,1644832829.0,P06,D12,0,0,1
119,37.0,-11.0,49.0,1644832829.03125,P06,D12,0,0,1
120,36.0,-11.0,49.0,1644832829.0625,P06,D12,0,0,1
121,36.0,-11.0,49.0,1644832829.09375,P06,D12,0,0,1
122,37.0,-11.0,49.0,1644832829.125,P06,D12,0,0,1
123,36.0,-11.0,49.0,1644832829.15625,P06,D12,0,0,1
124,36.0,-11.0,49.0,1644832829.1875,P06,D12,0,0,1
125,36.0,-11.0,49.0,1644832829.21875,P06,D12,0,0,1
126,36.0,-11.0,49.0,1644832829.25,P06,D12,0,0,1
127,36.0,-11.0,48.0,1644832829.28125,P06,D12,0,0,1
128,37.0,-11.0,49.0,1644832829.3125,P06,D12,0,0,1
129,36.0,-11.0,49.0,1644832829.34375,P06,D12,0,0,1
130,36.0,-12.0,49.0,1644832829.375,P06,D12,0,0,1
131,36.0,-12.0,49.0,1644832829.40625,P06,D12,0,0,1
132,36.0,-12.0,48.0,1644832829.4375,P06,D12,0,0,1
133,36.0,-12.0,48.0,1644832829.46875,P06,D12,0,0,1
134,36.0,-13.0,49.0,1644832829.5,P06,D12,0,0,1
135,36.0,-13.0,48.0,1644832829.53125,P06,D12,0,0,1
136,37.0,-12.0,48.0,1644832829.5625,P06,D12,0,0,1
137,37.0,-12.0,49.0,1644832829.59375,P06,D12,0,0,1
138,37.0,-12.0,48.0,1644832829.625,P06,D12,0,0,1
139,37.0,-12.0,49.0,1644832829.65625,P06,D12,0,0,1
140,37.0,-13.0,48.0,1644832829.6875,P06,D12,0,0,1
141,37.0,-12.0,49.0,1644832829.71875,P06,D12,0,0,1
142,37.0,-12.0,49.0,1644832829.75,P06,D12,0,0,1
143,37.0,-11.0,49.0,1644832829.78125,P06,D12,0,0,1
144,35.0,-12.0,49.0,1644832829.8125,P06,D12,0,0,1
145,36.0,-12.0,48.0,1644832829.84375,P06,D12,0,0,1
146,37.0,-12.0,48.0,1644832829.875,P06,D12,0,0,1
147,37.0,-12.0,49.0,1644832829.90625,P06,D12,0,0,1
148,36.0,-13.0,49.0,1644832829.9375,P06,D12,0,0,1
149,35.0,-13.0,49.0,1644832829.96875,P06,D12,0,0,1
150,36.0,-13.0,49.0,1644832830.0,P06,D12,0,0,1
151,36.0,-11.0,49.0,1644832830.03125,P06,D12,0,0,1
152,37.0,-11.0,49.0,1644832830.0625,P06,D12,0,0,1
153,37.0,-11.0,48.0,1644832830.09375,P06,D12,0,0,1
154,35.0,-11.0,48.0,1644832830.125,P06,D12,0,0,1
155,36.0,-11.0,49.0,1644832830.15625,P06,D12,0,0,1
156,36.0,-11.0,48.0,1644832830.1875,P06,D12,0,0,1
157,37.0,-11.0,48.0,1644832830.21875,P06,D12,0,0,1
158,37.0,-11.0,48.0,1644832830.25,P06,D12,0,0,1
159,37.0,-11.0,48.0,1644832830.28125,P06,D12,0,0,1
160,37.0,-11.0,48.0,1644832830.3125,P06,D12,0,0,1
161,37.0,-11.0,48.0,1644832830.34375,P06,D12,0,0,1
162,37.0,-11.0,48.0,1644832830.375,P06,D12,0,0,1
163,38.0,-11.0,48.0,1644832830.40625,P06,D12,0,0,1
164,37.0,-11.0,48.0,1644832830.4375,P06,D12,0,0,1
165,38.0,-11.0,48.0,1644832830.46875,P06,D12,0,0,1
166,38.0,-10.0,48.0,1644832830.5,P06,D12,0,0,1
167,38.0,-10.0,48.0,1644832830.53125,P06,D12,0,0,1
168,38.0,-11.0,48.0,1644832830.5625,P06,D12,0,0,1
169,38.0,-10.0,48.0,1644832830.59375,P06,D12,0,0,1
170,38.0,-10.0,48.0,1644832830.625,P06,D12,0,0,1
171,38.0,-11.0,48.0,1644832830.65625,P06,D12,0,0,1
172,38.0,-10.0,48.0,1644832830.6875,P06,D12,0,0,1
173,38.0,-11.0,48.0,1644832830.71875,P06,D12,0,0,1
174,38.0,-10.0,48.0,1644832830.75,P06,D12,0,0,1
175,37.0,-10.0,48.0,1644832830.78125,P06,D12,0,0,1
176,38.0,-10.0,48.0,1644832830.8125,P06,D12,0,0,1
177,38.0,-11.0,48.0,1644832830.84375,P06,D12,0,0,1
178,38.0,-11.0,48.0,1644832830.875,P06,D12,0,0,1
179,38.0,-10.0,48.0,1644832830.90625,P06,D12,0,0,1
180,39.0,-10.0,48.0,1644832830.9375,P06,D12,0,0,1
181,39.0,-11.0,48.0,1644832830.96875,P06,D12,0,0,1
182,35.0,-12.0,49.0,1644832831.0,P06,D12,0,0,1
183,34.0,-12.0,49.0,1644832831.03125,P06,D12,0,0,1
184,35.0,-11.0,48.0,1644832831.0625,P06,D12,0,0,1
185,37.0,-11.0,48.0,1644832831.09375,P06,D12,0,0,1
186,38.0,-11.0,48.0,1644832831.125,P06,D12,0,0,1
187,37.0,-11.0,48.0,1644832831.15625,P06,D12,0,0,1
188,36.0,-11.0,48.0,1644832831.1875,P06,D12,0,0,1
189,37.0,-11.0,49.0,1644832831.21875,P06,D12,0,0,1
190,37.0,-11.0,49.0,1644832831.25,P06,D12,0,0,1
191,37.0,-11.0,48.0,1644832831.28125,P06,D12,0,0,1
192,37.0,-11.0,48.0,1644832831.3125,P06,D12,0,0,1
193,37.0,-11.0,48.0,1644832831.34375,P06,D12,0,0,1
194,37.0,-11.0,48.0,1644832831.375,P06,D12,0,0,1
195,37.0,-11.0,48.0,1644832831.40625,P06,D12,0,0,1
196,37.0,-11.0,48.0,1644832831.4375,P06,D12,0,0,1
197,37.0,-11.0,48.0,1644832831.46875,P06,D12,0,0,1
198,37.0,-11.0,49.0,1644832831.5,P06,D12,0,0,1
199,37.0,-11.0,49.0,1644832831.53125,P06,D12,0,0,1
200,37.0,-11.0,48.0,1644832831.5625,P06,D12,0,0,1
201,37.0,-11.0,48.0,1644832831.59375,P06,D12,0,0,1
202,37.0,-12.0,49.0,1644832831.625,P06,D12,0,0,1
203,37.0,-11.0,48.0,1644832831.65625,P06,D12,0,0,1
204,37.0,-11.0,48.0,1644832831.6875,P06,D12,0,0,1
205,37.0,-11.0,49.0,1644832831.71875,P06,D12,0,0,1
206,37.0,-11.0,48.0,1644832831.75,P06,D12,0,0,1
207,37.0,-11.0,48.0,1644832831.78125,P06,D12,0,0,1
208,37.0,-11.0,48.0,1644832831.8125,P06,D12,0,0,1
209,37.0,-11.0,48.0,1644832831.84375,P06,D12,0,0,1
210,37.0,-11.0,48.0,1644832831.875,P06,D12,0,0,1
211,37.0,-11.0,48.0,1644832831.90625,P06,D12,0,0,1
212,37.0,-11.0,48.0,1644832831.9375,P06,D12,0,0,1
213,37.0,-11.0,48.0,1644832831.96875,P06,D12,0,0,1
214,37.0,-11.0,48.0,1644832832.0,P06,D12,0,0,1
215,37.0,-11.0,49.0,1644832832.03125,P06,D12,0,0,1
216,37.0,-11.0,48.0,1644832832.0625,P06,D12,0,0,1
217,37.0,-11.0,48.0,1644832832.09375,P06,D12,0,0,1
218,37.0,-11.0,49.0,1644832832.125,P06,D12,0,0,1
219,37.0,-11.0,48.0,1644832832.15625,P06,D12,0,0,1
220,37.0,-11.0,48.0,1644832832.1875,P06,D12,0,0,1
221,37.0,-11.0,48.0,1644832832.21875,P06,D12,0,0,1
222,37.0,-11.0,48.0,1644832832.25,P06,D12,0,0,1
223,37.0,-11.0,48.0,1644832832.28125,P06,D12,0,0,1
224,37.0,-11.0,48.0,1644832832.3125,P06,D12,0,0,1
225,37.0,-11.0,48.0,1644832832.34375,P06,D12,0,0,1
226,37.0,-11.0,48.0,1644832832.375,P06,D12,0,0,1
227,37.0,-11.0,49.0,1644832832.40625,P06,D12,0,0,1
228,37.0,-11.0,48.0,1644832832.4375,P06,D12,0,0,1
229,37.0,-11.0,48.0,1644832832.46875,P06,D12,0,0,1
230,37.0,-11.0,49.0,1644832832.5,P06,D12,0,0,1
231,37.0,-12.0,49.0,1644832832.53125,P06,D12,0,0,1
232,37.0,-11.0,49.0,1644832832.5625,P06,D12,0,0,1
233,37.0,-11.0,49.0,1644832832.59375,P06,D12,0,0,1
234,37.0,-11.0,49.0,1644832832.625,P06,D12,0,0,1
235,37.0,-11.0,48.0,1644832832.65625,P06,D12,0,0,1
236,37.0,-11.0,49.0,1644832832.6875,P06,D12,0,0,1
237,37.0,-11.0,49.0,1644832832.71875,P06,D12,0,0,1
238,37.0,-11.0,49.0,1644832832.75,P06,D12,0,0,1
239,37.0,-11.0,48.0,1644832832.78125,P06,D12,0,0,1
240,37.0,-11.0,48.0,1644832832.8125,P06,D12,0,0,1
241,37.0,-11.0,48.0,1644832832.84375,P06,D12,0,0,1
242,37.0,-11.0,48.0,1644832832.875,P06,D12,0,0,1
243,36.0,-11.0,49.0,1644832832.90625,P06,D12,0,0,1
244,37.0,-12.0,48.0,1644832832.9375,P06,D12,0,0,1
245,37.0,-12.0,48.0,1644832832.96875,P06,D12,0,0,1
246,37.0,-11.0,48.0,1644832833.0,P06,D12,0,0,1
247,37.0,-11.0,49.0,1644832833.03125,P06,D12,0,0,1
248,37.0,-12.0,49.0,1644832833.0625,P06,D12,0,0,1
249,37.0,-11.0,48.0,1644832833.09375,P06,D12,0,0,1
250,37.0,-11.0,49.0,1644832833.125,P06,D12,0,0,1
251,37.0,-11.0,48.0,1644832833.15625,P06,D12,0,0,1
252,37.0,-11.0,48.0,1644832833.1875,P06,D12,0,0,1
253,37.0,-11.0,48.0,1644832833.21875,P06,D12,0,0,1
254,37.0,-11.0,48.0,1644832833.25,P06,D12,0,0,1
255,37.0,-11.0,48.0,1644832833.28125,P06,D12,0,0,1
256,37.0,-11.0,48.0,1644832833.3125,P06,D12,0,0,1
257,37.0,-11.0,49.0,1644832833.34375,P06,D12,0,0,1
258,37.0,-11.0,49.0,1644832833.375,P06,D12,0,0,1
259,36.0,-11.0,48.0,1644832833.40625,P06,D12,0,0,1
260,37.0,-11.0,48.0,1644832833.4375,P06,D12,0,0,1
261,37.0,-12.0,48.0,1644832833.46875,P06,D12,0,0,1
262,37.0,-12.0,49.0,1644832833.5,P06,D12,0,0,1
263,37.0,-11.0,49.0,1644832833.53125,P06,D12,0,0,1
264,37.0,-12.0,48.0,1644832833.5625,P06,D12,0,0,1
265,37.0,-11.0,48.0,1644832833.59375,P06,D12,0,0,1
266,37.0,-11.0,48.0,1644832833.625,P06,D12,0,0,1
267,37.0,-11.0,49.0,1644832833.65625,P06,D12,0,0,1
268,37.0,-11.0,49.0,1644832833.6875,P06,D12,0,0,1
269,37.0,-12.0,49.0,1644832833.71875,P06,D12,0,0,1
270,37.0,-11.0,48.0,1644832833.75,P06,D12,0,0,1
271,37.0,-11.0,48.0,1644832833.78125,P06,D12,0,0,1
272,37.0,-11.0,48.0,1644832833.8125,P06,D12,0,0,1
273,37.0,-11.0,48.0,1644832833.84375,P06,D12,0,0,1
274,37.0,-11.0,48.0,1644832833.875,P06,D12,0,0,1
275,37.0,-11.0,49.0,1644832833.90625,P06,D12,0,0,1
276,37.0,-11.0,48.0,1644832833.9375,P06,D12,0,0,1
277,37.0,-11.0,49.0,1644832833.96875,P06,D12,0,0,1
278,37.0,-11.0,48.0,1644832834.0,P06,D12,0,0,1
279,37.0,-11.0,49.0,1644832834.03125,P06,D12,0,0,1
280,37.0,-11.0,48.0,1644832834.0625,P06,D12,0,0,1
281,37.0,-11.0,48.0,1644832834.09375,P06,D12,0,0,1
282,37.0,-11.0,49.0,1644832834.125,P06,D12,0,0,1
283,37.0,-11.0,48.0,1644832834.15625,P06,D12,0,0,1
284,37.0,-11.0,49.0,1644832834.1875,P06,D12,0,0,1
285,37.0,-11.0,48.0,1644832834.21875,P06,D12,0,0,1
286,37.0,-11.0,48.0,1644832834.25,P06,D12,0,0,1
287,37.0,-11.0,48.0,1644832834.28125,P06,D12,0,0,1
288,37.0,-11.0,48.0,1644832834.3125,P06,D12,0,0,1
289,37.0,-12.0,49.0,1644832834.34375,P06,D12,0,0,1
290,37.0,-11.0,48.0,1644832834.375,P06,D12,0,0,1
291,37.0,-11.0,49.0,1644832834.40625,P06,D12,0,0,1
292,37.0,-11.0,49.0,1644832834.4375,P06,D12,0,0,1
293,37.0,-11.0,49.0,1644832834.46875,P06,D12,0,0,1
294,37.0,-11.0,48.0,1644832834.5,P06,D12,0,0,1
295,37.0,-11.0,49.0,1644832834.53125,P06,D12,0,0,1
296,37.0,-11.0,49.0,1644832834.5625,P06,D12,0,0,1
297,37.0,-11.0,48.0,1644832834.59375,P06,D12,0,0,1
298,37.0,-11.0,49.0,1644832834.625,P06,D12,0,0,1
299,37.0,-11.0,49.0,1644832834.65625,P06,D12,0,0,1
300,37.0,-11.0,48.0,1644832834.6875,P06,D12,0,0,1
301,37.0,-11.0,48.0,1644832834.71875,P06,D12,0,0,1
302,37.0,-11.0,49.0,1644832834.75,P06,D12,0,0,1
303,37.0,-11.0,49.0,1644832834.78125,P06,D12,0,0,1
304,37.0,-11.0,48.0,1644832834.8125,P06,D12,0,0,1
305,37.0,-11.0,49.0,1644832834.84375,P06,D12,0,0,1
306,37.0,-11.0,49.0,1644832834.875,P06,D12,0,0,1
307,37.0,-11.0,48.0,1644832834.90625,P06,D12,0,0,1
308,37.0,-11.0,49.0,1644832834.9375,P06,D12,0,0,1
309,37.0,-12.0,48.0,1644832834.96875,P06,D12,0,0,1
310,37.0,-11.0,48.0,1644832835.0,P06,D12,0,0,1
311,37.0,-11.0,48.0,1644832835.03125,P06,D12,0,0,1
312,37.0,-11.0,48.0,1644832835.0625,P06,D12,0,0,1
313,37.0,-11.0,49.0,1644832835.09375,P06,D12,0,0,1
314,37.0,-11.0,48.0,1644832835.125,P06,D12,0,0,1
315,37.0,-11.0,48.0,1644832835.15625,P06,D12,0,0,1
316,37.0,-11.0,49.0,1644832835.1875,P06,D12,0,0,1
317,37.0,-11.0,48.0,1644832835.21875,P06,D12,0,0,1
318,37.0,-11.0,49.0,1644832835.25,P06,D12,0,0,1
319,37.0,-11.0,49.0,1644832835.28125,P06,D12,0,0,1
320,37.0,-11.0,48.0,1644832835.3125,P06,D12,0,0,1
321,37.0,-11.0,48.0,1644832835.34375,P06,D12,0,0,1
322,37.0,-11.0,48.0,1644832835.375,P06,D12,0,0,1
323,37.0,-12.0,48.0,1644832835.40625,P06,D12,0,0,1
324,37.0,-11.0,49.0,1644832835.4375,P06,D12,0,0,1
325,37.0,-11.0,48.0,1644832835.46875,P06,D12,0,0,1
326,37.0,-11.0,48.0,1644832835.5,P06,D12,0,0,1
327,37.0,-11.0,48.0,1644832835.53125,P06,D12,0,0,1
328,37.0,-11.0,48.0,1644832835.5625,P06,D12,0,0,1
329,37.0,-11.0,49.0,1644832835.59375,P06,D12,0,0,1
330,37.0,-11.0,49.0,1644832835.625,P06,D12,0,0,1
331,37.0,-11.0,49.0,1644832835.65625,P06,D12,0,0,1
332,37.0,-11.0,49.0,1644832835.6875,P06,D12,0,0,1
333,37.0,-11.0,48.0,1644832835.71875,P06,D12,0,0,1
334,37.0,-11.0,49.0,1644832835.75,P06,D12,0,0,1
335,37.0,-11.0,49.0,1644832835.78125,P06,D12,0,0,1
336,37.0,-11.0,48.0,1644832835.8125,P06,D12,0,0,1
337,37.0,-11.0,48.0,1644832835.84375,P06,D12,0,0,1
338,37.0,-11.0,48.0,1644832835.875,P06,D12,0,0,1
339,37.0,-11.0,48.0,1644832835.90625,P06,D12,0,0,1
340,37.0,-11.0,49.0,1644832835.9375,P06,D12,0,0,1
341,37.0,-11.0,48.0,1644832835.96875,P06,D12,0,0,1
342,37.0,-11.0,48.0,1644832836.0,P06,D12,0,0,1
343,36.0,-11.0,49.0,1644832836.03125,P06,D12,0,0,1
344,37.0,-12.0,49.0,1644832836.0625,P06,D12,0,0,1
345,37.0,-12.0,49.0,1644832836.09375,P06,D12,0,0,1
346,37.0,-11.0,49.0,1644832836.125,P06,D12,0,0,1
347,37.0,-11.0,49.0,1644832836.15625,P06,D12,0,0,1
348,36.0,-12.0,49.0,1644832836.1875,P06,D12,0,0,1
349,37.0,-11.0,48.0,1644832836.21875,P06,D12,0,0,1
350,37.0,-11.0,49.0,1644832836.25,P06,D12,0,0,1
351,37.0,-11.0,48.0,1644832836.28125,P06,D12,0,0,1
352,37.0,-11.0,49.0,1644832836.3125,P06,D12,0,0,1
353,36.0,-11.0,48.0,1644832836.34375,P06,D12,0,0,1
354,36.0,-12.0,48.0,1644832836.375,P06,D12,0,0,1
355,37.0,-11.0,49.0,1644832836.40625,P06,D12,0,0,1
356,37.0,-11.0,48.0,1644832836.4375,P06,D12,0,0,1
357,37.0,-11.0,49.0,1644832836.46875,P06,D12,0,0,1
358,37.0,-11.0,48.0,1644832836.5,P06,D12,0,0,1
359,37.0,-12.0,49.0,1644832836.53125,P06,D12,0,0,1
360,36.0,-11.0,48.0,1644832836.5625,P06,D12,0,0,1
361,37.0,-11.0,49.0,1644832836.59375,P06,D12,0,0,1
362,37.0,-12.0,49.0,1644832836.625,P06,D12,0,0,1
363,37.0,-12.0,49.0,1644832836.65625,P06,D12,0,0,1
364,36.0,-12.0,48.0,1644832836.6875,P06,D12,0,0,1
365,36.0,-11.0,48.0,1644832836.71875,P06,D12,0,0,1
366,37.0,-11.0,48.0,1644832836.75,P06,D12,0,0,1
367,37.0,-11.0,49.0,1644832836.78125,P06,D12,0,0,1
368,36.0,-11.0,49.0,1644832836.8125,P06,D12,0,0,1
369,37.0,-11.0,48.0,1644832836.84375,P06,D12,0,0,1
370,37.0,-11.0,48.0,1644832836.875,P06,D12,0,0,1
371,37.0,-11.0,49.0,1644832836.90625,P06,D12,0,0,1
372,36.0,-11.0,49.0,1644832836.9375,P06,D12,0,0,1
373,37.0,-11.0,49.0,1644832836.96875,P06,D12,0,0,1
374,37.0,-11.0,49.0,1644832837.0,P06,D12,0,0,1
375,37.0,-12.0,49.0,1644832837.03125,P06,D12,0,0,1
376,37.0,-12.0,49.0,1644832837.0625,P06,D12,0,0,1
377,37.0,-12.0,49.0,1644832837.09375,P06,D12,0,0,1
378,36.0,-12.0,49.0,1644832837.125,P06,D12,0,0,1
379,37.0,-11.0,48.0,1644832837.15625,P06,D12,0,0,1
380,37.0,-11.0,49.0,1644832837.1875,P06,D12,0,0,1
381,37.0,-12.0,49.0,1644832837.21875,P06,D12,0,0,1
382,37.0,-12.0,48.0,1644832837.25,P06,D12,0,0,1
383,37.0,-12.0,49.0,1644832837.28125,P06,D12,0,0,1
384,37.0,-12.0,49.0,1644832837.3125,P06,D12,0,0,1
385,37.0,-12.0,49.0,1644832837.34375,P06,D12,0,0,1
386,37.0,-11.0,49.0,1644832837.375,P06,D12,0,0,1
387,37.0,-11.0,49.0,1644832837.40625,P06,D12,0,0,1
388,36.0,-11.0,49.0,1644832837.4375,P06,D12,0,0,1
389,36.0,-11.0,49.0,1644832837.46875,P06,D12,0,0,1
390,37.0,-11.0,49.0,1644832837.5,P06,D12,0,0,1
391,37.0,-11.0,49.0,1644832837.53125,P06,D12,0,0,1
392,37.0,-12.0,49.0,1644832837.5625,P06,D12,0,0,1
393,37.0,-12.0,49.0,1644832837.59375,P06,D12,0,0,1
394,37.0,-11.0,49.0,1644832837.625,P06,D12,0,0,1
395,36.0,-11.0,49.0,1644832837.65625,P06,D12,0,0,1
396,37.0,-11.0,49.0,1644832837.6875,P06,D12,0,0,1
397,37.0,-11.0,49.0,1644832837.71875,P06,D12,0,0,1
398,37.0,-11.0,49.0,1644832837.75,P06,D12,0,0,1
399,37.0,-11.0,49.0,1644832837.78125,P06,D12,0,0,1
400,37.0,-11.0,49.0,1644832837.8125,P06,D12,0,0,1
401,37.0,-11.0,49.0,1644832837.84375,P06,D12,0,0,1
402,37.0,-11.0,48.0,1644832837.875,P06,D12,0,0,1
403,37.0,-12.0,49.0,1644832837.90625,P06,D12,0,0,1
404,37.0,-11.0,48.0,1644832837.9375,P06,D12,0,0,1
405,37.0,-11.0,48.0,1644832837.96875,P06,D12,0,0,1
406,37.0,-12.0,49.0,1644832838.0,P06,D12,0,0,1
407,36.0,-11.0,49.0,1644832838.03125,P06,D12,0,0,1
408,36.0,-12.0,49.0,1644832838.0625,P06,D12,0,0,1
409,37.0,-11.0,49.0,1644832838.09375,P06,D12,0,0,1
410,37.0,-12.0,49.0,1644832838.125,P06,D12,0,0,1
411,36.0,-11.0,49.0,1644832838.15625,P06,D12,0,0,1
412,37.0,-11.0,48.0,1644832838.1875,P06,D12,0,0,1
413,37.0,-11.0,49.0,1644832838.21875,P06,D12,0,0,1
414,37.0,-11.0,49.0,1644832838.25,P06,D12,0,0,1
415,37.0,-11.0,49.0,1644832838.28125,P06,D12,0,0,1
416,37.0,-11.0,48.0,1644832838.3125,P06,D12,0,0,1
417,36.0,-11.0,49.0,1644832838.34375,P06,D12,0,0,1
418,37.0,-12.0,49.0,1644832838.375,P06,D12,0,0,1
419,37.0,-12.0,49.0,1644832838.40625,P06,D12,0,0,1
420,36.0,-11.0,48.0,1644832838.4375,P06,D12,0,0,1
421,36.0,-12.0,49.0,1644832838.46875,P06,D12,0,0,1
422,37.0,-12.0,49.0,1644832838.5,P06,D12,0,0,1
423,37.0,-11.0,49.0,1644832838.53125,P06,D12,0,0,1
424,37.0,-11.0,49.0,1644832838.5625,P06,D12,0,0,1
425,37.0,-11.0,49.0,1644832838.59375,P06,D12,0,0,1
426,36.0,-11.0,49.0,1644832838.625,P06,D12,0,0,1
427,37.0,-12.0,49.0,1644832838.65625,P06,D12,0,0,1
428,37.0,-12.0,48.0,1644832838.6875,P06,D12,0,0,1
429,36.0,-12.0,49.0,1644832838.71875,P06,D12,0,0,1
430,37.0,-12.0,49.0,1644832838.75,P06,D12,0,0,1
431,37.0,-12.0,49.0,1644832838.78125,P06,D12,0,0,1
432,37.0,-11.0,49.0,1644832838.8125,P06,D12,0,0,1
433,37.0,-11.0,49.0,1644832838.84375,P06,D12,0,0,1
434,37.0,-11.0,49.0,1644832838.875,P06,D12,0,0,1
435,37.0,-11.0,49.0,1644832838.90625,P06,D12,0,0,1
436,37.0,-11.0,49.0,1644832838.9375,P06,D12,0,0,1
437,36.0,-11.0,49.0,1644832838.96875,P06,D12,0,0,1
438,37.0,-12.0,49.0,1644832839.0,P06,D12,0,0,1
439,37.0,-11.0,49.0,1644832839.03125,P06,D12,0,0,1
440,37.0,-11.0,49.0,1644832839.0625,P06,D12,0,0,1
441,37.0,-12.0,49.0,1644832839.09375,P06,D12,0,0,1
442,37.0,-12.0,49.0,1644832839.125,P06,D12,0,0,1
443,37.0,-12.0,48.0,1644832839.15625,P06,D12,0,0,1
444,37.0,-11.0,48.0,1644832839.1875,P06,D12,0,0,1
445,36.0,-12.0,49.0,1644832839.21875,P06,D12,0,0,1
446,36.0,-11.0,49.0,1644832839.25,P06,D12,0,0,1
447,36.0,-11.0,49.0,1644832839.28125,P06,D12,0,0,1
448,37.0,-11.0,49.0,1644832839.3125,P06,D12,0,0,1
449,36.0,-12.0,49.0,1644832839.34375,P06,D12,0,0,1
450,36.0,-11.0,49.0,1644832839.375,P06,D12,0,0,1
451,37.0,-11.0,49.0,1644832839.40625,P06,D12,0,0,1
452,37.0,-11.0,49.0,1644832839.4375,P06,D12,0,0,1
453,36.0,-11.0,49.0,1644832839.46875,P06,D12,0,0,1
454,36.0,-12.0,49.0,1644832839.5,P06,D12,0,0,1
455,37.0,-12.0,49.0,1644832839.53125,P06,D12,0,0,1
456,36.0,-12.0,49.0,1644832839.5625,P06,D12,0,0,1
457,37.0,-11.0,49.0,1644832839.59375,P06,D12,0,0,1
458,37.0,-11.0,49.0,1644832839.625,P06,D12,0,0,1
459,37.0,-11.0,49.0,1644832839.65625,P06,D12,0,0,1
460,36.0,-12.0,49.0,1644832839.6875,P06,D12,0,0,1
461,36.0,-12.0,49.0,1644832839.71875,P06,D12,0,0,1
462,36.0,-12.0,49.0,1644832839.75,P06,D12,0,0,1
463,36.0,-11.0,49.0,1644832839.78125,P06,D12,0,0,1
464,37.0,-11.0,49.0,1644832839.8125,P06,D12,0,0,1
465,37.0,-11.0,49.0,1644832839.84375,P06,D12,0,0,1
466,37.0,-12.0,48.0,1644832839.875,P06,D12,0,0,1
467,36.0,-11.0,49.0,1644832839.90625,P06,D12,0,0,1
468,37.0,-12.0,49.0,1644832839.9375,P06,D12,0,0,1
469,36.0,-12.0,49.0,1644832839.96875,P06,D12,0,0,1
470,36.0,-11.0,49.0,1644832840.0,P06,D12,0,0,1
471,37.0,-11.0,49.0,1644832840.03125,P06,D12,0,0,1
472,37.0,-12.0,48.0,1644832840.0625,P06,D12,0,0,1
473,36.0,-11.0,49.0,1644832840.09375,P06,D12,0,0,1
474,36.0,-12.0,49.0,1644832840.125,P06,D12,0,0,1
475,36.0,-11.0,49.0,1644832840.15625,P06,D12,0,0,1
476,36.0,-12.0,49.0,1644832840.1875,P06,D12,0,0,1
477,36.0,-11.0,49.0,1644832840.21875,P06,D12,0,0,1
478,37.0,-11.0,49.0,1644832840.25,P06,D12,0,0,1
479,37.0,-11.0,49.0,1644832840.28125,P06,D12,0,0,1
480,37.0,-11.0,48.0,1644832840.3125,P06,D12,0,0,1
481,37.0,-11.0,49.0,1644832840.34375,P06,D12,0,0,1
482,37.0,-12.0,49.0,1644832840.375,P06,D12,0,0,1
483,36.0,-12.0,48.0,1644832840.40625,P06,D12,0,0,1
484,37.0,-12.0,49.0,1644832840.4375,P06,D12,0,0,1
485,37.0,-12.0,49.0,1644832840.46875,P06,D12,0,0,1
486,36.0,-12.0,48.0,1644832840.5,P06,D12,0,0,1
487,37.0,-12.0,49.0,1644832840.53125,P06,D12,0,0,1
488,37.0,-12.0,48.0,1644832840.5625,P06,D12,0,0,1
489,37.0,-12.0,48.0,1644832840.59375,P06,D12,0,0,1
490,37.0,-11.0,49.0,1644832840.625,P06,D12,0,0,1
491,37.0,-11.0,49.0,1644832840.65625,P06,D12,0,0,1
492,37.0,-11.0,49.0,1644832840.6875,P06,D12,0,0,1
493,37.0,-11.0,48.0,1644832840.71875,P06,D12,0,0,1
494,37.0,-11.0,49.0,1644832840.75,P06,D12,0,0,1
495,37.0,-12.0,49.0,1644832840.78125,P06,D12,0,0,1
496,36.0,-12.0,49.0,1644832840.8125,P06,D12,0,0,1
497,37.0,-11.0,49.0,1644832840.84375,P06,D12,0,0,1
498,37.0,-11.0,49.0,1644832840.875,P06,D12,0,0,1
499,37.0,-12.0,49.0,1644832840.90625,P06,D12,0,0,1
500,37.0,-12.0,49.0,1644832840.9375,P06,D12,0,0,1
501,37.0,-12.0,49.0,1644832840.96875,P06,D12,0,0,1
502,37.0,-11.0,49.0,1644832841.0,P06,D12,0,0,1
503,37.0,-11.0,49.0,1644832841.03125,P06,D12,0,0,1
504,37.0,-11.0,49.0,1644832841.0625,P06,D12,0,0,1
505,36.0,-11.0,49.0,1644832841.09375,P06,D12,0,0,1
506,37.0,-11.0,49.0,1644832841.125,P06,D12,0,0,1
507,37.0,-11.0,49.0,1644832841.15625,P06,D12,0,0,1
508,37.0,-11.0,49.0,1644832841.1875,P06,D12,0,0,1
509,37.0,-12.0,49.0,1644832841.21875,P06,D12,0,0,1
510,37.0,-12.0,49.0,1644832841.25,P06,D12,0,0,1
511,37.0,-12.0,49.0,1644832841.28125,P06,D12,0,0,1
512,36.0,-12.0,49.0,1644832841.3125,P06,D12,0,0,1
513,36.0,-12.0,48.0,1644832841.34375,P06,D12,0,0,1
514,36.0,-12.0,49.0,1644832841.375,P06,D12,0,0,1
515,36.0,-12.0,49.0,1644832841.40625,P06,D12,0,0,1
516,36.0,-12.0,49.0,1644832841.4375,P06,D12,0,0,1
517,36.0,-12.0,49.0,1644832841.46875,P06,D12,0,0,1
518,36.0,-12.0,49.0,1644832841.5,P06,D12,0,0,1
519,36.0,-12.0,49.0,1644832841.53125,P06,D12,0,0,1
520,36.0,-12.0,49.0,1644832841.5625,P06,D12,0,0,1
521,36.0,-12.0,49.0,1644832841.59375,P06,D12,0,0,1
522,36.0,-12.0,49.0,1644832841.625,P06,D12,0,0,1
523,36.0,-12.0,49.0,1644832841.65625,P06,D12,0,0,1
524,36.0,-12.0,49.0,1644832841.6875,P06,D12,0,0,1
525,36.0,-12.0,49.0,1644832841.71875,P06,D12,0,0,1
526,36.0,-12.0,49.0,1644832841.75,P06,D12,0,0,1
527,36.0,-12.0,49.0,1644832841.78125,P06,D12,0,0,1
528,36.0,-12.0,49.0,1644832841.8125,P06,D12,0,0,1
529,36.0,-12.0,49.0,1644832841.84375,P06,D12,0,0,1
530,36.0,-12.0,49.0,1644832841.875,P06,D12,0,0,1
531,36.0,-12.0,49.0,1644832841.90625,P06,D12,0,0,1
532,36.0,-12.0,49.0,1644832841.9375,P06,D12,0,0,1
533,36.0,-12.0,49.0,1644832841.96875,P06,D12,0,0,1
534,36.0,-12.0,49.0,1644832842.0,P06,D12,0,0,1
535,37.0,-12.0,49.0,1644832842.03125,P06,D12,0,0,1
536,37.0,-11.0,48.0,1644832842.0625,P06,D12,0,0,1
537,37.0,-12.0,49.0,1644832842.09375,P06,D12,0,0,1
538,36.0,-12.0,49.0,1644832842.125,P06,D12,0,0,1
539,36.0,-12.0,49.0,1644832842.15625,P06,D12,0,0,1
540,36.0,-12.0,49.0,1644832842.1875,P06,D12,0,0,1
541,36.0,-12.0,49.0,1644832842.21875,P06,D12,0,0,1
542,36.0,-12.0,49.0,1644832842.25,P06,D12,0,0,1
543,36.0,-12.0,49.0,1644832842.28125,P06,D12,0,0,1
544,36.0,-12.0,49.0,1644832842.3125,P06,D12,0,0,1
545,36.0,-12.0,49.0,1644832842.34375,P06,D12,0,0,1
546,36.0,-12.0,49.0,1644832842.375,P06,D12,0,0,1
547,36.0,-12.0,49.0,1644832842.40625,P06,D12,0,0,1
548,36.0,-12.0,49.0,1644832842.4375,P06,D12,0,0,1
549,36.0,-12.0,49.0,1644832842.46875,P06,D12,0,0,1
550,36.0,-12.0,49.0,1644832842.5,P06,D12,0,0,1
551,36.0,-12.0,49.0,1644832842.53125,P06,D12,0,0,1
552,36.0,-12.0,49.0,1644832842.5625,P06,D12,0,0,1
553,37.0,-12.0,49.0,1644832842.59375,P06,D12,0,0,1
554,37.0,-12.0,49.0,1644832842.625,P06,D12,0,0,1
555,36.0,-12.0,49.0,1644832842.65625,P06,D12,0,0,1
556,36.0,-12.0,49.0,1644832842.6875,P06,D12,0,0,1
557,36.0,-12.0,49.0,1644832842.71875,P06,D12,0,0,1
558,36.0,-12.0,49.0,1644832842.75,P06,D12,0,0,1
559,36.0,-12.0,49.0,1644832842.78125,P06,D12,0,0,1
560,36.0,-12.0,49.0,1644832842.8125,P06,D12,0,0,1
561,36.0,-12.0,49.0,1644832842.84375,P06,D12,0,0,1
562,36.0,-12.0,49.0,1644832842.875,P06,D12,0,0,1
563,36.0,-12.0,49.0,1644832842.90625,P06,D12,0,0,1
564,36.0,-12.0,49.0,1644832842.9375,P06,D12,0,0,1
565,36.0,-12.0,49.0,1644832842.96875,P06,D12,0,0,1
566,36.0,-12.0,49.0,1644832843.0,P06,D12,0,0,1
567,36.0,-12.0,49.0,1644832843.03125,P06,D12,0,0,1
568,36.0,-12.0,49.0,1644832843.0625,P06,D12,0,0,1
569,36.0,-12.0,49.0,1644832843.09375,P06,D12,0,0,1
570,36.0,-12.0,49.0,1644832843.125,P06,D12,0,0,1
571,36.0,-12.0,49.0,1644832843.15625,P06,D12,0,0,1
572,36.0,-12.0,49.0,1644832843.1875,P06,D12,0,0,1
573,36.0,-12.0,49.0,1644832843.21875,P06,D12,0,0,1
574,37.0,-12.0,49.0,1644832843.25,P06,D12,0,0,1
575,36.0,-12.0,49.0,1644832843.28125,P06,D12,0,0,1
576,36.0,-12.0,49.0,1644832843.3125,P06,D12,0,0,1
577,37.0,-12.0,49.0,1644832843.34375,P06,D12,0,0,1
578,36.0,-12.0,49.0,1644832843.375,P06,D12,0,0,1
579,36.0,-12.0,49.0,1644832843.40625,P06,D12,0,0,1
580,36.0,-12.0,49.0,1644832843.4375,P06,D12,0,0,1
581,36.0,-12.0,49.0,1644832843.46875,P06,D12,0,0,1
582,36.0,-12.0,49.0,1644832843.5,P06,D12,0,0,1
583,36.0,-12.0,49.0,1644832843.53125,P06,D12,0,0,1
584,36.0,-12.0,49.0,1644832843.5625,P06,D12,0,0,1
585,36.0,-12.0,49.0,1644832843.59375,P06,D12,0,0,1
586,36.0,-12.0,49.0,1644832843.625,P06,D12,0,0,1
587,36.0,-12.0,49.0,1644832843.65625,P06,D12,0,0,1
588,36.0,-12.0,49.0,1644832843.6875,P06,D12,0,0,1
589,36.0,-12.0,49.0,1644832843.71875,P06,D12,0,0,1
590,37.0,-12.0,49.0,1644832843.75,P06,D12,0,0,1
591,37.0,-12.0,49.0,1644832843.78125,P06,D12,0,0,1
592,37.0,-12.0,49.0,1644832843.8125,P06,D12,0,0,1
593,36.0,-12.0,49.0,1644832843.84375,P06,D12,0,0,1
594,36.0,-12.0,49.0,1644832843.875,P06,D12,0,0,1
595,37.0,-11.0,49.0,1644832843.90625,P06,D12,0,0,1
596,36.0,-11.0,49.0,1644832843.9375,P06,D12,0,0,1
597,36.0,-12.0,49.0,1644832843.96875,P06,D12,0,0,1
598,36.0,-12.0,49.0,1644832844.0,P06,D12,0,0,1
599,36.0,-12.0,49.0,1644832844.03125,P06,D12,0,0,1
600,36.0,-12.0,49.0,1644832844.0625,P06,D12,0,0,1
601,36.0,-12.0,49.0,1644832844.09375,P06,D12,0,0,1
602,36.0,-12.0,49.0,1644832844.125,P06,D12,0,0,1
603,36.0,-11.0,49.0,1644832844.15625,P06,D12,0,0,1
604,36.0,-12.0,49.0,1644832844.1875,P06,D12,0,0,1
605,36.0,-12.0,49.0,1644832844.21875,P06,D12,0,0,1
606,36.0,-12.0,49.0,1644832844.25,P06,D12,0,0,1
607,36.0,-12.0,49.0,1644832844.28125,P06,D12,0,0,1
608,36.0,-12.0,49.0,1644832844.3125,P06,D12,0,0,1
609,36.0,-12.0,49.0,1644832844.34375,P06,D12,0,0,1
610,36.0,-12.0,49.0,1644832844.375,P06,D12,0,0,1
611,36.0,-12.0,49.0,1644832844.40625,P06,D12,0,0,1
612,36.0,-12.0,49.0,1644832844.4375,P06,D12,0,0,1
613,36.0,-12.0,49.0,1644832844.46875,P06,D12,0,0,1
614,36.0,-12.0,49.0,1644832844.5,P06,D12,0,0,1
615,36.0,-12.0,49.0,1644832844.53125,P06,D12,0,0,1
616,36.0,-12.0,49.0,1644832844.5625,P06,D12,0,0,1
617,36.0,-12.0,49.0,1644832844.59375,P06,D12,0,0,1
618,37.0,-12.0,49.0,1644832844.625,P06,D12,0,0,1
619,36.0,-12.0,49.0,1644832844.65625,P06,D12,0,0,1
620,36.0,-12.0,49.0,1644832844.6875,P06,D12,0,0,1
621,36.0,-12.0,49.0,1644832844.71875,P06,D12,0,0,1
622,36.0,-12.0,49.0,1644832844.75,P06,D12,0,0,1
623,36.0,-12.0,49.0,1644832844.78125,P06,D12,0,0,1
624,36.0,-12.0,49.0,1644832844.8125,P06,D12,0,0,1
625,36.0,-11.0,49.0,1644832844.84375,P06,D12,0,0,1
626,36.0,-12.0,49.0,1644832844.875,P06,D12,0,0,1
627,36.0,-12.0,49.0,1644832844.90625,P06,D12,0,0,1
628,36.0,-12.0,49.0,1644832844.9375,P06,D12,0,0,1
629,36.0,-12.0,49.0,1644832844.96875,P06,D12,0,0,1
630,36.0,-12.0,49.0,1644832845.0,P06,D12,0,0,1
631,36.0,-12.0,49.0,1644832845.03125,P06,D12,0,0,1
632,36.0,-12.0,49.0,1644832845.0625,P06,D12,0,0,1
633,36.0,-12.0,49.0,1644832845.09375,P06,D12,0,0,1
634,36.0,-12.0,49.0,1644832845.125,P06,D12,0,0,1
635,36.0,-12.0,49.0,1644832845.15625,P06,D12,0,0,1
636,36.0,-11.0,49.0,1644832845.1875,P06,D12,0,0,1
637,36.0,-12.0,49.0,1644832845.21875,P06,D12,0,0,1
638,36.0,-12.0,49.0,1644832845.25,P06,D12,0,0,1
639,36.0,-12.0,49.0,1644832845.28125,P06,D12,0,0,1
640,36.0,-12.0,49.0,1644832845.3125,P06,D12,0,0,1
641,36.0,-12.0,49.0,1644832845.34375,P06,D12,0,0,1
642,36.0,-12.0,49.0,1644832845.375,P06,D12,0,0,1
643,36.0,-12.0,49.0,1644832845.40625,P06,D12,0,0,1
644,36.0,-12.0,49.0,1644832845.4375,P06,D12,0,0,1
645,36.0,-12.0,49.0,1644832845.46875,P06,D12,0,0,1
646,36.0,-12.0,49.0,1644832845.5,P06,D12,0,0,1
647,36.0,-11.0,49.0,1644832845.53125,P06,D12,0,0,1
648,37.0,-12.0,49.0,1644832845.5625,P06,D12,0,0,1
649,36.0,-12.0,49.0,1644832845.59375,P06,D12,0,0,1
650,36.0,-12.0,49.0,1644832845.625,P06,D12,0,0,1
651,36.0,-12.0,49.0,1644832845.65625,P06,D12,0,0,1
652,36.0,-12.0,49.0,1644832845.6875,P06,D12,0,0,1
653,36.0,-12.0,49.0,1644832845.71875,P06,D12,0,0,1
654,36.0,-12.0,49.0,1644832845.75,P06,D12,0,0,1
655,36.0,-12.0,49.0,1644832845.78125,P06,D12,0,0,1
656,36.0,-12.0,49.0,1644832845.8125,P06,D12,0,0,1
657,36.0,-11.0,49.0,1644832845.84375,P06,D12,0,0,1
658,37.0,-12.0,49.0,1644832845.875,P06,D12,0,0,1
659,35.0,-12.0,49.0,1644832845.90625,P06,D12,0,0,1
660,35.0,-12.0,49.0,1644832845.9375,P06,D12,0,0,1
661,36.0,-12.0,49.0,1644832845.96875,P06,D12,0,0,1
662,36.0,-12.0,49.0,1644832846.0,P06,D12,0,0,1
663,36.0,-12.0,49.0,1644832846.03125,P06,D12,0,0,1
664,36.0,-12.0,49.0,1644832846.0625,P06,D12,0,0,1
665,36.0,-12.0,49.0,1644832846.09375,P06,D12,0,0,1
666,36.0,-12.0,49.0,1644832846.125,P06,D12,0,0,1
667,36.0,-12.0,49.0,1644832846.15625,P06,D12,0,0,1
668,36.0,-11.0,49.0,1644832846.1875,P06,D12,0,0,1
669,36.0,-11.0,49.0,1644832846.21875,P06,D12,0,0,1
670,36.0,-12.0,49.0,1644832846.25,P06,D12,0,0,1
671,37.0,-12.0,49.0,1644832846.28125,P06,D12,0,0,1
672,36.0,-12.0,49.0,1644832846.3125,P06,D12,0,0,1
673,36.0,-12.0,50.0,1644832846.34375,P06,D12,0,0,1
674,35.0,-12.0,49.0,1644832846.375,P06,D12,0,0,1
675,36.0,-11.0,49.0,1644832846.40625,P06,D12,0,0,1
676,36.0,-12.0,49.0,1644832846.4375,P06,D12,0,0,1
677,36.0,-12.0,49.0,1644832846.46875,P06,D12,0,0,1
678,36.0,-12.0,49.0,1644832846.5,P06,D12,0,0,1
679,36.0,-12.0,49.0,1644832846.53125,P06,D12,0,0,1
680,35.0,-12.0,49.0,1644832846.5625,P06,D12,0,0,1
681,36.0,-12.0,49.0,1644832846.59375,P06,D12,0,0,1
682,36.0,-12.0,49.0,1644832846.625,P06,D12,0,0,1
683,36.0,-12.0,49.0,1644832846.65625,P06,D12,0,0,1
684,36.0,-12.0,49.0,1644832846.6875,P06,D12,0,0,1
685,36.0,-12.0,49.0,1644832846.71875,P06,D12,0,0,1
686,36.0,-12.0,49.0,1644832846.75,P06,D12,0,0,1
687,36.0,-12.0,49.0,1644832846.78125,P06,D12,0,0,1
688,36.0,-12.0,49.0,1644832846.8125,P06,D12,0,0,1
689,36.0,-12.0,49.0,1644832846.84375,P06,D12,0,0,1
690,36.0,-12.0,49.0,1644832846.875,P06,D12,0,0,1
691,36.0,-12.0,49.0,1644832846.90625,P06,D12,0,0,1
692,36.0,-12.0,49.0,1644832846.9375,P06,D12,0,0,1
693,36.0,-12.0,49.0,1644832846.96875,P06,D12,0,0,1
694,36.0,-12.0,49.0,1644832847.0,P06,D12,0,0,1
695,36.0,-12.0,49.0,1644832847.03125,P06,D12,0,0,1
696,37.0,-12.0,49.0,1644832847.0625,P06,D12,0,0,1
697,36.0,-12.0,49.0,1644832847.09375,P06,D12,0,0,1
698,36.0,-12.0,49.0,1644832847.125,P06,D12,0,0,1
699,36.0,-12.0,49.0,1644832847.15625,P06,D12,0,0,1
700,36.0,-12.0,49.0,1644832847.1875,P06,D12,0,0,1
701,36.0,-12.0,49.0,1644832847.21875,P06,D12,0,0,1
702,36.0,-12.0,49.0,1644832847.25,P06,D12,0,0,1
703,36.0,-12.0,49.0,1644832847.28125,P06,D12,0,0,1
704,36.0,-12.0,49.0,1644832847.3125,P06,D12,0,0,1
705,36.0,-12.0,49.0,1644832847.34375,P06,D12,0,0,1
706,36.0,-12.0,49.0,1644832847.375,P06,D12,0,0,1
707,36.0,-12.0,49.0,1644832847.40625,P06,D12,0,0,1
708,36.0,-12.0,49.0,1644832847.4375,P06,D12,0,0,1
709,36.0,-12.0,49.0,1644832847.46875,P06,D12,0,0,1
710,36.0,-12.0,49.0,1644832847.5,P06,D12,0,0,1
711,36.0,-12.0,49.0,1644832847.53125,P06,D12,0,0,1
712,36.0,-12.0,49.0,1644832847.5625,P06,D12,0,0,1
713,36.0,-12.0,49.0,1644832847.59375,P06,D12,0,0,1
714,36.0,-12.0,49.0,1644832847.625,P06,D12,0,0,1
715,36.0,-12.0,49.0,1644832847.65625,P06,D12,0,0,1
716,36.0,-12.0,49.0,1644832847.6875,P06,D12,0,0,1
717,36.0,-12.0,49.0,1644832847.71875,P06,D12,0,0,1
718,36.0,-12.0,49.0,1644832847.75,P06,D12,0,0,1
719,36.0,-12.0,49.0,1644832847.78125,P06,D12,0,0,1
720,36.0,-12.0,49.0,1644832847.8125,P06,D12,0,0,1
721,36.0,-12.0,49.0,1644832847.84375,P06,D12,0,0,1
722,36.0,-12.0,49.0,1644832847.875,P06,D12,0,0,1
723,36.0,-12.0,49.0,1644832847.90625,P06,D12,0,0,1
724,36.0,-12.0,49.0,1644832847.9375,P06,D12,0,0,1
725,36.0,-12.0,49.0,1644832847.96875,P06,D12,0,0,1
726,36.0,-12.0,49.0,1644832848.0,P06,D12,0,0,1
727,36.0,-12.0,49.0,1644832848.03125,P06,D12,0,0,1
728,36.0,-12.0,49.0,1644832848.0625,P06,D12,0,0,1
729,36.0,-12.0,49.0,1644832848.09375,P06,D12,0,0,1
730,36.0,-12.0,49.0,1644832848.125,P06,D12,0,0,1
731,36.0,-12.0,49.0,1644832848.15625,P06,D12,0,0,1
732,36.0,-12.0,49.0,1644832848.1875,P06,D12,0,0,1
733,36.0,-12.0,49.0,1644832848.21875,P06,D12,0,0,1
734,36.0,-12.0,49.0,1644832848.25,P06,D12,0,0,1
735,36.0,-12.0,49.0,1644832848.28125,P06,D12,0,0,1
736,36.0,-12.0,49.0,1644832848.3125,P06,D12,0,0,1
737,36.0,-12.0,49.0,1644832848.34375,P06,D12,0,0,1
738,36.0,-12.0,49.0,1644832848.375,P06,D12,0,0,1
739,36.0,-12.0,49.0,1644832848.40625,P06,D12,0,0,1
740,36.0,-12.0,49.0,1644832848.4375,P06,D12,0,0,1
741,36.0,-12.0,49.0,1644832848.46875,P06,D12,0,0,1
742,36.0,-12.0,49.0,1644832848.5,P06,D12,0,0,1
743,36.0,-12.0,49.0,1644832848.53125,P06,D12,0,0,1
744,36.0,-12.0,49.0,1644832848.5625,P06,D12,0,0,1
745,36.0,-12.0,49.0,1644832848.59375,P06,D12,0,0,1
746,36.0,-12.0,49.0,1644832848.625,P06,D12,0,0,1
747,36.0,-12.0,49.0,1644832848.65625,P06,D12,0,0,1
748,36.0,-12.0,49.0,1644832848.6875,P06,D12,0,0,1
749,36.0,-12.0,49.0,1644832848.71875,P06,D12,0,0,1
750,36.0,-12.0,49.0,1644832848.75,P06,D12,0,0,1
751,36.0,-12.0,49.0,1644832848.78125,P06,D12,0,0,1
752,36.0,-12.0,49.0,1644832848.8125,P06,D12,0,0,1
753,36.0,-12.0,49.0,1644832848.84375,P06,D12,0,0,1
754,36.0,-12.0,49.0,1644832848.875,P06,D12,0,0,1
755,36.0,-12.0,49.0,1644832848.90625,P06,D12,0,0,1
756,36.0,-12.0,49.0,1644832848.9375,P06,D12,0,0,1
757,36.0,-12.0,49.0,1644832848.96875,P06,D12,0,0,1
758,36.0,-12.0,49.0,1644832849.0,P06,D12,0,0,1
759,36.0,-12.0,50.0,1644832849.03125,P06,D12,0,0,1
760,36.0,-12.0,49.0,1644832849.0625,P06,D12,0,0,1
761,36.0,-12.0,49.0,1644832849.09375,P06,D12,0,0,1
762,36.0,-12.0,49.0,1644832849.125,P06,D12,0,0,1
763,36.0,-12.0,49.0,1644832849.15625,P06,D12,0,0,1
764,36.0,-12.0,49.0,1644832849.1875,P06,D12,0,0,1
765,36.0,-12.0,49.0,1644832849.21875,P06,D12,0,0,1
766,36.0,-12.0,49.0,1644832849.25,P06,D12,0,0,1
767,36.0,-12.0,49.0,1644832849.28125,P06,D12,0,0,1
768,36.0,-12.0,49.0,1644832849.3125,P06,D12,0,0,1
769,35.0,-12.0,49.0,1644832849.34375,P06,D12,0,0,1
770,35.0,-12.0,49.0,1644832849.375,P06,D12,0,0,1
771,36.0,-12.0,49.0,1644832849.40625,P06,D12,0,0,1
772,36.0,-12.0,49.0,1644832849.4375,P06,D12,0,0,1
773,36.0,-12.0,49.0,1644832849.46875,P06,D12,0,0,1
774,36.0,-12.0,49.0,1644832849.5,P06,D12,0,0,1
775,36.0,-12.0,49.0,1644832849.53125,P06,D12,0,0,1
776,36.0,-12.0,49.0,1644832849.5625,P06,D12,0,0,1
777,36.0,-12.0,49.0,1644832849.59375,P06,D12,0,0,1
778,36.0,-12.0,49.0,1644832849.625,P06,D12,0,0,1
779,36.0,-12.0,49.0,1644832849.65625,P06,D12,0,0,1
780,36.0,-12.0,49.0,1644832849.6875,P06,D12,0,0,1
781,36.0,-12.0,49.0,1644832849.71875,P06,D12,0,0,1
782,36.0,-12.0,49.0,1644832849.75,P06,D12,0,0,1
783,36.0,-12.0,49.0,1644832849.78125,P06,D12,0,0,1
784,36.0,-12.0,49.0,1644832849.8125,P06,D12,0,0,1
785,36.0,-12.0,49.0,1644832849.84375,P06,D12,0,0,1
786,36.0,-12.0,49.0,1644832849.875,P06,D12,0,0,1
787,36.0,-12.0,49.0,1644832849.90625,P06,D12,0,0,1
788,36.0,-12.0,49.0,1644832849.9375,P06,D12,0,0,1
789,36.0,-12.0,49.0,1644832849.96875,P06,D12,0,0,1
790,36.0,-12.0,49.0,1644832850.0,P06,D12,0,0,1
791,36.0,-12.0,49.0,1644832850.03125,P06,D12,0,0,1
792,36.0,-12.0,49.0,1644832850.0625,P06,D12,0,0,1
793,36.0,-12.0,49.0,1644832850.09375,P06,D12,0,0,1
794,36.0,-11.0,49.0,1644832850.125,P06,D12,0,0,1
795,36.0,-12.0,49.0,1644832850.15625,P06,D12,0,0,1
796,35.0,-12.0,49.0,1644832850.1875,P06,D12,0,0,1
797,35.0,-12.0,49.0,1644832850.21875,P06,D12,0,0,1
798,36.0,-12.0,49.0,1644832850.25,P06,D12,0,0,1
799,35.0,-12.0,50.0,1644832850.28125,P06,D12,0,0,1
800,35.0,-12.0,49.0,1644832850.3125,P06,D12,0,0,1
801,36.0,-12.0,49.0,1644832850.34375,P06,D12,0,0,1
802,36.0,-12.0,49.0,1644832850.375,P06,D12,0,0,1
803,35.0,-12.0,49.0,1644832850.40625,P06,D12,0,0,1
804,35.0,-12.0,50.0,1644832850.4375,P06,D12,0,0,1
805,35.0,-12.0,49.0,1644832850.46875,P06,D12,0,0,1
806,36.0,-12.0,49.0,1644832850.5,P06,D12,0,0,1
807,36.0,-12.0,49.0,1644832850.53125,P06,D12,0,0,1
808,36.0,-12.0,49.0,1644832850.5625,P06,D12,0,0,1
809,35.0,-12.0,49.0,1644832850.59375,P06,D12,0,0,1
810,36.0,-12.0,49.0,1644832850.625,P06,D12,0,0,1
811,35.0,-12.0,49.0,1644832850.65625,P06,D12,0,0,1
812,36.0,-12.0,49.0,1644832850.6875,P06,D12,0,0,1
813,36.0,-12.0,49.0,1644832850.71875,P06,D12,0,0,1
814,36.0,-12.0,50.0,1644832850.75,P06,D12,0,0,1
815,36.0,-12.0,49.0,1644832850.78125,P06,D12,0,0,1
816,36.0,-12.0,49.0,1644832850.8125,P06,D12,0,0,1
817,35.0,-12.0,49.0,1644832850.84375,P06,D12,0,0,1
818,35.0,-12.0,50.0,1644832850.875,P06,D12,0,0,1
819,35.0,-12.0,50.0,1644832850.90625,P06,D12,0,0,1
820,35.0,-12.0,49.0,1644832850.9375,P06,D12,0,0,1
821,36.0,-12.0,50.0,1644832850.96875,P06,D12,0,0,1
822,36.0,-12.0,49.0,1644832851.0,P06,D12,0,0,1
823,35.0,-12.0,50.0,1644832851.03125,P06,D12,0,0,1
824,36.0,-12.0,50.0,1644832851.0625,P06,D12,0,0,1
825,35.0,-12.0,49.0,1644832851.09375,P06,D12,0,0,1
826,36.0,-12.0,49.0,1644832851.125,P06,D12,0,0,1
827,36.0,-12.0,49.0,1644832851.15625,P06,D12,0,0,1
828,35.0,-12.0,49.0,1644832851.1875,P06,D12,0,0,1
829,36.0,-12.0,49.0,1644832851.21875,P06,D12,0,0,1
830,36.0,-12.0,49.0,1644832851.25,P06,D12,0,0,1
831,36.0,-12.0,49.0,1644832851.28125,P06,D12,0,0,1
832,36.0,-12.0,49.0,1644832851.3125,P06,D12,0,0,1
833,36.0,-12.0,49.0,1644832851.34375,P06,D12,0,0,1
834,36.0,-12.0,49.0,1644832851.375,P06,D12,0,0,1
835,36.0,-12.0,49.0,1644832851.40625,P06,D12,0,0,1
836,36.0,-12.0,49.0,1644832851.4375,P06,D12,0,0,1
837,36.0,-12.0,49.0,1644832851.46875,P06,D12,0,0,1
838,36.0,-12.0,49.0,1644832851.5,P06,D12,0,0,1
839,36.0,-12.0,49.0,1644832851.53125,P06,D12,0,0,1
840,36.0,-12.0,49.0,1644832851.5625,P06,D12,0,0,1
841,36.0,-12.0,49.0,1644832851.59375,P06,D12,0,0,1
842,36.0,-12.0,49.0,1644832851.625,P06,D12,0,0,1
843,36.0,-12.0,49.0,1644832851.65625,P06,D12,0,0,1
844,36.0,-12.0,49.0,1644832851.6875,P06,D12,0,0,1
845,36.0,-12.0,49.0,1644832851.71875,P06,D12,0,0,1
846,36.0,-12.0,49.0,1644832851.75,P06,D12,0,0,1
847,36.0,-12.0,49.0,1644832851.78125,P06,D12,0,0,1
848,36.0,-12.0,49.0,1644832851.8125,P06,D12,0,0,1
849,36.0,-12.0,49.0,1644832851.84375,P06,D12,0,0,1
850,36.0,-12.0,49.0,1644832851.875,P06,D12,0,0,1
851,36.0,-12.0,50.0,1644832851.90625,P06,D12,0,0,1
852,36.0,-12.0,49.0,1644832851.9375,P06,D12,0,0,1
853,36.0,-12.0,49.0,1644832851.96875,P06,D12,0,0,1
854,36.0,-12.0,49.0,1644832852.0,P06,D12,0,0,1
855,36.0,-12.0,49.0,1644832852.03125,P06,D12,0,0,1
856,36.0,-12.0,49.0,1644832852.0625,P06,D12,0,0,1
857,36.0,-12.0,49.0,1644832852.09375,P06,D12,0,0,1
858,36.0,-12.0,49.0,1644832852.125,P06,D12,0,0,1
859,36.0,-12.0,49.0,1644832852.15625,P06,D12,0,0,1
860,36.0,-12.0,49.0,1644832852.1875,P06,D12,0,0,1
861,36.0,-12.0,49.0,1644832852.21875,P06,D12,0,0,1
862,36.0,-12.0,49.0,1644832852.25,P06,D12,0,0,1
863,36.0,-12.0,50.0,1644832852.28125,P06,D12,0,0,1
864,35.0,-12.0,49.0,1644832852.3125,P06,D12,0,0,1
865,36.0,-12.0,50.0,1644832852.34375,P06,D12,0,0,1
866,36.0,-12.0,50.0,1644832852.375,P06,D12,0,0,1
867,35.0,-12.0,49.0,1644832852.40625,P06,D12,0,0,1
868,36.0,-12.0,49.0,1644832852.4375,P06,D12,0,0,1
869,35.0,-12.0,49.0,1644832852.46875,P06,D12,0,0,1
870,36.0,-12.0,50.0,1644832852.5,P06,D12,0,0,1
871,36.0,-12.0,49.0,1644832852.53125,P06,D12,0,0,1
872,36.0,-12.0,49.0,1644832852.5625,P06,D12,0,0,1
873,36.0,-12.0,49.0,1644832852.59375,P06,D12,0,0,1
874,36.0,-11.0,49.0,1644832852.625,P06,D12,0,0,1
875,36.0,-11.0,49.0,1644832852.65625,P06,D12,0,0,1
876,36.0,-12.0,49.0,1644832852.6875,P06,D12,0,0,1
877,36.0,-12.0,49.0,1644832852.71875,P06,D12,0,0,1
878,36.0,-12.0,49.0,1644832852.75,P06,D12,0,0,1
879,36.0,-12.0,49.0,1644832852.78125,P06,D12,0,0,1
880,36.0,-12.0,49.0,1644832852.8125,P06,D12,0,0,1
881,36.0,-12.0,49.0,1644832852.84375,P06,D12,0,0,1
882,36.0,-12.0,49.0,1644832852.875,P06,D12,0,0,1
883,36.0,-12.0,49.0,1644832852.90625,P06,D12,0,0,1
884,36.0,-12.0,49.0,1644832852.9375,P06,D12,0,0,1
885,36.0,-12.0,49.0,1644832852.96875,P06,D12,0,0,1
886,36.0,-12.0,49.0,1644832853.0,P06,D12,0,0,1
887,36.0,-12.0,49.0,1644832853.03125,P06,D12,0,0,1
888,36.0,-12.0,49.0,1644832853.0625,P06,D12,0,0,1
889,36.0,-12.0,50.0,1644832853.09375,P06,D12,0,0,1
890,35.0,-12.0,49.0,1644832853.125,P06,D12,0,0,1
891,36.0,-12.0,50.0,1644832853.15625,P06,D12,0,0,1
892,36.0,-12.0,50.0,1644832853.1875,P06,D12,0,0,1
893,36.0,-12.0,49.0,1644832853.21875,P06,D12,0,0,1
894,36.0,-12.0,49.0,1644832853.25,P06,D12,0,0,1
895,36.0,-12.0,49.0,1644832853.28125,P06,D12,0,0,1
896,35.0,-12.0,49.0,1644832853.3125,P06,D12,0,0,1
897,36.0,-12.0,49.0,1644832853.34375,P06,D12,0,0,1
898,37.0,-12.0,49.0,1644832853.375,P06,D12,0,0,1
899,37.0,-12.0,49.0,1644832853.40625,P06,D12,0,0,1
900,36.0,-12.0,49.0,1644832853.4375,P06,D12,0,0,1
901,36.0,-12.0,49.0,1644832853.46875,P06,D12,0,0,1
902,36.0,-12.0,49.0,1644832853.5,P06,D12,0,0,1
903,36.0,-12.0,49.0,1644832853.53125,P06,D12,0,0,1
904,36.0,-12.0,49.0,1644832853.5625,P06,D12,0,0,1
905,35.0,-12.0,49.0,1644832853.59375,P06,D12,0,0,1
906,35.0,-12.0,49.0,1644832853.625,P06,D12,0,0,1
907,35.0,-12.0,49.0,1644832853.65625,P06,D12,0,0,1
908,36.0,-12.0,49.0,1644832853.6875,P06,D12,0,0,1
909,36.0,-12.0,49.0,1644832853.71875,P06,D12,0,0,1
910,36.0,-12.0,49.0,1644832853.75,P06,D12,0,0,1
911,36.0,-12.0,49.0,1644832853.78125,P06,D12,0,0,1
912,36.0,-12.0,49.0,1644832853.8125,P06,D12,0,0,1
913,36.0,-12.0,49.0,1644832853.84375,P06,D12,0,0,1
914,36.0,-12.0,49.0,1644832853.875,P06,D12,0,0,1
915,36.0,-12.0,49.0,1644832853.90625,P06,D12,0,0,1
916,36.0,-12.0,49.0,1644832853.9375,P06,D12,0,0,1
917,36.0,-12.0,49.0,1644832853.96875,P06,D12,0,0,1
918,36.0,-12.0,49.0,1644832854.0,P06,D12,0,0,1
919,36.0,-12.0,49.0,1644832854.03125,P06,D12,0,0,1
920,36.0,-12.0,49.0,1644832854.0625,P06,D12,0,0,1
921,36.0,-12.0,49.0,1644832854.09375,P06,D12,0,0,1
922,36.0,-12.0,49.0,1644832854.125,P06,D12,0,0,1
923,36.0,-12.0,49.0,1644832854.15625,P06,D12,0,0,1
924,36.0,-12.0,49.0,1644832854.1875,P06,D12,0,0,1
925,36.0,-12.0,49.0,1644832854.21875,P06,D12,0,0,1
926,36.0,-12.0,49.0,1644832854.25,P06,D12,0,0,1
927,36.0,-12.0,49.0,1644832854.28125,P06,D12,0,0,1
928,36.0,-12.0,49.0,1644832854.3125,P06,D12,0,0,1
929,36.0,-12.0,49.0,1644832854.34375,P06,D12,0,0,1
930,36.0,-12.0,49.0,1644832854.375,P06,D12,0,0,1
931,36.0,-12.0,49.0,1644832854.40625,P06,D12,0,0,1
932,36.0,-12.0,49.0,1644832854.4375,P06,D12,0,0,1
933,36.0,-12.0,49.0,1644832854.46875,P06,D12,0,0,1
934,36.0,-12.0,49.0,1644832854.5,P06,D12,0,0,1
935,36.0,-12.0,49.0,1644832854.53125,P06,D12,0,0,1
936,36.0,-12.0,49.0,1644832854.5625,P06,D12,0,0,1
937,36.0,-12.0,49.0,1644832854.59375,P06,D12,0,0,1
938,36.0,-12.0,50.0,1644832854.625,P06,D12,0,0,1
939,36.0,-12.0,49.0,1644832854.65625,P06,D12,0,0,1
940,36.0,-12.0,49.0,1644832854.6875,P06,D12,0,0,1
941,36.0,-12.0,49.0,1644832854.71875,P06,D12,0,0,1
942,36.0,-12.0,49.0,1644832854.75,P06,D12,0,0,1
943,36.0,-12.0,49.0,1644832854.78125,P06,D12,0,0,1
944,36.0,-12.0,49.0,1644832854.8125,P06,D12,0,0,1
945,36.0,-12.0,49.0,1644832854.84375,P06,D12,0,0,1
946,36.0,-12.0,49.0,1644832854.875,P06,D12,0,0,1
947,36.0,-12.0,49.0,1644832854.90625,P06,D12,0,0,1
948,36.0,-12.0,49.0,1644832854.9375,P06,D12,0,0,1
949,36.0,-12.0,49.0,1644832854.96875,P06,D12,0,0,1
950,36.0,-12.0,49.0,1644832855.0,P06,D12,0,0,1
951,35.0,-12.0,49.0,1644832855.03125,P06,D12,0,0,1
952,36.0,-12.0,49.0,1644832855.0625,P06,D12,0,0,1
953,36.0,-12.0,49.0,1644832855.09375,P06,D12,0,0,1
954,36.0,-12.0,49.0,1644832855.125,P06,D12,0,0,1
955,36.0,-12.0,49.0,1644832855.15625,P06,D12,0,0,1
956,36.0,-12.0,49.0,1644832855.1875,P06,D12,0,0,1
957,36.0,-12.0,49.0,1644832855.21875,P06,D12,0,0,1
958,35.0,-12.0,49.0,1644832855.25,P06,D12,0,0,1
959,36.0,-12.0,49.0,1644832855.28125,P06,D12,0,0,1
960,36.0,-12.0,49.0,1644832855.3125,P06,D12,0,0,1
961,36.0,-12.0,49.0,1644832855.34375,P06,D12,0,0,1
962,36.0,-12.0,49.0,1644832855.375,P06,D12,0,0,1
963,36.0,-12.0,49.0,1644832855.40625,P06,D12,0,0,1
964,35.0,-12.0,49.0,1644832855.4375,P06,D12,0,0,1
965,36.0,-12.0,49.0,1644832855.46875,P06,D12,0,0,1
966,36.0,-12.0,49.0,1644832855.5,P06,D12,0,0,1
967,36.0,-12.0,49.0,1644832855.53125,P06,D12,0,0,1
968,36.0,-12.0,49.0,1644832855.5625,P06,D12,0,0,1
969,36.0,-12.0,49.0,1644832855.59375,P06,D12,0,0,1
970,36.0,-12.0,49.0,1644832855.625,P06,D12,0,0,1
971,36.0,-12.0,49.0,1644832855.65625,P06,D12,0,0,1
972,36.0,-12.0,49.0,1644832855.6875,P06,D12,0,0,1
973,36.0,-12.0,49.0,1644832855.71875,P06,D12,0,0,1
974,36.0,-12.0,49.0,1644832855.75,P06,D12,0,0,1
975,36.0,-12.0,49.0,1644832855.78125,P06,D12,0,0,1
976,35.0,-12.0,49.0,1644832855.8125,P06,D12,0,0,1
977,36.0,-12.0,49.0,1644832855.84375,P06,D12,0,0,1
978,36.0,-12.0,49.0,1644832855.875,P06,D12,0,0,1
979,36.0,-12.0,49.0,1644832855.90625,P06,D12,0,0,1
980,36.0,-12.0,49.0,1644832855.9375,P06,D12,0,0,1
981,35.0,-12.0,49.0,1644832855.96875,P06,D12,0,0,1
982,36.0,-12.0,49.0,1644832856.0,P06,D12,0,0,1
983,36.0,-12.0,49.0,1644832856.03125,P06,D12,0,0,1
984,36.0,-12.0,49.0,1644832856.0625,P06,D12,0,0,1
985,36.0,-12.0,49.0,1644832856.09375,P06,D12,0,0,1
986,36.0,-12.0,49.0,1644832856.125,P06,D12,0,0,1
987,36.0,-12.0,49.0,1644832856.15625,P06,D12,0,0,1
988,36.0,-12.0,49.0,1644832856.1875,P06,D12,0,0,1
989,36.0,-12.0,49.0,1644832856.21875,P06,D12,0,0,1
990,36.0,-12.0,49.0,1644832856.25,P06,D12,0,0,1
991,36.0,-12.0,49.0,1644832856.28125,P06,D12,0,0,1
992,36.0,-12.0,49.0,1644832856.3125,P06,D12,0,0,1
993,36.0,-12.0,49.0,1644832856.34375,P06,D12,0,0,1
994,36.0,-12.0,49.0,1644832856.375,P06,D12,0,0,1
995,36.0,-12.0,49.0,1644832856.40625,P06,D12,0,0,1
996,36.0,-12.0,49.0,1644832856.4375,P06,D12,0,0,1
997,36.0,-12.0,49.0,1644832856.46875,P06,D12,0,0,1
998,36.0,-12.0,49.0,1644832856.5,P06,D12,0,0,1
999,36.0,-12.0,49.0,1644832856.53125,P06,D12,0,0,1
1000,36.0,-12.0,49.0,1644832856.5625,P06,D12,0,0,1
1001,36.0,-12.0,49.0,1644832856.59375,P06,D12,0,0,1
1002,36.0,-12.0,49.0,1644832856.625,P06,D12,0,0,1
1003,36.0,-12.0,49.0,1644832856.65625,P06,D12,0,0,1
1004,36.0,-12.0,49.0,1644832856.6875,P06,D12,0,0,1
1005,36.0,-12.0,49.0,1644832856.71875,P06,D12,0,0,1
1006,36.0,-12.0,49.0,1644832856.75,P06,D12,0,0,1
1007,36.0,-12.0,49.0,1644832856.78125,P06,D12,0,0,1
1008,36.0,-12.0,49.0,1644832856.8125,P06,D12,0,0,1
1009,36.0,-12.0,49.0,1644832856.84375,P06,D12,0,0,1
1010,36.0,-12.0,49.0,1644832856.875,P06,D12,0,0,1
1011,36.0,-11.0,49.0,1644832856.90625,P06,D12,0,0,1
1012,35.0,-12.0,50.0,1644832856.9375,P06,D12,0,0,1
1013,35.0,-12.0,50.0,1644832856.96875,P06,D12,0,0,1
1014,36.0,-12.0,49.0,1644832857.0,P06,D12,0,0,1
1015,36.0,-12.0,49.0,1644832857.03125,P06,D12,0,0,1
1016,36.0,-12.0,49.0,1644832857.0625,P06,D12,0,0,1
1017,36.0,-12.0,49.0,1644832857.09375,P06,D12,0,0,1
1018,36.0,-12.0,49.0,1644832857.125,P06,D12,0,0,1
1019,36.0,-12.0,49.0,1644832857.15625,P06,D12,0,0,1
1020,35.0,-12.0,50.0,1644832857.1875,P06,D12,0,0,1
1021,35.0,-12.0,49.0,1644832857.21875,P06,D12,0,0,1
1022,36.0,-12.0,49.0,1644832857.25,P06,D12,0,0,1
1023,36.0,-12.0,49.0,1644832857.28125,P06,D12,0,0,1
1024,35.0,-12.0,49.0,1644832857.3125,P06,D12,0,0,1
1025,35.0,-12.0,49.0,1644832857.34375,P06,D12,0,0,1
1026,35.0,-12.0,49.0,1644832857.375,P06,D12,0,0,1
1027,36.0,-12.0,49.0,1644832857.40625,P06,D12,0,0,1
1028,36.0,-12.0,49.0,1644832857.4375,P06,D12,0,0,1
1029,36.0,-12.0,49.0,1644832857.46875,P06,D12,0,0,1
1030,36.0,-12.0,49.0,1644832857.5,P06,D12,0,0,1
1031,36.0,-12.0,49.0,1644832857.53125,P06,D12,0,0,1
1032,36.0,-12.0,49.0,1644832857.5625,P06,D12,0,0,1
1033,36.0,-12.0,49.0,1644832857.59375,P06,D12,0,0,1
1034,36.0,-12.0,49.0,1644832857.625,P06,D12,0,0,1
1035,36.0,-12.0,49.0,1644832857.65625,P06,D12,0,0,1
1036,36.0,-12.0,49.0,1644832857.6875,P06,D12,0,0,1
1037,36.0,-12.0,49.0,1644832857.71875,P06,D12,0,0,1
1038,35.0,-12.0,49.0,1644832857.75,P06,D12,0,0,1
1039,36.0,-12.0,49.0,1644832857.78125,P06,D12,0,0,1
1040,36.0,-12.0,49.0,1644832857.8125,P06,D12,0,0,1
1041,35.0,-12.0,49.0,1644832857.84375,P06,D12,0,0,1
1042,36.0,-12.0,49.0,1644832857.875,P06,D12,0,0,1
1043,36.0,-12.0,49.0,1644832857.90625,P06,D12,0,0,1
1044,36.0,-12.0,49.0,1644832857.9375,P06,D12,0,0,1
1045,36.0,-12.0,49.0,1644832857.96875,P06,D12,0,0,1
1046,36.0,-12.0,50.0,1644832858.0,P06,D12,0,0,1
1047,36.0,-12.0,49.0,1644832858.03125,P06,D12,0,0,1
1048,36.0,-12.0,49.0,1644832858.0625,P06,D12,0,0,1
1049,36.0,-12.0,49.0,1644832858.09375,P06,D12,0,0,1
1050,36.0,-12.0,49.0,1644832858.125,P06,D12,0,0,1
1051,36.0,-12.0,49.0,1644832858.15625,P06,D12,0,0,1
1052,36.0,-12.0,49.0,1644832858.1875,P06,D12,0,0,1
1053,36.0,-12.0,49.0,1644832858.21875,P06,D12,0,0,1
1054,36.0,-12.0,49.0,1644832858.25,P06,D12,0,0,1
1055,36.0,-12.0,49.0,1644832858.28125,P06,D12,0,0,1
1056,36.0,-12.0,49.0,1644832858.3125,P06,D12,0,0,1
1057,36.0,-12.0,49.0,1644832858.34375,P06,D12,0,0,1
1058,36.0,-12.0,49.0,1644832858.375,P06,D12,0,0,1
1059,36.0,-12.0,49.0,1644832858.40625,P06,D12,0,0,1
1060,36.0,-12.0,49.0,1644832858.4375,P06,D12,0,0,1
1061,36.0,-12.0,49.0,1644832858.46875,P06,D12,0,0,1
1062,36.0,-12.0,49.0,1644832858.5,P06,D12,0,0,1
1063,36.0,-12.0,49.0,1644832858.53125,P06,D12,0,0,1
1064,36.0,-12.0,49.0,1644832858.5625,P06,D12,0,0,1
1065,36.0,-12.0,49.0,1644832858.59375,P06,D12,0,0,1
1066,36.0,-12.0,49.0,1644832858.625,P06,D12,0,0,1
1067,36.0,-12.0,49.0,1644832858.65625,P06,D12,0,0,1
1068,36.0,-12.0,49.0,1644832858.6875,P06,D12,0,0,1
1069,36.0,-12.0,49.0,1644832858.71875,P06,D12,0,0,1
1070,36.0,-12.0,49.0,1644832858.75,P06,D12,0,0,1
1071,36.0,-12.0,49.0,1644832858.78125,P06,D12,0,0,1
1072,36.0,-12.0,49.0,1644832858.8125,P06,D12,0,0,1
1073,36.0,-12.0,49.0,1644832858.84375,P06,D12,0,0,1
1074,36.0,-12.0,49.0,1644832858.875,P06,D12,0,0,1
1075,36.0,-12.0,49.0,1644832858.90625,P06,D12,0,0,1
1076,36.0,-12.0,49.0,1644832858.9375,P06,D12,0,0,1
1077,36.0,-13.0,49.0,1644832858.96875,P06,D12,0,0,1
1078,36.0,-12.0,49.0,1644832859.0,P06,D12,0,0,1
1079,35.0,-12.0,49.0,1644832859.03125,P06,D12,0,0,1
1080,36.0,-12.0,49.0,1644832859.0625,P06,D12,0,0,1
1081,36.0,-12.0,49.0,1644832859.09375,P06,D12,0,0,1
1082,36.0,-12.0,49.0,1644832859.125,P06,D12,0,0,1
1083,36.0,-12.0,49.0,1644832859.15625,P06,D12,0,0,1
1084,36.0,-12.0,49.0,1644832859.1875,P06,D12,0,0,1
1085,36.0,-12.0,49.0,1644832859.21875,P06,D12,0,0,1
1086,36.0,-12.0,49.0,1644832859.25,P06,D12,0,0,1
1087,36.0,-12.0,49.0,1644832859.28125,P06,D12,0,0,1
1088,36.0,-12.0,49.0,1644832859.3125,P06,D12,0,0,1
1089,36.0,-12.0,49.0,1644832859.34375,P06,D12,0,0,1
1090,36.0,-12.0,49.0,1644832859.375,P06,D12,0,0,1
1091,36.0,-12.0,49.0,1644832859.40625,P06,D12,0,0,1
1092,36.0,-12.0,49.0,1644832859.4375,P06,D12,0,0,1
1093,36.0,-12.0,49.0,1644832859.46875,P06,D12,0,0,1
1094,36.0,-12.0,49.0,1644832859.5,P06,D12,0,0,1
1095,36.0,-12.0,49.0,1644832859.53125,P06,D12,0,0,1
1096,36.0,-12.0,49.0,1644832859.5625,P06,D12,0,0,1
1097,36.0,-12.0,49.0,1644832859.59375,P06,D12,0,0,1
1098,36.0,-12.0,49.0,1644832859.625,P06,D12,0,0,1
1099,36.0,-12.0,49.0,1644832859.65625,P06,D12,0,0,1
1100,36.0,-12.0,49.0,1644832859.6875,P06,D12,0,0,1
1101,36.0,-12.0,49.0,1644832859.71875,P06,D12,0,0,1
1102,36.0,-12.0,49.0,1644832859.75,P06,D12,0,0,1
1103,36.0,-12.0,49.0,1644832859.78125,P06,D12,0,0,1
1104,36.0,-12.0,49.0,1644832859.8125,P06,D12,0,0,1
1105,36.0,-12.0,49.0,1644832859.84375,P06,D12,0,0,1
1106,36.0,-12.0,49.0,1644832859.875,P06,D12,0,0,1
1107,36.0,-12.0,49.0,1644832859.90625,P06,D12,0,0,1
1108,35.0,-12.0,49.0,1644832859.9375,P06,D12,0,0,1
1109,36.0,-12.0,49.0,1644832859.96875,P06,D12,0,0,1
1110,36.0,-12.0,49.0,1644832860.0,P06,D12,0,0,1
1111,36.0,-12.0,49.0,1644832860.03125,P06,D12,0,0,1
1112,36.0,-12.0,49.0,1644832860.0625,P06,D12,0,0,1
1113,36.0,-12.0,49.0,1644832860.09375,P06,D12,0,0,1
1114,36.0,-12.0,49.0,1644832860.125,P06,D12,0,0,1
1115,36.0,-12.0,49.0,1644832860.15625,P06,D12,0,0,1
1116,36.0,-12.0,49.0,1644832860.1875,P06,D12,0,0,1
1117,36.0,-12.0,49.0,1644832860.21875,P06,D12,0,0,1
1118,36.0,-12.0,49.0,1644832860.25,P06,D12,0,0,1
1119,36.0,-12.0,49.0,1644832860.28125,P06,D12,0,0,1
1120,36.0,-12.0,49.0,1644832860.3125,P06,D12,0,0,1
1121,36.0,-12.0,49.0,1644832860.34375,P06,D12,0,0,1
1122,36.0,-12.0,49.0,1644832860.375,P06,D12,0,0,1
1123,36.0,-12.0,49.0,1644832860.40625,P06,D12,0,0,1
1124,36.0,-12.0,49.0,1644832860.4375,P06,D12,0,0,1
1125,36.0,-12.0,49.0,1644832860.46875,P06,D12,0,0,1
1126,36.0,-12.0,49.0,1644832860.5,P06,D12,0,0,1
1127,36.0,-12.0,49.0,1644832860.53125,P06,D12,0,0,1
1128,36.0,-12.0,49.0,1644832860.5625,P06,D12,0,0,1
1129,36.0,-12.0,49.0,1644832860.59375,P06,D12,0,0,1
1130,36.0,-12.0,49.0,1644832860.625,P06,D12,0,0,1
1131,36.0,-12.0,49.0,1644832860.65625,P06,D12,0,0,1
1132,36.0,-12.0,49.0,1644832860.6875,P06,D12,0,0,1
1133,36.0,-12.0,49.0,1644832860.71875,P06,D12,0,0,1
1134,36.0,-11.0,49.0,1644832860.75,P06,D12,0,0,1
1135,36.0,-11.0,49.0,1644832860.78125,P06,D12,0,0,1
1136,36.0,-12.0,49.0,1644832860.8125,P06,D12,0,0,1
1137,36.0,-11.0,49.0,1644832860.84375,P06,D12,0,0,1
1138,36.0,-11.0,49.0,1644832860.875,P06,D12,0,0,1
1139,36.0,-11.0,49.0,1644832860.90625,P06,D12,0,0,1
1140,36.0,-12.0,49.0,1644832860.9375,P06,D12,0,0,1
1141,36.0,-12.0,49.0,1644832860.96875,P06,D12,0,0,1
1142,36.0,-12.0,49.0,1644832861.0,P06,D12,0,0,1
1143,36.0,-11.0,49.0,1644832861.03125,P06,D12,0,0,1
1144,36.0,-12.0,49.0,1644832861.0625,P06,D12,0,0,1
1145,36.0,-12.0,49.0,1644832861.09375,P06,D12,0,0,1
1146,36.0,-12.0,49.0,1644832861.125,P06,D12,0,0,1
1147,36.0,-11.0,49.0,1644832861.15625,P06,D12,0,0,1
1148,36.0,-12.0,49.0,1644832861.1875,P06,D12,0,0,1
1149,36.0,-12.0,49.0,1644832861.21875,P06,D12,0,0,1
1150,36.0,-12.0,49.0,1644832861.25,P06,D12,0,0,1
1151,36.0,-12.0,49.0,1644832861.28125,P06,D12,0,0,1
1152,36.0,-12.0,49.0,1644832861.3125,P06,D12,0,0,1
1153,36.0,-12.0,49.0,1644832861.34375,P06,D12,0,0,1
1154,36.0,-12.0,49.0,1644832861.375,P06,D12,0,0,1
1155,36.0,-12.0,49.0,1644832861.40625,P06,D12,0,0,1
1156,36.0,-12.0,49.0,1644832861.4375,P06,D12,0,0,1
1157,36.0,-12.0,49.0,1644832861.46875,P06,D12,0,0,1
1158,36.0,-12.0,49.0,1644832861.5,P06,D12,0,0,1
1159,36.0,-12.0,49.0,1644832861.53125,P06,D12,0,0,1
1160,36.0,-11.0,49.0,1644832861.5625,P06,D12,0,0,1
1161,36.0,-12.0,49.0,1644832861.59375,P06,D12,0,0,1
1162,36.0,-12.0,49.0,1644832861.625,P06,D12,0,0,1
1163,36.0,-12.0,49.0,1644832861.65625,P06,D12,0,0,1
1164,36.0,-12.0,49.0,1644832861.6875,P06,D12,0,0,1
1165,36.0,-12.0,49.0,1644832861.71875,P06,D12,0,0,1
1166,36.0,-12.0,49.0,1644832861.75,P06,D12,0,0,1
1167,36.0,-12.0,49.0,1644832861.78125,P06,D12,0,0,1
1168,36.0,-12.0,49.0,1644832861.8125,P06,D12,0,0,1
1169,36.0,-12.0,49.0,1644832861.84375,P06,D12,0,0,1
1170,36.0,-12.0,49.0,1644832861.875,P06,D12,0,0,1
1171,36.0,-12.0,49.0,1644832861.90625,P06,D12,0,0,1
1172,36.0,-12.0,49.0,1644832861.9375,P06,D12,0,0,1
1173,36.0,-12.0,49.0,1644832861.96875,P06,D12,0,0,1
1174,36.0,-11.0,49.0,1644832862.0,P06,D12,0,0,1
1175,36.0,-12.0,49.0,1644832862.03125,P06,D12,0,0,1
1176,35.0,-12.0,49.0,1644832862.0625,P06,D12,0,0,1
1177,36.0,-12.0,49.0,1644832862.09375,P06,D12,0,0,1
1178,36.0,-12.0,49.0,1644832862.125,P06,D12,0,0,1
1179,37.0,-11.0,49.0,1644832862.15625,P06,D12,0,0,1
1180,36.0,-12.0,49.0,1644832862.1875,P06,D12,0,0,1
1181,36.0,-12.0,49.0,1644832862.21875,P06,D12,0,0,1
1182,36.0,-12.0,49.0,1644832862.25,P06,D12,0,0,1
1183,36.0,-12.0,49.0,1644832862.28125,P06,D12,0,0,1
1184,37.0,-11.0,49.0,1644832862.3125,P06,D12,0,0,1
1185,37.0,-11.0,49.0,1644832862.34375,P06,D12,0,0,1
1186,36.0,-12.0,49.0,1644832862.375,P06,D12,0,0,1
1187,35.0,-12.0,49.0,1644832862.40625,P06,D12,0,0,1
1188,35.0,-12.0,49.0,1644832862.4375,P06,D12,0,0,1
1189,36.0,-11.0,49.0,1644832862.46875,P06,D12,0,0,1
1190,36.0,-12.0,49.0,1644832862.5,P06,D12,0,0,1
1191,36.0,-12.0,49.0,1644832862.53125,P06,D12,0,0,1
1192,36.0,-12.0,49.0,1644832862.5625,P06,D12,0,0,1
1193,36.0,-12.0,49.0,1644832862.59375,P06,D12,0,0,1
1194,36.0,-12.0,49.0,1644832862.625,P06,D12,0,0,1
1195,36.0,-12.0,49.0,1644832862.65625,P06,D12,0,0,1
1196,36.0,-12.0,49.0,1644832862.6875,P06,D12,0,0,1
1197,37.0,-12.0,49.0,1644832862.71875,P06,D12,0,0,1
1198,37.0,-11.0,49.0,1644832862.75,P06,D12,0,0,1
1199,36.0,-11.0,49.0,1644832862.78125,P06,D12,0,0,1
1200,35.0,-12.0,49.0,1644832862.8125,P06,D12,0,0,1
1201,36.0,-12.0,49.0,1644832862.84375,P06,D12,0,0,1
1202,37.0,-12.0,49.0,1644832862.875,P06,D12,0,0,1
1203,36.0,-12.0,49.0,1644832862.90625,P06,D12,0,0,1
1204,36.0,-12.0,49.0,1644832862.9375,P06,D12,0,0,1
1205,36.0,-12.0,49.0,1644832862.96875,P06,D12,0,0,1
1206,36.0,-12.0,49.0,1644832863.0,P06,D12,0,0,1
1207,36.0,-12.0,49.0,1644832863.03125,P06,D12,0,0,1
1208,36.0,-12.0,49.0,1644832863.0625,P06,D12,0,0,1
1209,36.0,-12.0,49.0,1644832863.09375,P06,D12,0,0,1
1210,36.0,-11.0,49.0,1644832863.125,P06,D12,0,0,1
1211,36.0,-11.0,49.0,1644832863.15625,P06,D12,0,0,1
1212,36.0,-12.0,49.0,1644832863.1875,P06,D12,0,0,1
1213,36.0,-12.0,49.0,1644832863.21875,P06,D12,0,0,1
1214,36.0,-12.0,49.0,1644832863.25,P06,D12,0,0,1
1215,36.0,-12.0,49.0,1644832863.28125,P06,D12,0,0,1
1216,36.0,-11.0,49.0,1644832863.3125,P06,D12,0,0,1
1217,36.0,-12.0,49.0,1644832863.34375,P06,D12,0,0,1
1218,36.0,-12.0,49.0,1644832863.375,P06,D12,0,0,1
1219,36.0,-12.0,49.0,1644832863.40625,P06,D12,0,0,1
1220,36.0,-12.0,49.0,1644832863.4375,P06,D12,0,0,1
1221,37.0,-12.0,49.0,1644832863.46875,P06,D12,0,0,1
1222,36.0,-12.0,49.0,1644832863.5,P06,D12,0,0,1
1223,36.0,-12.0,49.0,1644832863.53125,P06,D12,0,0,1
1224,37.0,-12.0,49.0,1644832863.5625,P06,D12,0,0,1
1225,36.0,-11.0,49.0,1644832863.59375,P06,D12,0,0,1
1226,36.0,-12.0,49.0,1644832863.625,P06,D12,0,0,1
1227,36.0,-11.0,49.0,1644832863.65625,P06,D12,0,0,1
1228,36.0,-12.0,49.0,1644832863.6875,P06,D12,0,0,1
1229,36.0,-12.0,49.0,1644832863.71875,P06,D12,0,0,1
1230,36.0,-11.0,49.0,1644832863.75,P06,D12,0,0,1
1231,36.0,-12.0,49.0,1644832863.78125,P06,D12,0,0,1
1232,36.0,-12.0,49.0,1644832863.8125,P06,D12,0,0,1
1233,36.0,-11.0,49.0,1644832863.84375,P06,D12,0,0,1
1234,36.0,-12.0,49.0,1644832863.875,P06,D12,0,0,1
1235,36.0,-11.0,49.0,1644832863.90625,P06,D12,0,0,1
1236,36.0,-12.0,49.0,1644832863.9375,P06,D12,0,0,1
1237,36.0,-12.0,49.0,1644832863.96875,P06,D12,0,0,1
1238,36.0,-12.0,49.0,1644832864.0,P06,D12,0,0,1
1239,36.0,-11.0,49.0,1644832864.03125,P06,D12,0,0,1
1240,36.0,-12.0,49.0,1644832864.0625,P06,D12,0,0,1
1241,36.0,-12.0,49.0,1644832864.09375,P06,D12,0,0,1
1242,36.0,-12.0,49.0,1644832864.125,P06,D12,0,0,1
1243,36.0,-12.0,49.0,1644832864.15625,P06,D12,0,0,1
1244,36.0,-12.0,49.0,1644832864.1875,P06,D12,0,0,1
1245,36.0,-12.0,49.0,1644832864.21875,P06,D12,0,0,1
1246,36.0,-12.0,49.0,1644832864.25,P06,D12,0,0,1
1247,36.0,-12.0,49.0,1644832864.28125,P06,D12,0,0,1
1248,36.0,-12.0,49.0,1644832864.3125,P06,D12,0,0,1
1249,36.0,-12.0,49.0,1644832864.34375,P06,D12,0,0,1
1250,36.0,-12.0,49.0,1644832864.375,P06,D12,0,0,1
1251,36.0,-12.0,49.0,1644832864.40625,P06,D12,0,0,1
1252,36.0,-12.0,49.0,1644832864.4375,P06,D12,0,0,1
1253,36.0,-12.0,49.0,1644832864.46875,P06,D12,0,0,1
1254,36.0,-12.0,49.0,1644832864.5,P06,D12,0,0,1
1255,36.0,-12.0,49.0,1644832864.53125,P06,D12,0,0,1
1256,36.0,-12.0,49.0,1644832864.5625,P06,D12,0,0,1
1257,36.0,-11.0,49.0,1644832864.59375,P06,D12,0,0,1
1258,36.0,-12.0,49.0,1644832864.625,P06,D12,0,0,1
1259,36.0,-12.0,49.0,1644832864.65625,P06,D12,0,0,1
1260,36.0,-12.0,49.0,1644832864.6875,P06,D12,0,0,1
1261,36.0,-12.0,49.0,1644832864.71875,P06,D12,0,0,1
1262,36.0,-12.0,49.0,1644832864.75,P06,D12,0,0,1
1263,36.0,-12.0,49.0,1644832864.78125,P06,D12,0,0,1
1264,36.0,-12.0,49.0,1644832864.8125,P06,D12,0,0,1
1265,36.0,-12.0,49.0,1644832864.84375,P06,D12,0,0,1
1266,36.0,-12.0,49.0,1644832864.875,P06,D12,0,0,1
1267,36.0,-11.0,49.0,1644832864.90625,P06,D12,0,0,1
1268,36.0,-12.0,49.0,1644832864.9375,P06,D12,0,0,1
1269,36.0,-12.0,49.0,1644832864.96875,P06,D12,0,0,1
1270,36.0,-12.0,49.0,1644832865.0,P06,D12,0,0,1
1271,36.0,-11.0,49.0,1644832865.03125,P06,D12,0,0,1
1272,36.0,-12.0,49.0,1644832865.0625,P06,D12,0,0,1
1273,36.0,-11.0,49.0,1644832865.09375,P06,D12,0,0,1
