,acc_x,acc_y,acc_z,timestamp,participant,document,val,arou,eng
0,21.0,-17.0,56.0,1644829863.125,P06,D01,1,1,1
1,21.0,-16.0,57.0,1644829863.15625,P06,D01,1,1,1
2,21.0,-17.0,57.0,1644829863.1875,P06,D01,1,1,1
3,20.0,-17.0,56.0,1644829863.21875,P06,D01,1,1,1
4,21.0,-17.0,56.0,1644829863.25,P06,D01,1,1,1
5,21.0,-17.0,56.0,1644829863.28125,P06,D01,1,1,1
6,21.0,-17.0,56.0,1644829863.3125,P06,D01,1,1,1
7,21.0,-17.0,56.0,1644829863.34375,P06,D01,1,1,1
8,21.0,-17.0,56.0,1644829863.375,P06,D01,1,1,1
9,21.0,-17.0,56.0,1644829863.40625,P06,D01,1,1,1
10,20.0,-17.0,56.0,1644829863.4375,P06,D01,1,1,1
11,20.0,-17.0,56.0,1644829863.46875,P06,D01,1,1,1
12,21.0,-17.0,56.0,1644829863.5,P06,D01,1,1,1
13,20.0,-17.0,56.0,1644829863.53125,P06,D01,1,1,1
14,20.0,-17.0,56.0,1644829863.5625,P06,D01,1,1,1
15,21.0,-17.0,56.0,1644829863.59375,P06,D01,1,1,1
16,21.0,-17.0,56.0,1644829863.625,P06,D01,1,1,1
17,21.0,-17.0,56.0,1644829863.65625,P06,D01,1,1,1
18,21.0,-17.0,56.0,1644829863.6875,P06,D01,1,1,1
19,20.0,-17.0,56.0,1644829863.71875,P06,D01,1,1,1
20,20.0,-17.0,56.0,1644829863.75,P06,D01,1,1,1
21,21.0,-17.0,56.0,1644829863.78125,P06,D01,1,1,1
22,21.0,-17.0,56.0,1644829863.8125,P06,D01,1,1,1
23,21.0,-17.0,56.0,1644829863.84375,P06,D01,1,1,1
24,21.0,-16.0,56.0,1644829863.875,P06,D01,1,1,1
25,21.0,-17.0,56.0,1644829863.90625,P06,D01,1,1,1
26,21.0,-17.0,56.0,1644829863.9375,P06,D01,1,1,1
27,21.0,-17.0,56.0,1644829863.96875,P06,D01,1,1,1
28,21.0,-17.0,56.0,1644829864.0,P06,D01,1,1,1
29,21.0,-17.0,56.0,1644829864.03125,P06,D01,1,1,1
30,20.0,-17.0,56.0,1644829864.0625,P06,D01,1,1,1
31,21.0,-16.0,56.0,1644829864.09375,P06,D01,1,1,1
32,21.0,-16.0,56.0,1644829864.125,P06,D01,1,1,1
33,21.0,-17.0,56.0,1644829864.15625,P06,D01,1,1,1
34,21.0,-17.0,56.0,1644829864.1875,P06,D01,1,1,1
35,21.0,-16.0,56.0,1644829864.21875,P06,D01,1,1,1
36,21.0,-16.0,56.0,1644829864.25,P06,D01,1,1,1
37,21.0,-17.0,56.0,1644829864.28125,P06,D01,1,1,1
38,21.0,-17.0,56.0,1644829864.3125,P06,D01,1,1,1
39,21.0,-17.0,56.0,1644829864.34375,P06,D01,1,1,1
40,21.0,-17.0,56.0,1644829864.375,P06,D01,1,1,1
41,21.0,-17.0,56.0,1644829864.40625,P06,D01,1,1,1
42,21.0,-17.0,57.0,1644829864.4375,P06,D01,1,1,1
43,21.0,-16.0,56.0,1644829864.46875,P06,D01,1,1,1
44,21.0,-16.0,56.0,1644829864.5,P06,D01,1,1,1
45,21.0,-17.0,56.0,1644829864.53125,P06,D01,1,1,1
46,21.0,-17.0,56.0,1644829864.5625,P06,D01,1,1,1
47,21.0,-16.0,56.0,1644829864.59375,P06,D01,1,1,1
48,21.0,-17.0,56.0,1644829864.625,P06,D01,1,1,1
49,21.0,-16.0,56.0,1644829864.65625,P06,D01,1,1,1
50,21.0,-16.0,56.0,1644829864.6875,P06,D01,1,1,1
51,21.0,-16.0,56.0,1644829864.71875,P06,D01,1,1,1
52,21.0,-16.0,56.0,1644829864.75,P06,D01,1,1,1
53,21.0,-16.0,56.0,1644829864.78125,P06,D01,1,1,1
54,21.0,-16.0,56.0,1644829864.8125,P06,D01,1,1,1
55,21.0,-16.0,56.0,1644829864.84375,P06,D01,1,1,1
56,21.0,-16.0,56.0,1644829864.875,P06,D01,1,1,1
57,21.0,-16.0,56.0,1644829864.90625,P06,D01,1,1,1
58,21.0,-16.0,56.0,1644829864.9375,P06,D01,1,1,1
59,21.0,-16.0,56.0,1644829864.96875,P06,D01,1,1,1
60,21.0,-16.0,56.0,1644829865.0,P06,D01,1,1,1
61,21.0,-16.0,56.0,1644829865.03125,P06,D01,1,1,1
62,21.0,-16.0,56.0,1644829865.0625,P06,D01,1,1,1
63,21.0,-16.0,56.0,1644829865.09375,P06,D01,1,1,1
64,21.0,-16.0,56.0,1644829865.125,P06,D01,1,1,1
65,21.0,-16.0,56.0,1644829865.15625,P06,D01,1,1,1
66,21.0,-17.0,56.0,1644829865.1875,P06,D01,1,1,1
67,21.0,-17.0,56.0,1644829865.21875,P06,D01,1,1,1
68,21.0,-16.0,56.0,1644829865.25,P06,D01,1,1,1
69,21.0,-17.0,56.0,1644829865.28125,P06,D01,1,1,1
70,21.0,-17.0,56.0,1644829865.3125,P06,D01,1,1,1
71,21.0,-16.0,56.0,1644829865.34375,P06,D01,1,1,1
72,21.0,-17.0,56.0,1644829865.375,P06,D01,1,1,1
73,21.0,-16.0,56.0,1644829865.40625,P06,D01,1,1,1
74,21.0,-16.0,56.0,1644829865.4375,P06,D01,1,1,1
75,21.0,-17.0,56.0,1644829865.46875,P06,D01,1,1,1
76,21.0,-17.0,56.0,1644829865.5,P06,D01,1,1,1
77,21.0,-17.0,56.0,1644829865.53125,P06,D01,1,1,1
78,21.0,-17.0,56.0,1644829865.5625,P06,D01,1,1,1
79,21.0,-17.0,56.0,1644829865.59375,P06,D01,1,1,1
80,21.0,-17.0,56.0,1644829865.625,P06,D01,1,1,1
81,21.0,-17.0,56.0,1644829865.65625,P06,D01,1,1,1
82,21.0,-17.0,57.0,1644829865.6875,P06,D01,1,1,1
83,20.0,-17.0,56.0,1644829865.71875,P06,D01,1,1,1
84,20.0,-17.0,56.0,1644829865.75,P06,D01,1,1,1
85,21.0,-17.0,56.0,1644829865.78125,P06,D01,1,1,1
86,21.0,-17.0,56.0,1644829865.8125,P06,D01,1,1,1
87,21.0,-17.0,56.0,1644829865.84375,P06,D01,1,1,1
88,21.0,-17.0,56.0,1644829865.875,P06,D01,1,1,1
89,21.0,-17.0,56.0,1644829865.90625,P06,D01,1,1,1
90,21.0,-17.0,56.0,1644829865.9375,P06,D01,1,1,1
91,21.0,-16.0,56.0,1644829865.96875,P06,D01,1,1,1
92,21.0,-17.0,56.0,1644829866.0,P06,D01,1,1,1
93,21.0,-16.0,56.0,1644829866.03125,P06,D01,1,1,1
94,21.0,-17.0,56.0,1644829866.0625,P06,D01,1,1,1
95,21.0,-17.0,56.0,1644829866.09375,P06,D01,1,1,1
96,21.0,-17.0,56.0,1644829866.125,P06,D01,1,1,1
97,21.0,-17.0,56.0,1644829866.15625,P06,D01,1,1,1
98,21.0,-17.0,56.0,1644829866.1875,P06,D01,1,1,1
99,21.0,-17.0,56.0,1644829866.21875,P06,D01,1,1,1
100,21.0,-17.0,56.0,1644829866.25,P06,D01,1,1,1
101,21.0,-16.0,56.0,1644829866.28125,P06,D01,1,1,1
102,21.0,-17.0,56.0,1644829866.3125,P06,D01,1,1,1
103,21.0,-17.0,56.0,1644829866.34375,P06,D01,1,1,1
104,21.0,-16.0,56.0,1644829866.375,P06,D01,1,1,1
105,21.0,-16.0,56.0,1644829866.40625,P06,D01,1,1,1
106,21.0,-17.0,56.0,1644829866.4375,P06,D01,1,1,1
107,21.0,-17.0,56.0,1644829866.46875,P06,D01,1,1,1
108,21.0,-16.0,56.0,1644829866.5,P06,D01,1,1,1
109,21.0,-17.0,56.0,1644829866.53125,P06,D01,1,1,1
110,21.0,-16.0,56.0,1644829866.5625,P06,D01,1,1,1
111,21.0,-16.0,57.0,1644829866.59375,P06,D01,1,1,1
112,21.0,-16.0,56.0,1644829866.625,P06,D01,1,1,1
113,21.0,-16.0,56.0,1644829866.65625,P06,D01,1,1,1
114,21.0,-17.0,56.0,1644829866.6875,P06,D01,1,1,1
115,21.0,-16.0,56.0,1644829866.71875,P06,D01,1,1,1
116,21.0,-16.0,56.0,1644829866.75,P06,D01,1,1,1
117,21.0,-16.0,56.0,1644829866.78125,P06,D01,1,1,1
118,21.0,-16.0,56.0,1644829866.8125,P06,D01,1,1,1
119,21.0,-16.0,56.0,1644829866.84375,P06,D01,1,1,1
120,21.0,-16.0,56.0,1644829866.875,P06,D01,1,1,1
121,21.0,-16.0,56.0,1644829866.90625,P06,D01,1,1,1
122,21.0,-16.0,57.0,1644829866.9375,P06,D01,1,1,1
123,21.0,-17.0,56.0,1644829866.96875,P06,D01,1,1,1
124,21.0,-16.0,56.0,1644829867.0,P06,D01,1,1,1
125,21.0,-17.0,56.0,1644829867.03125,P06,D01,1,1,1
126,21.0,-17.0,56.0,1644829867.0625,P06,D01,1,1,1
127,21.0,-16.0,56.0,1644829867.09375,P06,D01,1,1,1
128,21.0,-16.0,56.0,1644829867.125,P06,D01,1,1,1
129,21.0,-16.0,56.0,1644829867.15625,P06,D01,1,1,1
130,21.0,-16.0,56.0,1644829867.1875,P06,D01,1,1,1
131,21.0,-16.0,56.0,1644829867.21875,P06,D01,1,1,1
132,21.0,-16.0,56.0,1644829867.25,P06,D01,1,1,1
133,21.0,-16.0,56.0,1644829867.28125,P06,D01,1,1,1
134,21.0,-17.0,56.0,1644829867.3125,P06,D01,1,1,1
135,21.0,-16.0,56.0,1644829867.34375,P06,D01,1,1,1
136,21.0,-16.0,56.0,1644829867.375,P06,D01,1,1,1
137,21.0,-17.0,56.0,1644829867.40625,P06,D01,1,1,1
138,21.0,-16.0,56.0,1644829867.4375,P06,D01,1,1,1
139,21.0,-16.0,56.0,1644829867.46875,P06,D01,1,1,1
140,21.0,-16.0,56.0,1644829867.5,P06,D01,1,1,1
141,21.0,-16.0,56.0,1644829867.53125,P06,D01,1,1,1
142,21.0,-16.0,56.0,1644829867.5625,P06,D01,1,1,1
143,21.0,-16.0,56.0,1644829867.59375,P06,D01,1,1,1
144,21.0,-16.0,56.0,1644829867.625,P06,D01,1,1,1
145,21.0,-16.0,56.0,1644829867.65625,P06,D01,1,1,1
146,21.0,-16.0,56.0,1644829867.6875,P06,D01,1,1,1
147,21.0,-16.0,56.0,1644829867.71875,P06,D01,1,1,1
148,21.0,-16.0,56.0,1644829867.75,P06,D01,1,1,1
149,21.0,-17.0,56.0,1644829867.78125,P06,D01,1,1,1
150,21.0,-17.0,56.0,1644829867.8125,P06,D01,1,1,1
151,21.0,-17.0,56.0,1644829867.84375,P06,D01,1,1,1
152,21.0,-16.0,56.0,1644829867.875,P06,D01,1,1,1
153,21.0,-16.0,56.0,1644829867.90625,P06,D01,1,1,1
154,21.0,-17.0,56.0,1644829867.9375,P06,D01,1,1,1
155,21.0,-17.0,56.0,1644829867.96875,P06,D01,1,1,1
156,21.0,-17.0,56.0,1644829868.0,P06,D01,1,1,1
157,21.0,-17.0,56.0,1644829868.03125,P06,D01,1,1,1
158,21.0,-17.0,56.0,1644829868.0625,P06,D01,1,1,1
159,21.0,-17.0,56.0,1644829868.09375,P06,D01,1,1,1
160,20.0,-17.0,56.0,1644829868.125,P06,D01,1,1,1
161,20.0,-17.0,56.0,1644829868.15625,P06,D01,1,1,1
162,20.0,-17.0,56.0,1644829868.1875,P06,D01,1,1,1
163,21.0,-17.0,56.0,1644829868.21875,P06,D01,1,1,1
164,21.0,-17.0,56.0,1644829868.25,P06,D01,1,1,1
165,20.0,-17.0,56.0,1644829868.28125,P06,D01,1,1,1
166,20.0,-17.0,56.0,1644829868.3125,P06,D01,1,1,1
167,21.0,-17.0,56.0,1644829868.34375,P06,D01,1,1,1
168,21.0,-17.0,56.0,1644829868.375,P06,D01,1,1,1
169,20.0,-17.0,56.0,1644829868.40625,P06,D01,1,1,1
170,21.0,-17.0,56.0,1644829868.4375,P06,D01,1,1,1
171,21.0,-17.0,56.0,1644829868.46875,P06,D01,1,1,1
172,21.0,-17.0,56.0,1644829868.5,P06,D01,1,1,1
173,21.0,-17.0,56.0,1644829868.53125,P06,D01,1,1,1
174,21.0,-16.0,56.0,1644829868.5625,P06,D01,1,1,1
175,21.0,-16.0,56.0,1644829868.59375,P06,D01,1,1,1
176,21.0,-17.0,56.0,1644829868.625,P06,D01,1,1,1
177,21.0,-17.0,56.0,1644829868.65625,P06,D01,1,1,1
178,21.0,-17.0,56.0,1644829868.6875,P06,D01,1,1,1
179,21.0,-17.0,56.0,1644829868.71875,P06,D01,1,1,1
180,21.0,-17.0,56.0,1644829868.75,P06,D01,1,1,1
181,21.0,-16.0,56.0,1644829868.78125,P06,D01,1,1,1
182,21.0,-17.0,56.0,1644829868.8125,P06,D01,1,1,1
183,21.0,-16.0,56.0,1644829868.84375,P06,D01,1,1,1
184,21.0,-16.0,56.0,1644829868.875,P06,D01,1,1,1
185,21.0,-17.0,56.0,1644829868.90625,P06,D01,1,1,1
186,21.0,-16.0,56.0,1644829868.9375,P06,D01,1,1,1
187,21.0,-17.0,56.0,1644829868.96875,P06,D01,1,1,1
188,21.0,-17.0,56.0,1644829869.0,P06,D01,1,1,1
189,21.0,-17.0,56.0,1644829869.03125,P06,D01,1,1,1
190,21.0,-16.0,56.0,1644829869.0625,P06,D01,1,1,1
191,21.0,-17.0,56.0,1644829869.09375,P06,D01,1,1,1
192,21.0,-17.0,56.0,1644829869.125,P06,D01,1,1,1
193,21.0,-17.0,56.0,1644829869.15625,P06,D01,1,1,1
194,21.0,-16.0,56.0,1644829869.1875,P06,D01,1,1,1
195,21.0,-16.0,56.0,1644829869.21875,P06,D01,1,1,1
196,21.0,-17.0,56.0,1644829869.25,P06,D01,1,1,1
197,21.0,-17.0,56.0,1644829869.28125,P06,D01,1,1,1
198,21.0,-17.0,56.0,1644829869.3125,P06,D01,1,1,1
199,21.0,-17.0,56.0,1644829869.34375,P06,D01,1,1,1
200,21.0,-16.0,56.0,1644829869.375,P06,D01,1,1,1
201,22.0,-15.0,57.0,1644829869.40625,P06,D01,1,1,1
202,21.0,-16.0,57.0,1644829869.4375,P06,D01,1,1,1
203,21.0,-17.0,56.0,1644829869.46875,P06,D01,1,1,1
204,21.0,-17.0,56.0,1644829869.5,P06,D01,1,1,1
205,21.0,-16.0,56.0,1644829869.53125,P06,D01,1,1,1
206,21.0,-16.0,56.0,1644829869.5625,P06,D01,1,1,1
207,21.0,-16.0,56.0,1644829869.59375,P06,D01,1,1,1
208,21.0,-16.0,56.0,1644829869.625,P06,D01,1,1,1
209,21.0,-16.0,56.0,1644829869.65625,P06,D01,1,1,1
210,21.0,-16.0,56.0,1644829869.6875,P06,D01,1,1,1
211,21.0,-16.0,56.0,1644829869.71875,P06,D01,1,1,1
212,21.0,-16.0,56.0,1644829869.75,P06,D01,1,1,1
213,20.0,-16.0,56.0,1644829869.78125,P06,D01,1,1,1
214,22.0,-16.0,56.0,1644829869.8125,P06,D01,1,1,1
215,22.0,-16.0,57.0,1644829869.84375,P06,D01,1,1,1
216,21.0,-16.0,56.0,1644829869.875,P06,D01,1,1,1
217,21.0,-16.0,56.0,1644829869.90625,P06,D01,1,1,1
218,21.0,-17.0,56.0,1644829869.9375,P06,D01,1,1,1
219,21.0,-16.0,56.0,1644829869.96875,P06,D01,1,1,1
220,21.0,-16.0,56.0,1644829870.0,P06,D01,1,1,1
221,21.0,-16.0,56.0,1644829870.03125,P06,D01,1,1,1
222,21.0,-16.0,56.0,1644829870.0625,P06,D01,1,1,1
223,21.0,-16.0,56.0,1644829870.09375,P06,D01,1,1,1
224,21.0,-16.0,56.0,1644829870.125,P06,D01,1,1,1
225,21.0,-16.0,56.0,1644829870.15625,P06,D01,1,1,1
226,21.0,-16.0,56.0,1644829870.1875,P06,D01,1,1,1
227,21.0,-16.0,57.0,1644829870.21875,P06,D01,1,1,1
228,21.0,-16.0,56.0,1644829870.25,P06,D01,1,1,1
229,21.0,-16.0,56.0,1644829870.28125,P06,D01,1,1,1
230,21.0,-16.0,56.0,1644829870.3125,P06,D01,1,1,1
231,21.0,-17.0,56.0,1644829870.34375,P06,D01,1,1,1
232,21.0,-16.0,56.0,1644829870.375,P06,D01,1,1,1
233,21.0,-16.0,56.0,1644829870.40625,P06,D01,1,1,1
234,21.0,-16.0,56.0,1644829870.4375,P06,D01,1,1,1
235,21.0,-16.0,56.0,1644829870.46875,P06,D01,1,1,1
236,21.0,-17.0,56.0,1644829870.5,P06,D01,1,1,1
237,21.0,-16.0,56.0,1644829870.53125,P06,D01,1,1,1
238,21.0,-16.0,56.0,1644829870.5625,P06,D01,1,1,1
239,21.0,-17.0,56.0,1644829870.59375,P06,D01,1,1,1
240,21.0,-16.0,56.0,1644829870.625,P06,D01,1,1,1
241,21.0,-17.0,56.0,1644829870.65625,P06,D01,1,1,1
242,21.0,-17.0,56.0,1644829870.6875,P06,D01,1,1,1
243,21.0,-17.0,56.0,1644829870.71875,P06,D01,1,1,1
244,21.0,-17.0,55.0,1644829870.75,P06,D01,1,1,1
245,21.0,-17.0,56.0,1644829870.78125,P06,D01,1,1,1
246,20.0,-16.0,56.0,1644829870.8125,P06,D01,1,1,1
247,21.0,-17.0,56.0,1644829870.84375,P06,D01,1,1,1
248,21.0,-17.0,56.0,1644829870.875,P06,D01,1,1,1
249,21.0,-17.0,56.0,1644829870.90625,P06,D01,1,1,1
250,21.0,-17.0,56.0,1644829870.9375,P06,D01,1,1,1
251,21.0,-16.0,56.0,1644829870.96875,P06,D01,1,1,1
252,21.0,-17.0,56.0,1644829871.0,P06,D01,1,1,1
253,21.0,-16.0,56.0,1644829871.03125,P06,D01,1,1,1
254,21.0,-16.0,56.0,1644829871.0625,P06,D01,1,1,1
255,22.0,-16.0,56.0,1644829871.09375,P06,D01,1,1,1
256,22.0,-16.0,56.0,1644829871.125,P06,D01,1,1,1
257,21.0,-16.0,55.0,1644829871.15625,P06,D01,1,1,1
258,21.0,-16.0,56.0,1644829871.1875,P06,D01,1,1,1
259,21.0,-16.0,56.0,1644829871.21875,P06,D01,1,1,1
260,21.0,-16.0,56.0,1644829871.25,P06,D01,1,1,1
261,21.0,-17.0,56.0,1644829871.28125,P06,D01,1,1,1
262,21.0,-17.0,56.0,1644829871.3125,P06,D01,1,1,1
263,21.0,-16.0,56.0,1644829871.34375,P06,D01,1,1,1
264,21.0,-16.0,56.0,1644829871.375,P06,D01,1,1,1
265,21.0,-16.0,56.0,1644829871.40625,P06,D01,1,1,1
266,21.0,-16.0,56.0,1644829871.4375,P06,D01,1,1,1
267,21.0,-16.0,56.0,1644829871.46875,P06,D01,1,1,1
268,21.0,-16.0,56.0,1644829871.5,P06,D01,1,1,1
269,21.0,-16.0,56.0,1644829871.53125,P06,D01,1,1,1
270,21.0,-16.0,56.0,1644829871.5625,P06,D01,1,1,1
271,21.0,-16.0,56.0,1644829871.59375,P06,D01,1,1,1
272,21.0,-16.0,56.0,1644829871.625,P06,D01,1,1,1
273,21.0,-16.0,56.0,1644829871.65625,P06,D01,1,1,1
274,21.0,-16.0,56.0,1644829871.6875,P06,D01,1,1,1
275,21.0,-17.0,56.0,1644829871.71875,P06,D01,1,1,1
276,21.0,-16.0,56.0,1644829871.75,P06,D01,1,1,1
277,21.0,-16.0,56.0,1644829871.78125,P06,D01,1,1,1
278,21.0,-16.0,56.0,1644829871.8125,P06,D01,1,1,1
279,21.0,-16.0,56.0,1644829871.84375,P06,D01,1,1,1
280,21.0,-16.0,56.0,1644829871.875,P06,D01,1,1,1
281,21.0,-16.0,56.0,1644829871.90625,P06,D01,1,1,1
282,22.0,-16.0,56.0,1644829871.9375,P06,D01,1,1,1
283,21.0,-16.0,56.0,1644829871.96875,P06,D01,1,1,1
284,21.0,-16.0,56.0,1644829872.0,P06,D01,1,1,1
285,21.0,-16.0,56.0,1644829872.03125,P06,D01,1,1,1
286,21.0,-16.0,56.0,1644829872.0625,P06,D01,1,1,1
287,21.0,-16.0,56.0,1644829872.09375,P06,D01,1,1,1
288,22.0,-16.0,56.0,1644829872.125,P06,D01,1,1,1
289,22.0,-16.0,56.0,1644829872.15625,P06,D01,1,1,1
290,21.0,-16.0,56.0,1644829872.1875,P06,D01,1,1,1
291,21.0,-16.0,56.0,1644829872.21875,P06,D01,1,1,1
292,22.0,-16.0,56.0,1644829872.25,P06,D01,1,1,1
293,21.0,-16.0,56.0,1644829872.28125,P06,D01,1,1,1
294,22.0,-16.0,56.0,1644829872.3125,P06,D01,1,1,1
295,21.0,-16.0,56.0,1644829872.34375,P06,D01,1,1,1
296,21.0,-16.0,56.0,1644829872.375,P06,D01,1,1,1
297,21.0,-16.0,56.0,1644829872.40625,P06,D01,1,1,1
298,21.0,-16.0,56.0,1644829872.4375,P06,D01,1,1,1
299,21.0,-16.0,56.0,1644829872.46875,P06,D01,1,1,1
300,21.0,-16.0,56.0,1644829872.5,P06,D01,1,1,1
301,21.0,-16.0,56.0,1644829872.53125,P06,D01,1,1,1
302,21.0,-16.0,56.0,1644829872.5625,P06,D01,1,1,1
303,21.0,-16.0,56.0,1644829872.59375,P06,D01,1,1,1
304,21.0,-16.0,56.0,1644829872.625,P06,D01,1,1,1
305,21.0,-16.0,56.0,1644829872.65625,P06,D01,1,1,1
306,21.0,-16.0,56.0,1644829872.6875,P06,D01,1,1,1
307,21.0,-16.0,56.0,1644829872.71875,P06,D01,1,1,1
308,21.0,-16.0,56.0,1644829872.75,P06,D01,1,1,1
309,21.0,-16.0,56.0,1644829872.78125,P06,D01,1,1,1
310,21.0,-16.0,56.0,1644829872.8125,P06,D01,1,1,1
311,21.0,-16.0,56.0,1644829872.84375,P06,D01,1,1,1
312,22.0,-16.0,56.0,1644829872.875,P06,D01,1,1,1
313,21.0,-16.0,56.0,1644829872.90625,P06,D01,1,1,1
314,21.0,-16.0,56.0,1644829872.9375,P06,D01,1,1,1
315,21.0,-16.0,56.0,1644829872.96875,P06,D01,1,1,1
316,22.0,-16.0,56.0,1644829873.0,P06,D01,1,1,1
317,21.0,-16.0,56.0,1644829873.03125,P06,D01,1,1,1
318,21.0,-17.0,56.0,1644829873.0625,P06,D01,1,1,1
319,21.0,-16.0,56.0,1644829873.09375,P06,D01,1,1,1
320,21.0,-17.0,56.0,1644829873.125,P06,D01,1,1,1
321,21.0,-16.0,56.0,1644829873.15625,P06,D01,1,1,1
322,21.0,-16.0,56.0,1644829873.1875,P06,D01,1,1,1
323,21.0,-17.0,56.0,1644829873.21875,P06,D01,1,1,1
324,21.0,-17.0,56.0,1644829873.25,P06,D01,1,1,1
325,21.0,-17.0,56.0,1644829873.28125,P06,D01,1,1,1
326,21.0,-16.0,56.0,1644829873.3125,P06,D01,1,1,1
327,21.0,-16.0,56.0,1644829873.34375,P06,D01,1,1,1
328,21.0,-16.0,56.0,1644829873.375,P06,D01,1,1,1
329,21.0,-17.0,56.0,1644829873.40625,P06,D01,1,1,1
330,21.0,-17.0,56.0,1644829873.4375,P06,D01,1,1,1
331,22.0,-17.0,56.0,1644829873.46875,P06,D01,1,1,1
332,21.0,-16.0,56.0,1644829873.5,P06,D01,1,1,1
333,21.0,-17.0,56.0,1644829873.53125,P06,D01,1,1,1
334,21.0,-17.0,56.0,1644829873.5625,P06,D01,1,1,1
335,21.0,-16.0,56.0,1644829873.59375,P06,D01,1,1,1
336,21.0,-16.0,56.0,1644829873.625,P06,D01,1,1,1
337,21.0,-16.0,56.0,1644829873.65625,P06,D01,1,1,1
338,21.0,-16.0,56.0,1644829873.6875,P06,D01,1,1,1
339,21.0,-16.0,56.0,1644829873.71875,P06,D01,1,1,1
340,21.0,-16.0,56.0,1644829873.75,P06,D01,1,1,1
341,21.0,-16.0,56.0,1644829873.78125,P06,D01,1,1,1
342,21.0,-16.0,56.0,1644829873.8125,P06,D01,1,1,1
343,21.0,-16.0,56.0,1644829873.84375,P06,D01,1,1,1
344,21.0,-16.0,56.0,1644829873.875,P06,D01,1,1,1
345,21.0,-16.0,56.0,1644829873.90625,P06,D01,1,1,1
346,21.0,-16.0,56.0,1644829873.9375,P06,D01,1,1,1
347,21.0,-16.0,56.0,1644829873.96875,P06,D01,1,1,1
348,21.0,-16.0,56.0,1644829874.0,P06,D01,1,1,1
349,21.0,-16.0,56.0,1644829874.03125,P06,D01,1,1,1
350,21.0,-16.0,56.0,1644829874.0625,P06,D01,1,1,1
351,21.0,-16.0,56.0,1644829874.09375,P06,D01,1,1,1
352,21.0,-16.0,56.0,1644829874.125,P06,D01,1,1,1
353,22.0,-16.0,56.0,1644829874.15625,P06,D01,1,1,1
354,21.0,-16.0,56.0,1644829874.1875,P06,D01,1,1,1
355,21.0,-16.0,56.0,1644829874.21875,P06,D01,1,1,1
356,21.0,-16.0,56.0,1644829874.25,P06,D01,1,1,1
357,22.0,-16.0,56.0,1644829874.28125,P06,D01,1,1,1
358,21.0,-16.0,56.0,1644829874.3125,P06,D01,1,1,1
359,21.0,-16.0,56.0,1644829874.34375,P06,D01,1,1,1
360,21.0,-16.0,56.0,1644829874.375,P06,D01,1,1,1
361,21.0,-16.0,56.0,1644829874.40625,P06,D01,1,1,1
362,21.0,-16.0,56.0,1644829874.4375,P06,D01,1,1,1
363,21.0,-16.0,56.0,1644829874.46875,P06,D01,1,1,1
364,21.0,-16.0,56.0,1644829874.5,P06,D01,1,1,1
365,21.0,-16.0,56.0,1644829874.53125,P06,D01,1,1,1
366,21.0,-16.0,56.0,1644829874.5625,P06,D01,1,1,1
367,21.0,-17.0,56.0,1644829874.59375,P06,D01,1,1,1
368,21.0,-17.0,56.0,1644829874.625,P06,D01,1,1,1
369,21.0,-17.0,56.0,1644829874.65625,P06,D01,1,1,1
370,21.0,-17.0,56.0,1644829874.6875,P06,D01,1,1,1
371,21.0,-17.0,56.0,1644829874.71875,P06,D01,1,1,1
372,21.0,-17.0,56.0,1644829874.75,P06,D01,1,1,1
373,21.0,-17.0,56.0,1644829874.78125,P06,D01,1,1,1
374,21.0,-17.0,56.0,1644829874.8125,P06,D01,1,1,1
375,21.0,-17.0,56.0,1644829874.84375,P06,D01,1,1,1
376,21.0,-17.0,56.0,1644829874.875,P06,D01,1,1,1
377,21.0,-17.0,56.0,1644829874.90625,P06,D01,1,1,1
378,21.0,-16.0,56.0,1644829874.9375,P06,D01,1,1,1
379,21.0,-17.0,56.0,1644829874.96875,P06,D01,1,1,1
380,21.0,-17.0,56.0,1644829875.0,P06,D01,1,1,1
381,21.0,-17.0,56.0,1644829875.03125,P06,D01,1,1,1
382,21.0,-16.0,56.0,1644829875.0625,P06,D01,1,1,1
383,21.0,-16.0,56.0,1644829875.09375,P06,D01,1,1,1
384,21.0,-17.0,56.0,1644829875.125,P06,D01,1,1,1
385,21.0,-16.0,56.0,1644829875.15625,P06,D01,1,1,1
386,21.0,-16.0,56.0,1644829875.1875,P06,D01,1,1,1
387,21.0,-16.0,56.0,1644829875.21875,P06,D01,1,1,1
388,21.0,-16.0,56.0,1644829875.25,P06,D01,1,1,1
389,21.0,-16.0,56.0,1644829875.28125,P06,D01,1,1,1
390,21.0,-16.0,56.0,1644829875.3125,P06,D01,1,1,1
391,21.0,-17.0,56.0,1644829875.34375,P06,D01,1,1,1
392,21.0,-16.0,56.0,1644829875.375,P06,D01,1,1,1
393,21.0,-16.0,56.0,1644829875.40625,P06,D01,1,1,1
394,21.0,-16.0,56.0,1644829875.4375,P06,D01,1,1,1
395,21.0,-16.0,56.0,1644829875.46875,P06,D01,1,1,1
396,21.0,-16.0,56.0,1644829875.5,P06,D01,1,1,1
397,21.0,-16.0,56.0,1644829875.53125,P06,D01,1,1,1
398,21.0,-16.0,56.0,1644829875.5625,P06,D01,1,1,1
399,21.0,-16.0,56.0,1644829875.59375,P06,D01,1,1,1
400,21.0,-16.0,56.0,1644829875.625,P06,D01,1,1,1
401,21.0,-16.0,56.0,1644829875.65625,P06,D01,1,1,1
402,21.0,-16.0,56.0,1644829875.6875,P06,D01,1,1,1
403,21.0,-16.0,56.0,1644829875.71875,P06,D01,1,1,1
404,21.0,-16.0,56.0,1644829875.75,P06,D01,1,1,1
405,21.0,-16.0,56.0,1644829875.78125,P06,D01,1,1,1
406,21.0,-16.0,56.0,1644829875.8125,P06,D01,1,1,1
407,21.0,-16.0,56.0,1644829875.84375,P06,D01,1,1,1
408,21.0,-16.0,56.0,1644829875.875,P06,D01,1,1,1
409,21.0,-16.0,56.0,1644829875.90625,P06,D01,1,1,1
410,21.0,-16.0,56.0,1644829875.9375,P06,D01,1,1,1
411,22.0,-16.0,56.0,1644829875.96875,P06,D01,1,1,1
412,22.0,-16.0,56.0,1644829876.0,P06,D01,1,1,1
413,22.0,-16.0,56.0,1644829876.03125,P06,D01,1,1,1
414,21.0,-16.0,56.0,1644829876.0625,P06,D01,1,1,1
415,21.0,-16.0,56.0,1644829876.09375,P06,D01,1,1,1
416,21.0,-16.0,56.0,1644829876.125,P06,D01,1,1,1
417,21.0,-16.0,56.0,1644829876.15625,P06,D01,1,1,1
418,21.0,-16.0,56.0,1644829876.1875,P06,D01,1,1,1
419,21.0,-16.0,56.0,1644829876.21875,P06,D01,1,1,1
420,21.0,-16.0,56.0,1644829876.25,P06,D01,1,1,1
421,21.0,-16.0,56.0,1644829876.28125,P06,D01,1,1,1
422,21.0,-16.0,56.0,1644829876.3125,P06,D01,1,1,1
423,22.0,-16.0,56.0,1644829876.34375,P06,D01,1,1,1
424,21.0,-16.0,56.0,1644829876.375,P06,D01,1,1,1
425,21.0,-16.0,56.0,1644829876.40625,P06,D01,1,1,1
426,21.0,-16.0,56.0,1644829876.4375,P06,D01,1,1,1
427,21.0,-16.0,56.0,1644829876.46875,P06,D01,1,1,1
428,22.0,-16.0,56.0,1644829876.5,P06,D01,1,1,1
429,22.0,-16.0,56.0,1644829876.53125,P06,D01,1,1,1
430,21.0,-16.0,56.0,1644829876.5625,P06,D01,1,1,1
431,22.0,-16.0,56.0,1644829876.59375,P06,D01,1,1,1
432,22.0,-16.0,56.0,1644829876.625,P06,D01,1,1,1
433,22.0,-16.0,56.0,1644829876.65625,P06,D01,1,1,1
434,22.0,-16.0,56.0,1644829876.6875,P06,D01,1,1,1
435,21.0,-16.0,56.0,1644829876.71875,P06,D01,1,1,1
436,21.0,-16.0,56.0,1644829876.75,P06,D01,1,1,1
437,22.0,-16.0,56.0,1644829876.78125,P06,D01,1,1,1
438,21.0,-16.0,56.0,1644829876.8125,P06,D01,1,1,1
439,22.0,-16.0,56.0,1644829876.84375,P06,D01,1,1,1
440,21.0,-16.0,56.0,1644829876.875,P06,D01,1,1,1
441,21.0,-16.0,56.0,1644829876.90625,P06,D01,1,1,1
442,21.0,-16.0,56.0,1644829876.9375,P06,D01,1,1,1
443,21.0,-16.0,56.0,1644829876.96875,P06,D01,1,1,1
444,21.0,-16.0,56.0,1644829877.0,P06,D01,1,1,1
445,21.0,-16.0,56.0,1644829877.03125,P06,D01,1,1,1
446,21.0,-17.0,56.0,1644829877.0625,P06,D01,1,1,1
447,21.0,-16.0,56.0,1644829877.09375,P06,D01,1,1,1
448,21.0,-16.0,56.0,1644829877.125,P06,D01,1,1,1
449,21.0,-16.0,56.0,1644829877.15625,P06,D01,1,1,1
450,21.0,-17.0,56.0,1644829877.1875,P06,D01,1,1,1
451,21.0,-16.0,56.0,1644829877.21875,P06,D01,1,1,1
452,21.0,-16.0,56.0,1644829877.25,P06,D01,1,1,1
453,21.0,-17.0,56.0,1644829877.28125,P06,D01,1,1,1
454,21.0,-17.0,56.0,1644829877.3125,P06,D01,1,1,1
455,21.0,-17.0,56.0,1644829877.34375,P06,D01,1,1,1
456,21.0,-17.0,56.0,1644829877.375,P06,D01,1,1,1
457,21.0,-17.0,56.0,1644829877.40625,P06,D01,1,1,1
458,21.0,-17.0,56.0,1644829877.4375,P06,D01,1,1,1
459,21.0,-17.0,56.0,1644829877.46875,P06,D01,1,1,1
460,21.0,-16.0,56.0,1644829877.5,P06,D01,1,1,1
461,21.0,-16.0,56.0,1644829877.53125,P06,D01,1,1,1
462,21.0,-16.0,56.0,1644829877.5625,P06,D01,1,1,1
463,21.0,-17.0,56.0,1644829877.59375,P06,D01,1,1,1
464,21.0,-16.0,56.0,1644829877.625,P06,D01,1,1,1
465,21.0,-16.0,56.0,1644829877.65625,P06,D01,1,1,1
466,22.0,-16.0,56.0,1644829877.6875,P06,D01,1,1,1
467,21.0,-16.0,56.0,1644829877.71875,P06,D01,1,1,1
468,21.0,-16.0,56.0,1644829877.75,P06,D01,1,1,1
469,22.0,-16.0,56.0,1644829877.78125,P06,D01,1,1,1
470,21.0,-16.0,56.0,1644829877.8125,P06,D01,1,1,1
471,21.0,-16.0,56.0,1644829877.84375,P06,D01,1,1,1
472,21.0,-16.0,56.0,1644829877.875,P06,D01,1,1,1
473,21.0,-16.0,56.0,1644829877.90625,P06,D01,1,1,1
474,21.0,-17.0,56.0,1644829877.9375,P06,D01,1,1,1
475,21.0,-16.0,56.0,1644829877.96875,P06,D01,1,1,1
476,21.0,-16.0,56.0,1644829878.0,P06,D01,1,1,1
477,21.0,-16.0,56.0,1644829878.03125,P06,D01,1,1,1
478,21.0,-16.0,56.0,1644829878.0625,P06,D01,1,1,1
479,21.0,-16.0,56.0,1644829878.09375,P06,D01,1,1,1
480,21.0,-16.0,56.0,1644829878.125,P06,D01,1,1,1
481,21.0,-16.0,56.0,1644829878.15625,P06,D01,1,1,1
482,21.0,-16.0,56.0,1644829878.1875,P06,D01,1,1,1
483,21.0,-16.0,56.0,1644829878.21875,P06,D01,1,1,1
484,21.0,-16.0,56.0,1644829878.25,P06,D01,1,1,1
485,21.0,-16.0,56.0,1644829878.28125,P06,D01,1,1,1
486,21.0,-16.0,56.0,1644829878.3125,P06,D01,1,1,1
487,22.0,-16.0,56.0,1644829878.34375,P06,D01,1,1,1
488,22.0,-16.0,56.0,1644829878.375,P06,D01,1,1,1
489,21.0,-17.0,56.0,1644829878.40625,P06,D01,1,1,1
490,21.0,-17.0,56.0,1644829878.4375,P06,D01,1,1,1
491,21.0,-16.0,56.0,1644829878.46875,P06,D01,1,1,1
492,21.0,-16.0,56.0,1644829878.5,P06,D01,1,1,1
493,22.0,-16.0,56.0,1644829878.53125,P06,D01,1,1,1
494,21.0,-16.0,56.0,1644829878.5625,P06,D01,1,1,1
495,22.0,-16.0,56.0,1644829878.59375,P06,D01,1,1,1
496,21.0,-16.0,56.0,1644829878.625,P06,D01,1,1,1
497,22.0,-16.0,56.0,1644829878.65625,P06,D01,1,1,1
498,21.0,-16.0,56.0,1644829878.6875,P06,D01,1,1,1
499,21.0,-16.0,56.0,1644829878.71875,P06,D01,1,1,1
500,21.0,-16.0,56.0,1644829878.75,P06,D01,1,1,1
501,21.0,-16.0,56.0,1644829878.78125,P06,D01,1,1,1
502,21.0,-16.0,56.0,1644829878.8125,P06,D01,1,1,1
503,21.0,-16.0,56.0,1644829878.84375,P06,D01,1,1,1
504,21.0,-16.0,56.0,1644829878.875,P06,D01,1,1,1
505,21.0,-16.0,56.0,1644829878.90625,P06,D01,1,1,1
506,21.0,-16.0,56.0,1644829878.9375,P06,D01,1,1,1
507,21.0,-16.0,56.0,1644829878.96875,P06,D01,1,1,1
508,22.0,-16.0,56.0,1644829879.0,P06,D01,1,1,1
509,21.0,-16.0,56.0,1644829879.03125,P06,D01,1,1,1
510,21.0,-16.0,56.0,1644829879.0625,P06,D01,1,1,1
511,21.0,-16.0,56.0,1644829879.09375,P06,D01,1,1,1
512,22.0,-15.0,56.0,1644829879.125,P06,D01,1,1,1
513,23.0,-15.0,56.0,1644829879.15625,P06,D01,1,1,1
514,22.0,-16.0,56.0,1644829879.1875,P06,D01,1,1,1
515,21.0,-16.0,56.0,1644829879.21875,P06,D01,1,1,1
516,21.0,-17.0,56.0,1644829879.25,P06,D01,1,1,1
517,21.0,-16.0,56.0,1644829879.28125,P06,D01,1,1,1
518,21.0,-16.0,56.0,1644829879.3125,P06,D01,1,1,1
519,21.0,-16.0,56.0,1644829879.34375,P06,D01,1,1,1
520,21.0,-16.0,56.0,1644829879.375,P06,D01,1,1,1
521,21.0,-16.0,56.0,1644829879.40625,P06,D01,1,1,1
522,22.0,-16.0,56.0,1644829879.4375,P06,D01,1,1,1
523,22.0,-16.0,56.0,1644829879.46875,P06,D01,1,1,1
524,21.0,-16.0,56.0,1644829879.5,P06,D01,1,1,1
525,21.0,-17.0,56.0,1644829879.53125,P06,D01,1,1,1
526,21.0,-16.0,56.0,1644829879.5625,P06,D01,1,1,1
527,21.0,-16.0,56.0,1644829879.59375,P06,D01,1,1,1
528,21.0,-17.0,56.0,1644829879.625,P06,D01,1,1,1
529,21.0,-16.0,56.0,1644829879.65625,P06,D01,1,1,1
530,21.0,-16.0,56.0,1644829879.6875,P06,D01,1,1,1
531,21.0,-16.0,56.0,1644829879.71875,P06,D01,1,1,1
532,21.0,-16.0,56.0,1644829879.75,P06,D01,1,1,1
533,21.0,-16.0,56.0,1644829879.78125,P06,D01,1,1,1
534,21.0,-16.0,56.0,1644829879.8125,P06,D01,1,1,1
535,21.0,-16.0,56.0,1644829879.84375,P06,D01,1,1,1
536,21.0,-16.0,56.0,1644829879.875,P06,D01,1,1,1
537,21.0,-16.0,56.0,1644829879.90625,P06,D01,1,1,1
538,21.0,-16.0,56.0,1644829879.9375,P06,D01,1,1,1
539,21.0,-16.0,56.0,1644829879.96875,P06,D01,1,1,1
540,21.0,-16.0,56.0,1644829880.0,P06,D01,1,1,1
541,21.0,-16.0,56.0,1644829880.03125,P06,D01,1,1,1
542,21.0,-16.0,56.0,1644829880.0625,P06,D01,1,1,1
543,21.0,-16.0,56.0,1644829880.09375,P06,D01,1,1,1
544,21.0,-16.0,56.0,1644829880.125,P06,D01,1,1,1
545,21.0,-16.0,56.0,1644829880.15625,P06,D01,1,1,1
546,21.0,-16.0,56.0,1644829880.1875,P06,D01,1,1,1
547,21.0,-16.0,56.0,1644829880.21875,P06,D01,1,1,1
548,22.0,-16.0,56.0,1644829880.25,P06,D01,1,1,1
549,21.0,-16.0,56.0,1644829880.28125,P06,D01,1,1,1
550,20.0,-16.0,56.0,1644829880.3125,P06,D01,1,1,1
551,21.0,-16.0,56.0,1644829880.34375,P06,D01,1,1,1
552,21.0,-16.0,56.0,1644829880.375,P06,D01,1,1,1
553,21.0,-16.0,56.0,1644829880.40625,P06,D01,1,1,1
554,21.0,-16.0,57.0,1644829880.4375,P06,D01,1,1,1
555,21.0,-16.0,56.0,1644829880.46875,P06,D01,1,1,1
556,21.0,-16.0,56.0,1644829880.5,P06,D01,1,1,1
557,21.0,-17.0,56.0,1644829880.53125,P06,D01,1,1,1
558,21.0,-17.0,56.0,1644829880.5625,P06,D01,1,1,1
559,22.0,-17.0,56.0,1644829880.59375,P06,D01,1,1,1
560,21.0,-17.0,56.0,1644829880.625,P06,D01,1,1,1
561,21.0,-17.0,56.0,1644829880.65625,P06,D01,1,1,1
562,21.0,-16.0,56.0,1644829880.6875,P06,D01,1,1,1
563,21.0,-16.0,56.0,1644829880.71875,P06,D01,1,1,1
564,21.0,-16.0,56.0,1644829880.75,P06,D01,1,1,1
565,21.0,-16.0,56.0,1644829880.78125,P06,D01,1,1,1
566,21.0,-16.0,56.0,1644829880.8125,P06,D01,1,1,1
567,21.0,-16.0,56.0,1644829880.84375,P06,D01,1,1,1
568,22.0,-16.0,56.0,1644829880.875,P06,D01,1,1,1
569,21.0,-16.0,56.0,1644829880.90625,P06,D01,1,1,1
570,21.0,-16.0,56.0,1644829880.9375,P06,D01,1,1,1
571,21.0,-16.0,56.0,1644829880.96875,P06,D01,1,1,1
572,22.0,-16.0,56.0,1644829881.0,P06,D01,1,1,1
573,21.0,-16.0,56.0,1644829881.03125,P06,D01,1,1,1
574,21.0,-16.0,56.0,1644829881.0625,P06,D01,1,1,1
575,22.0,-16.0,56.0,1644829881.09375,P06,D01,1,1,1
576,21.0,-16.0,56.0,1644829881.125,P06,D01,1,1,1
577,21.0,-16.0,56.0,1644829881.15625,P06,D01,1,1,1
578,21.0,-16.0,56.0,1644829881.1875,P06,D01,1,1,1
579,21.0,-16.0,56.0,1644829881.21875,P06,D01,1,1,1
580,21.0,-16.0,56.0,1644829881.25,P06,D01,1,1,1
581,21.0,-16.0,56.0,1644829881.28125,P06,D01,1,1,1
582,21.0,-16.0,56.0,1644829881.3125,P06,D01,1,1,1
583,21.0,-16.0,56.0,1644829881.34375,P06,D01,1,1,1
584,22.0,-16.0,56.0,1644829881.375,P06,D01,1,1,1
585,22.0,-16.0,56.0,1644829881.40625,P06,D01,1,1,1
586,21.0,-16.0,56.0,1644829881.4375,P06,D01,1,1,1
587,22.0,-16.0,56.0,1644829881.46875,P06,D01,1,1,1
588,22.0,-16.0,56.0,1644829881.5,P06,D01,1,1,1
589,22.0,-16.0,56.0,1644829881.53125,P06,D01,1,1,1
590,22.0,-16.0,56.0,1644829881.5625,P06,D01,1,1,1
591,22.0,-16.0,56.0,1644829881.59375,P06,D01,1,1,1
592,21.0,-16.0,56.0,1644829881.625,P06,D01,1,1,1
593,21.0,-16.0,56.0,1644829881.65625,P06,D01,1,1,1
594,21.0,-16.0,56.0,1644829881.6875,P06,D01,1,1,1
595,21.0,-16.0,56.0,1644829881.71875,P06,D01,1,1,1
596,21.0,-16.0,56.0,1644829881.75,P06,D01,1,1,1
597,21.0,-16.0,56.0,1644829881.78125,P06,D01,1,1,1
598,22.0,-16.0,56.0,1644829881.8125,P06,D01,1,1,1
599,21.0,-16.0,56.0,1644829881.84375,P06,D01,1,1,1
600,21.0,-16.0,56.0,1644829881.875,P06,D01,1,1,1
601,22.0,-16.0,56.0,1644829881.90625,P06,D01,1,1,1
602,22.0,-16.0,56.0,1644829881.9375,P06,D01,1,1,1
603,21.0,-16.0,56.0,1644829881.96875,P06,D01,1,1,1
604,21.0,-16.0,56.0,1644829882.0,P06,D01,1,1,1
605,21.0,-16.0,56.0,1644829882.03125,P06,D01,1,1,1
606,22.0,-16.0,56.0,1644829882.0625,P06,D01,1,1,1
607,22.0,-16.0,56.0,1644829882.09375,P06,D01,1,1,1
608,22.0,-16.0,56.0,1644829882.125,P06,D01,1,1,1
609,21.0,-16.0,56.0,1644829882.15625,P06,D01,1,1,1
610,21.0,-16.0,56.0,1644829882.1875,P06,D01,1,1,1
611,21.0,-16.0,56.0,1644829882.21875,P06,D01,1,1,1
612,22.0,-16.0,56.0,1644829882.25,P06,D01,1,1,1
613,21.0,-16.0,56.0,1644829882.28125,P06,D01,1,1,1
614,21.0,-17.0,56.0,1644829882.3125,P06,D01,1,1,1
615,21.0,-17.0,56.0,1644829882.34375,P06,D01,1,1,1
616,21.0,-16.0,56.0,1644829882.375,P06,D01,1,1,1
617,21.0,-16.0,56.0,1644829882.40625,P06,D01,1,1,1
618,21.0,-16.0,56.0,1644829882.4375,P06,D01,1,1,1
619,21.0,-16.0,56.0,1644829882.46875,P06,D01,1,1,1
620,22.0,-16.0,56.0,1644829882.5,P06,D01,1,1,1
621,21.0,-16.0,56.0,1644829882.53125,P06,D01,1,1,1
622,21.0,-16.0,56.0,1644829882.5625,P06,D01,1,1,1
623,21.0,-16.0,56.0,1644829882.59375,P06,D01,1,1,1
624,21.0,-16.0,56.0,1644829882.625,P06,D01,1,1,1
625,21.0,-16.0,56.0,1644829882.65625,P06,D01,1,1,1
626,22.0,-16.0,56.0,1644829882.6875,P06,D01,1,1,1
627,21.0,-16.0,56.0,1644829882.71875,P06,D01,1,1,1
628,21.0,-16.0,56.0,1644829882.75,P06,D01,1,1,1
629,22.0,-16.0,56.0,1644829882.78125,P06,D01,1,1,1
630,22.0,-16.0,56.0,1644829882.8125,P06,D01,1,1,1
631,21.0,-16.0,56.0,1644829882.84375,P06,D01,1,1,1
632,22.0,-16.0,56.0,1644829882.875,P06,D01,1,1,1
633,22.0,-16.0,56.0,1644829882.90625,P06,D01,1,1,1
634,22.0,-16.0,56.0,1644829882.9375,P06,D01,1,1,1
635,21.0,-16.0,56.0,1644829882.96875,P06,D01,1,1,1
636,22.0,-16.0,56.0,1644829883.0,P06,D01,1,1,1
637,22.0,-16.0,56.0,1644829883.03125,P06,D01,1,1,1
638,21.0,-16.0,56.0,1644829883.0625,P06,D01,1,1,1
639,21.0,-16.0,56.0,1644829883.09375,P06,D01,1,1,1
640,21.0,-16.0,56.0,1644829883.125,P06,D01,1,1,1
641,21.0,-16.0,56.0,1644829883.15625,P06,D01,1,1,1
642,21.0,-16.0,56.0,1644829883.1875,P06,D01,1,1,1
643,22.0,-16.0,56.0,1644829883.21875,P06,D01,1,1,1
644,22.0,-16.0,56.0,1644829883.25,P06,D01,1,1,1
645,21.0,-16.0,56.0,1644829883.28125,P06,D01,1,1,1
646,21.0,-16.0,56.0,1644829883.3125,P06,D01,1,1,1
647,21.0,-16.0,56.0,1644829883.34375,P06,D01,1,1,1
648,21.0,-16.0,56.0,1644829883.375,P06,D01,1,1,1
649,21.0,-16.0,56.0,1644829883.40625,P06,D01,1,1,1
650,21.0,-16.0,56.0,1644829883.4375,P06,D01,1,1,1
651,21.0,-16.0,56.0,1644829883.46875,P06,D01,1,1,1
652,21.0,-16.0,56.0,1644829883.5,P06,D01,1,1,1
653,21.0,-16.0,56.0,1644829883.53125,P06,D01,1,1,1
654,21.0,-16.0,56.0,1644829883.5625,P06,D01,1,1,1
655,21.0,-16.0,56.0,1644829883.59375,P06,D01,1,1,1
656,22.0,-16.0,56.0,1644829883.625,P06,D01,1,1,1
657,22.0,-16.0,56.0,1644829883.65625,P06,D01,1,1,1
658,22.0,-16.0,56.0,1644829883.6875,P06,D01,1,1,1
659,21.0,-16.0,56.0,1644829883.71875,P06,D01,1,1,1
660,22.0,-16.0,56.0,1644829883.75,P06,D01,1,1,1
661,22.0,-16.0,56.0,1644829883.78125,P06,D01,1,1,1
662,21.0,-16.0,56.0,1644829883.8125,P06,D01,1,1,1
663,21.0,-16.0,56.0,1644829883.84375,P06,D01,1,1,1
664,22.0,-16.0,56.0,1644829883.875,P06,D01,1,1,1
665,22.0,-16.0,56.0,1644829883.90625,P06,D01,1,1,1
666,22.0,-16.0,56.0,1644829883.9375,P06,D01,1,1,1
667,22.0,-16.0,56.0,1644829883.96875,P06,D01,1,1,1
668,22.0,-16.0,56.0,1644829884.0,P06,D01,1,1,1
669,22.0,-16.0,56.0,1644829884.03125,P06,D01,1,1,1
670,22.0,-16.0,56.0,1644829884.0625,P06,D01,1,1,1
671,22.0,-16.0,56.0,1644829884.09375,P06,D01,1,1,1
672,21.0,-16.0,55.0,1644829884.125,P06,D01,1,1,1
673,21.0,-16.0,56.0,1644829884.15625,P06,D01,1,1,1
674,22.0,-16.0,56.0,1644829884.1875,P06,D01,1,1,1
675,22.0,-16.0,56.0,1644829884.21875,P06,D01,1,1,1
676,21.0,-15.0,56.0,1644829884.25,P06,D01,1,1,1
677,21.0,-16.0,56.0,1644829884.28125,P06,D01,1,1,1
678,22.0,-16.0,56.0,1644829884.3125,P06,D01,1,1,1
679,21.0,-16.0,56.0,1644829884.34375,P06,D01,1,1,1
680,21.0,-17.0,56.0,1644829884.375,P06,D01,1,1,1
681,21.0,-17.0,56.0,1644829884.40625,P06,D01,1,1,1
682,22.0,-16.0,56.0,1644829884.4375,P06,D01,1,1,1
683,21.0,-16.0,56.0,1644829884.46875,P06,D01,1,1,1
684,21.0,-16.0,56.0,1644829884.5,P06,D01,1,1,1
685,22.0,-16.0,56.0,1644829884.53125,P06,D01,1,1,1
686,22.0,-16.0,56.0,1644829884.5625,P06,D01,1,1,1
687,21.0,-16.0,56.0,1644829884.59375,P06,D01,1,1,1
688,21.0,-16.0,56.0,1644829884.625,P06,D01,1,1,1
689,21.0,-16.0,56.0,1644829884.65625,P06,D01,1,1,1
690,21.0,-17.0,56.0,1644829884.6875,P06,D01,1,1,1
691,21.0,-17.0,56.0,1644829884.71875,P06,D01,1,1,1
692,21.0,-17.0,56.0,1644829884.75,P06,D01,1,1,1
693,22.0,-17.0,56.0,1644829884.78125,P06,D01,1,1,1
694,21.0,-16.0,56.0,1644829884.8125,P06,D01,1,1,1
695,22.0,-16.0,56.0,1644829884.84375,P06,D01,1,1,1
696,22.0,-16.0,56.0,1644829884.875,P06,D01,1,1,1
697,21.0,-16.0,56.0,1644829884.90625,P06,D01,1,1,1
698,22.0,-16.0,56.0,1644829884.9375,P06,D01,1,1,1
699,22.0,-16.0,56.0,1644829884.96875,P06,D01,1,1,1
700,21.0,-16.0,56.0,1644829885.0,P06,D01,1,1,1
701,21.0,-16.0,56.0,1644829885.03125,P06,D01,1,1,1
702,22.0,-16.0,56.0,1644829885.0625,P06,D01,1,1,1
703,22.0,-16.0,56.0,1644829885.09375,P06,D01,1,1,1
704,21.0,-16.0,56.0,1644829885.125,P06,D01,1,1,1
705,21.0,-16.0,56.0,1644829885.15625,P06,D01,1,1,1
706,21.0,-16.0,56.0,1644829885.1875,P06,D01,1,1,1
707,21.0,-16.0,56.0,1644829885.21875,P06,D01,1,1,1
708,22.0,-17.0,56.0,1644829885.25,P06,D01,1,1,1
709,21.0,-16.0,56.0,1644829885.28125,P06,D01,1,1,1
710,21.0,-17.0,56.0,1644829885.3125,P06,D01,1,1,1
711,22.0,-16.0,56.0,1644829885.34375,P06,D01,1,1,1
712,22.0,-16.0,56.0,1644829885.375,P06,D01,1,1,1
713,21.0,-16.0,56.0,1644829885.40625,P06,D01,1,1,1
714,21.0,-16.0,56.0,1644829885.4375,P06,D01,1,1,1
715,22.0,-16.0,56.0,1644829885.46875,P06,D01,1,1,1
716,22.0,-16.0,56.0,1644829885.5,P06,D01,1,1,1
717,21.0,-17.0,56.0,1644829885.53125,P06,D01,1,1,1
718,21.0,-16.0,56.0,1644829885.5625,P06,D01,1,1,1
719,22.0,-16.0,56.0,1644829885.59375,P06,D01,1,1,1
720,21.0,-16.0,56.0,1644829885.625,P06,D01,1,1,1
721,21.0,-16.0,56.0,1644829885.65625,P06,D01,1,1,1
722,21.0,-16.0,56.0,1644829885.6875,P06,D01,1,1,1
723,22.0,-16.0,56.0,1644829885.71875,P06,D01,1,1,1
724,22.0,-16.0,56.0,1644829885.75,P06,D01,1,1,1
725,21.0,-16.0,56.0,1644829885.78125,P06,D01,1,1,1
726,21.0,-16.0,56.0,1644829885.8125,P06,D01,1,1,1
727,22.0,-16.0,56.0,1644829885.84375,P06,D01,1,1,1
728,21.0,-16.0,56.0,1644829885.875,P06,D01,1,1,1
729,21.0,-17.0,56.0,1644829885.90625,P06,D01,1,1,1
730,21.0,-16.0,56.0,1644829885.9375,P06,D01,1,1,1
731,21.0,-16.0,56.0,1644829885.96875,P06,D01,1,1,1
732,21.0,-16.0,56.0,1644829886.0,P06,D01,1,1,1
733,21.0,-16.0,56.0,1644829886.03125,P06,D01,1,1,1
734,21.0,-16.0,56.0,1644829886.0625,P06,D01,1,1,1
735,21.0,-16.0,56.0,1644829886.09375,P06,D01,1,1,1
736,21.0,-16.0,56.0,1644829886.125,P06,D01,1,1,1
737,22.0,-16.0,56.0,1644829886.15625,P06,D01,1,1,1
738,21.0,-16.0,56.0,1644829886.1875,P06,D01,1,1,1
739,22.0,-16.0,56.0,1644829886.21875,P06,D01,1,1,1
740,22.0,-16.0,56.0,1644829886.25,P06,D01,1,1,1
741,21.0,-16.0,56.0,1644829886.28125,P06,D01,1,1,1
742,21.0,-16.0,56.0,1644829886.3125,P06,D01,1,1,1
743,22.0,-16.0,56.0,1644829886.34375,P06,D01,1,1,1
744,21.0,-16.0,56.0,1644829886.375,P06,D01,1,1,1
745,22.0,-16.0,56.0,1644829886.40625,P06,D01,1,1,1
746,21.0,-16.0,56.0,1644829886.4375,P06,D01,1,1,1
747,21.0,-16.0,56.0,1644829886.46875,P06,D01,1,1,1
748,22.0,-16.0,56.0,1644829886.5,P06,D01,1,1,1
749,21.0,-16.0,56.0,1644829886.53125,P06,D01,1,1,1
750,21.0,-16.0,56.0,1644829886.5625,P06,D01,1,1,1
751,21.0,-16.0,56.0,1644829886.59375,P06,D01,1,1,1
752,21.0,-16.0,56.0,1644829886.625,P06,D01,1,1,1
753,22.0,-16.0,56.0,1644829886.65625,P06,D01,1,1,1
754,22.0,-16.0,56.0,1644829886.6875,P06,D01,1,1,1
755,21.0,-16.0,56.0,1644829886.71875,P06,D01,1,1,1
756,21.0,-16.0,56.0,1644829886.75,P06,D01,1,1,1
757,21.0,-16.0,56.0,1644829886.78125,P06,D01,1,1,1
758,22.0,-16.0,56.0,1644829886.8125,P06,D01,1,1,1
759,21.0,-16.0,56.0,1644829886.84375,P06,D01,1,1,1
760,22.0,-16.0,56.0,1644829886.875,P06,D01,1,1,1
761,21.0,-16.0,56.0,1644829886.90625,P06,D01,1,1,1
762,21.0,-16.0,56.0,1644829886.9375,P06,D01,1,1,1
763,22.0,-16.0,56.0,1644829886.96875,P06,D01,1,1,1
764,21.0,-16.0,56.0,1644829887.0,P06,D01,1,1,1
765,21.0,-16.0,56.0,1644829887.03125,P06,D01,1,1,1
766,21.0,-16.0,56.0,1644829887.0625,P06,D01,1,1,1
767,21.0,-16.0,56.0,1644829887.09375,P06,D01,1,1,1
768,21.0,-16.0,56.0,1644829887.125,P06,D01,1,1,1
769,21.0,-16.0,56.0,1644829887.15625,P06,D01,1,1,1
770,21.0,-17.0,56.0,1644829887.1875,P06,D01,1,1,1
771,21.0,-17.0,56.0,1644829887.21875,P06,D01,1,1,1
772,21.0,-17.0,56.0,1644829887.25,P06,D01,1,1,1
773,21.0,-16.0,56.0,1644829887.28125,P06,D01,1,1,1
774,21.0,-16.0,56.0,1644829887.3125,P06,D01,1,1,1
775,21.0,-16.0,56.0,1644829887.34375,P06,D01,1,1,1
776,21.0,-16.0,56.0,1644829887.375,P06,D01,1,1,1
777,21.0,-16.0,56.0,1644829887.40625,P06,D01,1,1,1
778,22.0,-16.0,56.0,1644829887.4375,P06,D01,1,1,1
779,21.0,-16.0,56.0,1644829887.46875,P06,D01,1,1,1
780,21.0,-16.0,56.0,1644829887.5,P06,D01,1,1,1
781,21.0,-16.0,56.0,1644829887.53125,P06,D01,1,1,1
782,21.0,-16.0,56.0,1644829887.5625,P06,D01,1,1,1
783,21.0,-16.0,56.0,1644829887.59375,P06,D01,1,1,1
784,21.0,-16.0,56.0,1644829887.625,P06,D01,1,1,1
785,21.0,-16.0,56.0,1644829887.65625,P06,D01,1,1,1
786,22.0,-16.0,56.0,1644829887.6875,P06,D01,1,1,1
787,21.0,-16.0,56.0,1644829887.71875,P06,D01,1,1,1
788,21.0,-16.0,56.0,1644829887.75,P06,D01,1,1,1
789,21.0,-16.0,56.0,1644829887.78125,P06,D01,1,1,1
790,21.0,-16.0,56.0,1644829887.8125,P06,D01,1,1,1
791,22.0,-16.0,56.0,1644829887.84375,P06,D01,1,1,1
792,21.0,-16.0,56.0,1644829887.875,P06,D01,1,1,1
793,21.0,-16.0,56.0,1644829887.90625,P06,D01,1,1,1
794,22.0,-16.0,56.0,1644829887.9375,P06,D01,1,1,1
795,22.0,-16.0,56.0,1644829887.96875,P06,D01,1,1,1
796,22.0,-16.0,56.0,1644829888.0,P06,D01,1,1,1
797,21.0,-16.0,56.0,1644829888.03125,P06,D01,1,1,1
798,22.0,-16.0,56.0,1644829888.0625,P06,D01,1,1,1
799,22.0,-16.0,56.0,1644829888.09375,P06,D01,1,1,1
800,21.0,-16.0,56.0,1644829888.125,P06,D01,1,1,1
801,22.0,-16.0,56.0,1644829888.15625,P06,D01,1,1,1
802,21.0,-16.0,56.0,1644829888.1875,P06,D01,1,1,1
803,22.0,-16.0,56.0,1644829888.21875,P06,D01,1,1,1
804,22.0,-16.0,56.0,1644829888.25,P06,D01,1,1,1
805,21.0,-16.0,56.0,1644829888.28125,P06,D01,1,1,1
806,22.0,-16.0,56.0,1644829888.3125,P06,D01,1,1,1
807,21.0,-16.0,56.0,1644829888.34375,P06,D01,1,1,1
808,22.0,-16.0,56.0,1644829888.375,P06,D01,1,1,1
809,22.0,-16.0,56.0,1644829888.40625,P06,D01,1,1,1
810,22.0,-16.0,56.0,1644829888.4375,P06,D01,1,1,1
811,21.0,-16.0,56.0,1644829888.46875,P06,D01,1,1,1
812,21.0,-16.0,56.0,1644829888.5,P06,D01,1,1,1
813,22.0,-16.0,56.0,1644829888.53125,P06,D01,1,1,1
814,22.0,-16.0,56.0,1644829888.5625,P06,D01,1,1,1
815,21.0,-16.0,56.0,1644829888.59375,P06,D01,1,1,1
816,21.0,-16.0,56.0,1644829888.625,P06,D01,1,1,1
817,22.0,-16.0,56.0,1644829888.65625,P06,D01,1,1,1
818,21.0,-16.0,56.0,1644829888.6875,P06,D01,1,1,1
819,22.0,-16.0,56.0,1644829888.71875,P06,D01,1,1,1
820,21.0,-16.0,56.0,1644829888.75,P06,D01,1,1,1
821,21.0,-16.0,56.0,1644829888.78125,P06,D01,1,1,1
822,21.0,-16.0,56.0,1644829888.8125,P06,D01,1,1,1
823,21.0,-16.0,56.0,1644829888.84375,P06,D01,1,1,1
824,22.0,-16.0,56.0,1644829888.875,P06,D01,1,1,1
825,21.0,-16.0,56.0,1644829888.90625,P06,D01,1,1,1
826,21.0,-16.0,56.0,1644829888.9375,P06,D01,1,1,1
827,21.0,-16.0,56.0,1644829888.96875,P06,D01,1,1,1
828,21.0,-16.0,56.0,1644829889.0,P06,D01,1,1,1
829,21.0,-16.0,56.0,1644829889.03125,P06,D01,1,1,1
830,21.0,-16.0,56.0,1644829889.0625,P06,D01,1,1,1
831,21.0,-16.0,56.0,1644829889.09375,P06,D01,1,1,1
832,21.0,-16.0,56.0,1644829889.125,P06,D01,1,1,1
833,21.0,-16.0,56.0,1644829889.15625,P06,D01,1,1,1
834,21.0,-16.0,56.0,1644829889.1875,P06,D01,1,1,1
835,22.0,-16.0,56.0,1644829889.21875,P06,D01,1,1,1
836,22.0,-16.0,56.0,1644829889.25,P06,D01,1,1,1
837,22.0,-16.0,56.0,1644829889.28125,P06,D01,1,1,1
838,21.0,-16.0,56.0,1644829889.3125,P06,D01,1,1,1
839,21.0,-16.0,56.0,1644829889.34375,P06,D01,1,1,1
840,21.0,-16.0,56.0,1644829889.375,P06,D01,1,1,1
841,21.0,-16.0,56.0,1644829889.40625,P06,D01,1,1,1
842,21.0,-16.0,56.0,1644829889.4375,P06,D01,1,1,1
843,21.0,-16.0,56.0,1644829889.46875,P06,D01,1,1,1
844,22.0,-16.0,56.0,1644829889.5,P06,D01,1,1,1
845,22.0,-16.0,56.0,1644829889.53125,P06,D01,1,1,1
846,21.0,-16.0,56.0,1644829889.5625,P06,D01,1,1,1
847,21.0,-16.0,56.0,1644829889.59375,P06,D01,1,1,1
848,22.0,-16.0,56.0,1644829889.625,P06,D01,1,1,1
849,22.0,-16.0,56.0,1644829889.65625,P06,D01,1,1,1
850,22.0,-16.0,56.0,1644829889.6875,P06,D01,1,1,1
851,22.0,-16.0,56.0,1644829889.71875,P06,D01,1,1,1
852,22.0,-16.0,56.0,1644829889.75,P06,D01,1,1,1
853,22.0,-16.0,56.0,1644829889.78125,P06,D01,1,1,1
854,22.0,-16.0,56.0,1644829889.8125,P06,D01,1,1,1
855,22.0,-16.0,56.0,1644829889.84375,P06,D01,1,1,1
856,22.0,-16.0,56.0,1644829889.875,P06,D01,1,1,1
857,22.0,-16.0,56.0,1644829889.90625,P06,D01,1,1,1
858,22.0,-16.0,56.0,1644829889.9375,P06,D01,1,1,1
859,22.0,-16.0,56.0,1644829889.96875,P06,D01,1,1,1
860,22.0,-16.0,56.0,1644829890.0,P06,D01,1,1,1
861,21.0,-16.0,56.0,1644829890.03125,P06,D01,1,1,1
862,22.0,-16.0,56.0,1644829890.0625,P06,D01,1,1,1
863,22.0,-16.0,56.0,1644829890.09375,P06,D01,1,1,1
864,22.0,-16.0,56.0,1644829890.125,P06,D01,1,1,1
865,22.0,-16.0,56.0,1644829890.15625,P06,D01,1,1,1
866,21.0,-16.0,56.0,1644829890.1875,P06,D01,1,1,1
867,22.0,-16.0,56.0,1644829890.21875,P06,D01,1,1,1
868,22.0,-16.0,56.0,1644829890.25,P06,D01,1,1,1
869,22.0,-16.0,56.0,1644829890.28125,P06,D01,1,1,1
870,21.0,-16.0,56.0,1644829890.3125,P06,D01,1,1,1
871,22.0,-16.0,56.0,1644829890.34375,P06,D01,1,1,1
872,21.0,-16.0,56.0,1644829890.375,P06,D01,1,1,1
873,21.0,-16.0,56.0,1644829890.40625,P06,D01,1,1,1
874,22.0,-16.0,56.0,1644829890.4375,P06,D01,1,1,1
875,22.0,-16.0,56.0,1644829890.46875,P06,D01,1,1,1
876,22.0,-16.0,56.0,1644829890.5,P06,D01,1,1,1
877,22.0,-16.0,56.0,1644829890.53125,P06,D01,1,1,1
878,21.0,-16.0,56.0,1644829890.5625,P06,D01,1,1,1
879,21.0,-16.0,56.0,1644829890.59375,P06,D01,1,1,1
880,22.0,-16.0,56.0,1644829890.625,P06,D01,1,1,1
881,22.0,-16.0,56.0,1644829890.65625,P06,D01,1,1,1
882,22.0,-16.0,56.0,1644829890.6875,P06,D01,1,1,1
883,22.0,-16.0,56.0,1644829890.71875,P06,D01,1,1,1
884,22.0,-16.0,56.0,1644829890.75,P06,D01,1,1,1
885,22.0,-16.0,56.0,1644829890.78125,P06,D01,1,1,1
886,22.0,-16.0,56.0,1644829890.8125,P06,D01,1,1,1
887,22.0,-16.0,56.0,1644829890.84375,P06,D01,1,1,1
888,21.0,-16.0,56.0,1644829890.875,P06,D01,1,1,1
889,22.0,-16.0,56.0,1644829890.90625,P06,D01,1,1,1
890,22.0,-16.0,56.0,1644829890.9375,P06,D01,1,1,1
891,22.0,-16.0,56.0,1644829890.96875,P06,D01,1,1,1
892,22.0,-16.0,56.0,1644829891.0,P06,D01,1,1,1
893,22.0,-16.0,56.0,1644829891.03125,P06,D01,1,1,1
894,22.0,-16.0,56.0,1644829891.0625,P06,D01,1,1,1
895,22.0,-16.0,56.0,1644829891.09375,P06,D01,1,1,1
896,22.0,-16.0,56.0,1644829891.125,P06,D01,1,1,1
897,22.0,-16.0,56.0,1644829891.15625,P06,D01,1,1,1
898,21.0,-16.0,56.0,1644829891.1875,P06,D01,1,1,1
899,21.0,-16.0,56.0,1644829891.21875,P06,D01,1,1,1
900,22.0,-16.0,56.0,1644829891.25,P06,D01,1,1,1
901,22.0,-16.0,56.0,1644829891.28125,P06,D01,1,1,1
902,22.0,-16.0,56.0,1644829891.3125,P06,D01,1,1,1
903,21.0,-16.0,56.0,1644829891.34375,P06,D01,1,1,1
904,21.0,-16.0,56.0,1644829891.375,P06,D01,1,1,1
905,21.0,-16.0,56.0,1644829891.40625,P06,D01,1,1,1
906,21.0,-16.0,55.0,1644829891.4375,P06,D01,1,1,1
907,22.0,-16.0,56.0,1644829891.46875,P06,D01,1,1,1
908,21.0,-16.0,56.0,1644829891.5,P06,D01,1,1,1
909,21.0,-16.0,56.0,1644829891.53125,P06,D01,1,1,1
910,21.0,-16.0,56.0,1644829891.5625,P06,D01,1,1,1
911,21.0,-16.0,56.0,1644829891.59375,P06,D01,1,1,1
912,22.0,-16.0,56.0,1644829891.625,P06,D01,1,1,1
913,22.0,-16.0,56.0,1644829891.65625,P06,D01,1,1,1
914,22.0,-16.0,56.0,1644829891.6875,P06,D01,1,1,1
915,22.0,-16.0,56.0,1644829891.71875,P06,D01,1,1,1
916,22.0,-16.0,56.0,1644829891.75,P06,D01,1,1,1
917,21.0,-16.0,56.0,1644829891.78125,P06,D01,1,1,1
918,22.0,-16.0,56.0,1644829891.8125,P06,D01,1,1,1
919,22.0,-16.0,56.0,1644829891.84375,P06,D01,1,1,1
920,21.0,-16.0,56.0,1644829891.875,P06,D01,1,1,1
921,22.0,-16.0,56.0,1644829891.90625,P06,D01,1,1,1
922,22.0,-16.0,56.0,1644829891.9375,P06,D01,1,1,1
923,22.0,-16.0,56.0,1644829891.96875,P06,D01,1,1,1
924,22.0,-16.0,56.0,1644829892.0,P06,D01,1,1,1
925,22.0,-16.0,56.0,1644829892.03125,P06,D01,1,1,1
926,22.0,-16.0,56.0,1644829892.0625,P06,D01,1,1,1
927,22.0,-16.0,55.0,1644829892.09375,P06,D01,1,1,1
928,22.0,-16.0,56.0,1644829892.125,P06,D01,1,1,1
929,22.0,-16.0,56.0,1644829892.15625,P06,D01,1,1,1
930,22.0,-16.0,56.0,1644829892.1875,P06,D01,1,1,1
931,22.0,-16.0,56.0,1644829892.21875,P06,D01,1,1,1
932,22.0,-16.0,56.0,1644829892.25,P06,D01,1,1,1
933,22.0,-16.0,56.0,1644829892.28125,P06,D01,1,1,1
934,22.0,-16.0,56.0,1644829892.3125,P06,D01,1,1,1
935,22.0,-16.0,56.0,1644829892.34375,P06,D01,1,1,1
936,22.0,-16.0,56.0,1644829892.375,P06,D01,1,1,1
937,22.0,-16.0,56.0,1644829892.40625,P06,D01,1,1,1
938,22.0,-16.0,56.0,1644829892.4375,P06,D01,1,1,1
939,22.0,-16.0,56.0,1644829892.46875,P06,D01,1,1,1
940,22.0,-16.0,56.0,1644829892.5,P06,D01,1,1,1
941,22.0,-16.0,56.0,1644829892.53125,P06,D01,1,1,1
942,22.0,-16.0,56.0,1644829892.5625,P06,D01,1,1,1
943,22.0,-16.0,56.0,1644829892.59375,P06,D01,1,1,1
944,22.0,-16.0,56.0,1644829892.625,P06,D01,1,1,1
945,21.0,-16.0,56.0,1644829892.65625,P06,D01,1,1,1
946,22.0,-16.0,56.0,1644829892.6875,P06,D01,1,1,1
947,22.0,-16.0,56.0,1644829892.71875,P06,D01,1,1,1
948,21.0,-16.0,56.0,1644829892.75,P06,D01,1,1,1
949,21.0,-16.0,56.0,1644829892.78125,P06,D01,1,1,1
950,21.0,-16.0,56.0,1644829892.8125,P06,D01,1,1,1
951,21.0,-16.0,56.0,1644829892.84375,P06,D01,1,1,1
952,21.0,-16.0,56.0,1644829892.875,P06,D01,1,1,1
953,21.0,-16.0,56.0,1644829892.90625,P06,D01,1,1,1
954,21.0,-16.0,56.0,1644829892.9375,P06,D01,1,1,1
955,22.0,-16.0,56.0,1644829892.96875,P06,D01,1,1,1
956,21.0,-16.0,56.0,1644829893.0,P06,D01,1,1,1
957,21.0,-16.0,56.0,1644829893.03125,P06,D01,1,1,1
958,21.0,-16.0,56.0,1644829893.0625,P06,D01,1,1,1
959,21.0,-16.0,56.0,1644829893.09375,P06,D01,1,1,1
960,21.0,-16.0,56.0,1644829893.125,P06,D01,1,1,1
961,21.0,-16.0,56.0,1644829893.15625,P06,D01,1,1,1
962,22.0,-16.0,56.0,1644829893.1875,P06,D01,1,1,1
963,21.0,-16.0,56.0,1644829893.21875,P06,D01,1,1,1
964,22.0,-16.0,56.0,1644829893.25,P06,D01,1,1,1
965,21.0,-16.0,56.0,1644829893.28125,P06,D01,1,1,1
966,21.0,-16.0,56.0,1644829893.3125,P06,D01,1,1,1
967,22.0,-16.0,56.0,1644829893.34375,P06,D01,1,1,1
968,22.0,-16.0,56.0,1644829893.375,P06,D01,1,1,1
969,22.0,-16.0,56.0,1644829893.40625,P06,D01,1,1,1
970,22.0,-16.0,56.0,1644829893.4375,P06,D01,1,1,1
971,21.0,-16.0,56.0,1644829893.46875,P06,D01,1,1,1
972,21.0,-16.0,56.0,1644829893.5,P06,D01,1,1,1
973,21.0,-16.0,56.0,1644829893.53125,P06,D01,1,1,1
974,21.0,-16.0,56.0,1644829893.5625,P06,D01,1,1,1
975,22.0,-16.0,56.0,1644829893.59375,P06,D01,1,1,1
976,21.0,-16.0,56.0,1644829893.625,P06,D01,1,1,1
977,22.0,-16.0,56.0,1644829893.65625,P06,D01,1,1,1
978,22.0,-16.0,56.0,1644829893.6875,P06,D01,1,1,1
979,21.0,-16.0,56.0,1644829893.71875,P06,D01,1,1,1
980,22.0,-16.0,56.0,1644829893.75,P06,D01,1,1,1
981,22.0,-16.0,56.0,1644829893.78125,P06,D01,1,1,1
982,21.0,-16.0,56.0,1644829893.8125,P06,D01,1,1,1
983,22.0,-16.0,56.0,1644829893.84375,P06,D01,1,1,1
984,21.0,-16.0,56.0,1644829893.875,P06,D01,1,1,1
985,22.0,-16.0,56.0,1644829893.90625,P06,D01,1,1,1
986,22.0,-16.0,56.0,1644829893.9375,P06,D01,1,1,1
987,22.0,-16.0,56.0,1644829893.96875,P06,D01,1,1,1
988,21.0,-16.0,56.0,1644829894.0,P06,D01,1,1,1
989,22.0,-16.0,56.0,1644829894.03125,P06,D01,1,1,1
990,22.0,-16.0,56.0,1644829894.0625,P06,D01,1,1,1
991,22.0,-16.0,56.0,1644829894.09375,P06,D01,1,1,1
992,22.0,-16.0,56.0,1644829894.125,P06,D01,1,1,1
993,22.0,-16.0,56.0,1644829894.15625,P06,D01,1,1,1
994,22.0,-16.0,56.0,1644829894.1875,P06,D01,1,1,1
995,22.0,-16.0,56.0,1644829894.21875,P06,D01,1,1,1
996,22.0,-16.0,56.0,1644829894.25,P06,D01,1,1,1
997,22.0,-16.0,56.0,1644829894.28125,P06,D01,1,1,1
998,21.0,-16.0,56.0,1644829894.3125,P06,D01,1,1,1
999,22.0,-16.0,56.0,1644829894.34375,P06,D01,1,1,1
1000,22.0,-16.0,56.0,1644829894.375,P06,D01,1,1,1
1001,22.0,-16.0,56.0,1644829894.40625,P06,D01,1,1,1
1002,22.0,-16.0,56.0,1644829894.4375,P06,D01,1,1,1
1003,21.0,-16.0,56.0,1644829894.46875,P06,D01,1,1,1
1004,22.0,-16.0,56.0,1644829894.5,P06,D01,1,1,1
1005,22.0,-16.0,56.0,1644829894.53125,P06,D01,1,1,1
1006,21.0,-16.0,56.0,1644829894.5625,P06,D01,1,1,1
1007,22.0,-16.0,56.0,1644829894.59375,P06,D01,1,1,1
1008,22.0,-16.0,56.0,1644829894.625,P06,D01,1,1,1
1009,22.0,-16.0,56.0,1644829894.65625,P06,D01,1,1,1
1010,22.0,-16.0,56.0,1644829894.6875,P06,D01,1,1,1
1011,22.0,-15.0,56.0,1644829894.71875,P06,D01,1,1,1
1012,22.0,-15.0,56.0,1644829894.75,P06,D01,1,1,1
1013,22.0,-15.0,56.0,1644829894.78125,P06,D01,1,1,1
1014,22.0,-16.0,56.0,1644829894.8125,P06,D01,1,1,1
1015,22.0,-16.0,56.0,1644829894.84375,P06,D01,1,1,1
1016,22.0,-16.0,56.0,1644829894.875,P06,D01,1,1,1
1017,22.0,-16.0,56.0,1644829894.90625,P06,D01,1,1,1
1018,22.0,-16.0,56.0,1644829894.9375,P06,D01,1,1,1
1019,22.0,-16.0,56.0,1644829894.96875,P06,D01,1,1,1
1020,22.0,-16.0,56.0,1644829895.0,P06,D01,1,1,1
1021,22.0,-16.0,56.0,1644829895.03125,P06,D01,1,1,1
1022,21.0,-16.0,56.0,1644829895.0625,P06,D01,1,1,1
1023,21.0,-16.0,56.0,1644829895.09375,P06,D01,1,1,1
1024,21.0,-16.0,56.0,1644829895.125,P06,D01,1,1,1
1025,21.0,-16.0,56.0,1644829895.15625,P06,D01,1,1,1
1026,22.0,-16.0,56.0,1644829895.1875,P06,D01,1,1,1
1027,21.0,-16.0,56.0,1644829895.21875,P06,D01,1,1,1
1028,21.0,-16.0,56.0,1644829895.25,P06,D01,1,1,1
1029,21.0,-16.0,56.0,1644829895.28125,P06,D01,1,1,1
1030,22.0,-16.0,56.0,1644829895.3125,P06,D01,1,1,1
1031,21.0,-16.0,56.0,1644829895.34375,P06,D01,1,1,1
1032,21.0,-16.0,57.0,1644829895.375,P06,D01,1,1,1
1033,21.0,-17.0,56.0,1644829895.40625,P06,D01,1,1,1
1034,21.0,-16.0,56.0,1644829895.4375,P06,D01,1,1,1
1035,21.0,-16.0,56.0,1644829895.46875,P06,D01,1,1,1
1036,22.0,-16.0,56.0,1644829895.5,P06,D01,1,1,1
1037,21.0,-16.0,56.0,1644829895.53125,P06,D01,1,1,1
1038,21.0,-16.0,56.0,1644829895.5625,P06,D01,1,1,1
1039,22.0,-16.0,56.0,1644829895.59375,P06,D01,1,1,1
1040,22.0,-16.0,56.0,1644829895.625,P06,D01,1,1,1
1041,21.0,-16.0,56.0,1644829895.65625,P06,D01,1,1,1
1042,22.0,-16.0,56.0,1644829895.6875,P06,D01,1,1,1
1043,22.0,-16.0,56.0,1644829895.71875,P06,D01,1,1,1
1044,21.0,-16.0,56.0,1644829895.75,P06,D01,1,1,1
1045,21.0,-16.0,56.0,1644829895.78125,P06,D01,1,1,1
1046,22.0,-16.0,56.0,1644829895.8125,P06,D01,1,1,1
1047,21.0,-16.0,56.0,1644829895.84375,P06,D01,1,1,1
1048,21.0,-16.0,56.0,1644829895.875,P06,D01,1,1,1
1049,22.0,-16.0,56.0,1644829895.90625,P06,D01,1,1,1
1050,22.0,-16.0,56.0,1644829895.9375,P06,D01,1,1,1
1051,22.0,-16.0,56.0,1644829895.96875,P06,D01,1,1,1
1052,21.0,-16.0,56.0,1644829896.0,P06,D01,1,1,1
1053,21.0,-16.0,56.0,1644829896.03125,P06,D01,1,1,1
1054,22.0,-16.0,56.0,1644829896.0625,P06,D01,1,1,1
1055,22.0,-16.0,56.0,1644829896.09375,P06,D01,1,1,1
1056,21.0,-16.0,56.0,1644829896.125,P06,D01,1,1,1
1057,21.0,-16.0,56.0,1644829896.15625,P06,D01,1,1,1
1058,22.0,-16.0,56.0,1644829896.1875,P06,D01,1,1,1
1059,22.0,-16.0,56.0,1644829896.21875,P06,D01,1,1,1
1060,21.0,-16.0,56.0,1644829896.25,P06,D01,1,1,1
1061,21.0,-16.0,56.0,1644829896.28125,P06,D01,1,1,1
1062,22.0,-16.0,56.0,1644829896.3125,P06,D01,1,1,1
1063,22.0,-16.0,56.0,1644829896.34375,P06,D01,1,1,1
1064,22.0,-16.0,56.0,1644829896.375,P06,D01,1,1,1
1065,22.0,-16.0,56.0,1644829896.40625,P06,D01,1,1,1
1066,22.0,-16.0,56.0,1644829896.4375,P06,D01,1,1,1
1067,22.0,-16.0,56.0,1644829896.46875,P06,D01,1,1,1
1068,22.0,-16.0,56.0,1644829896.5,P06,D01,1,1,1
1069,22.0,-16.0,56.0,1644829896.53125,P06,D01,1,1,1
1070,22.0,-16.0,56.0,1644829896.5625,P06,D01,1,1,1
1071,22.0,-16.0,55.0,1644829896.59375,P06,D01,1,1,1
1072,22.0,-16.0,56.0,1644829896.625,P06,D01,1,1,1
1073,21.0,-16.0,56.0,1644829896.65625,P06,D01,1,1,1
1074,22.0,-16.0,56.0,1644829896.6875,P06,D01,1,1,1
1075,21.0,-16.0,56.0,1644829896.71875,P06,D01,1,1,1
1076,22.0,-16.0,56.0,1644829896.75,P06,D01,1,1,1
1077,22.0,-16.0,56.0,1644829896.78125,P06,D01,1,1,1
1078,21.0,-16.0,56.0,1644829896.8125,P06,D01,1,1,1
1079,21.0,-16.0,56.0,1644829896.84375,P06,D01,1,1,1
1080,21.0,-16.0,56.0,1644829896.875,P06,D01,1,1,1
1081,21.0,-16.0,56.0,1644829896.90625,P06,D01,1,1,1
1082,22.0,-16.0,56.0,1644829896.9375,P06,D01,1,1,1
1083,21.0,-16.0,56.0,1644829896.96875,P06,D01,1,1,1
1084,21.0,-16.0,56.0,1644829897.0,P06,D01,1,1,1
1085,21.0,-16.0,56.0,1644829897.03125,P06,D01,1,1,1
1086,21.0,-16.0,56.0,1644829897.0625,P06,D01,1,1,1
1087,21.0,-16.0,56.0,1644829897.09375,P06,D01,1,1,1
1088,21.0,-16.0,56.0,1644829897.125,P06,D01,1,1,1
1089,21.0,-16.0,56.0,1644829897.15625,P06,D01,1,1,1
1090,21.0,-16.0,56.0,1644829897.1875,P06,D01,1,1,1
1091,21.0,-16.0,56.0,1644829897.21875,P06,D01,1,1,1
1092,22.0,-16.0,56.0,1644829897.25,P06,D01,1,1,1
1093,21.0,-16.0,56.0,1644829897.28125,P06,D01,1,1,1
1094,21.0,-16.0,56.0,1644829897.3125,P06,D01,1,1,1
1095,21.0,-16.0,56.0,1644829897.34375,P06,D01,1,1,1
1096,22.0,-16.0,56.0,1644829897.375,P06,D01,1,1,1
1097,21.0,-16.0,56.0,1644829897.40625,P06,D01,1,1,1
1098,21.0,-16.0,56.0,1644829897.4375,P06,D01,1,1,1
1099,22.0,-16.0,56.0,1644829897.46875,P06,D01,1,1,1
1100,21.0,-16.0,56.0,1644829897.5,P06,D01,1,1,1
1101,21.0,-16.0,56.0,1644829897.53125,P06,D01,1,1,1
1102,21.0,-16.0,56.0,1644829897.5625,P06,D01,1,1,1
1103,22.0,-16.0,56.0,1644829897.59375,P06,D01,1,1,1
1104,22.0,-16.0,56.0,1644829897.625,P06,D01,1,1,1
1105,22.0,-16.0,56.0,1644829897.65625,P06,D01,1,1,1
1106,21.0,-16.0,56.0,1644829897.6875,P06,D01,1,1,1
1107,22.0,-16.0,56.0,1644829897.71875,P06,D01,1,1,1
1108,22.0,-16.0,56.0,1644829897.75,P06,D01,1,1,1
1109,22.0,-16.0,56.0,1644829897.78125,P06,D01,1,1,1
1110,21.0,-16.0,56.0,1644829897.8125,P06,D01,1,1,1
1111,22.0,-16.0,56.0,1644829897.84375,P06,D01,1,1,1
1112,22.0,-16.0,56.0,1644829897.875,P06,D01,1,1,1
1113,22.0,-16.0,56.0,1644829897.90625,P06,D01,1,1,1
1114,22.0,-16.0,56.0,1644829897.9375,P06,D01,1,1,1
1115,22.0,-16.0,56.0,1644829897.96875,P06,D01,1,1,1
1116,22.0,-16.0,56.0,1644829898.0,P06,D01,1,1,1
1117,22.0,-16.0,56.0,1644829898.03125,P06,D01,1,1,1
1118,22.0,-16.0,56.0,1644829898.0625,P06,D01,1,1,1
1119,22.0,-16.0,56.0,1644829898.09375,P06,D01,1,1,1
1120,22.0,-16.0,56.0,1644829898.125,P06,D01,1,1,1
1121,22.0,-16.0,56.0,1644829898.15625,P06,D01,1,1,1
1122,22.0,-16.0,56.0,1644829898.1875,P06,D01,1,1,1
1123,22.0,-15.0,56.0,1644829898.21875,P06,D01,1,1,1
1124,22.0,-16.0,56.0,1644829898.25,P06,D01,1,1,1
1125,22.0,-16.0,56.0,1644829898.28125,P06,D01,1,1,1
1126,22.0,-16.0,56.0,1644829898.3125,P06,D01,1,1,1
1127,22.0,-16.0,56.0,1644829898.34375,P06,D01,1,1,1
1128,22.0,-16.0,56.0,1644829898.375,P06,D01,1,1,1
1129,22.0,-16.0,56.0,1644829898.40625,P06,D01,1,1,1
1130,22.0,-16.0,56.0,1644829898.4375,P06,D01,1,1,1
1131,22.0,-16.0,56.0,1644829898.46875,P06,D01,1,1,1
1132,22.0,-16.0,56.0,1644829898.5,P06,D01,1,1,1
1133,21.0,-16.0,56.0,1644829898.53125,P06,D01,1,1,1
1134,22.0,-16.0,56.0,1644829898.5625,P06,D01,1,1,1
1135,21.0,-16.0,56.0,1644829898.59375,P06,D01,1,1,1
1136,22.0,-16.0,56.0,1644829898.625,P06,D01,1,1,1
1137,22.0,-16.0,56.0,1644829898.65625,P06,D01,1,1,1
1138,22.0,-16.0,56.0,1644829898.6875,P06,D01,1,1,1
1139,22.0,-16.0,56.0,1644829898.71875,P06,D01,1,1,1
1140,22.0,-16.0,56.0,1644829898.75,P06,D01,1,1,1
1141,22.0,-16.0,56.0,1644829898.78125,P06,D01,1,1,1
1142,22.0,-16.0,56.0,1644829898.8125,P06,D01,1,1,1
1143,22.0,-16.0,56.0,1644829898.84375,P06,D01,1,1,1
1144,22.0,-16.0,56.0,1644829898.875,P06,D01,1,1,1
1145,22.0,-16.0,56.0,1644829898.90625,P06,D01,1,1,1
1146,22.0,-16.0,56.0,1644829898.9375,P06,D01,1,1,1
1147,22.0,-16.0,56.0,1644829898.96875,P06,D01,1,1,1
1148,22.0,-16.0,56.0,1644829899.0,P06,D01,1,1,1
1149,22.0,-16.0,56.0,1644829899.03125,P06,D01,1,1,1
1150,21.0,-16.0,56.0,1644829899.0625,P06,D01,1,1,1
1151,21.0,-16.0,56.0,1644829899.09375,P06,D01,1,1,1
1152,21.0,-16.0,56.0,1644829899.125,P06,D01,1,1,1
1153,22.0,-16.0,56.0,1644829899.15625,P06,D01,1,1,1
1154,21.0,-17.0,56.0,1644829899.1875,P06,D01,1,1,1
1155,21.0,-16.0,56.0,1644829899.21875,P06,D01,1,1,1
1156,22.0,-16.0,56.0,1644829899.25,P06,D01,1,1,1
1157,22.0,-16.0,56.0,1644829899.28125,P06,D01,1,1,1
1158,21.0,-17.0,56.0,1644829899.3125,P06,D01,1,1,1
1159,21.0,-16.0,56.0,1644829899.34375,P06,D01,1,1,1
1160,21.0,-16.0,56.0,1644829899.375,P06,D01,1,1,1
1161,21.0,-16.0,56.0,1644829899.40625,P06,D01,1,1,1
1162,21.0,-16.0,56.0,1644829899.4375,P06,D01,1,1,1
1163,21.0,-16.0,56.0,1644829899.46875,P06,D01,1,1,1
1164,21.0,-16.0,56.0,1644829899.5,P06,D01,1,1,1
1165,22.0,-16.0,56.0,1644829899.53125,P06,D01,1,1,1
1166,22.0,-16.0,56.0,1644829899.5625,P06,D01,1,1,1
1167,21.0,-16.0,56.0,1644829899.59375,P06,D01,1,1,1
1168,22.0,-16.0,56.0,1644829899.625,P06,D01,1,1,1
1169,22.0,-16.0,56.0,1644829899.65625,P06,D01,1,1,1
1170,22.0,-16.0,56.0,1644829899.6875,P06,D01,1,1,1
1171,21.0,-16.0,56.0,1644829899.71875,P06,D01,1,1,1
1172,22.0,-16.0,56.0,1644829899.75,P06,D01,1,1,1
1173,21.0,-16.0,56.0,1644829899.78125,P06,D01,1,1,1
1174,21.0,-16.0,56.0,1644829899.8125,P06,D01,1,1,1
1175,22.0,-16.0,56.0,1644829899.84375,P06,D01,1,1,1
1176,21.0,-16.0,56.0,1644829899.875,P06,D01,1,1,1
1177,22.0,-16.0,56.0,1644829899.90625,P06,D01,1,1,1
1178,21.0,-16.0,56.0,1644829899.9375,P06,D01,1,1,1
1179,21.0,-16.0,56.0,1644829899.96875,P06,D01,1,1,1
1180,21.0,-16.0,56.0,1644829900.0,P06,D01,1,1,1
1181,21.0,-16.0,56.0,1644829900.03125,P06,D01,1,1,1
1182,22.0,-16.0,56.0,1644829900.0625,P06,D01,1,1,1
1183,22.0,-16.0,56.0,1644829900.09375,P06,D01,1,1,1
1184,22.0,-16.0,56.0,1644829900.125,P06,D01,1,1,1
1185,21.0,-16.0,56.0,1644829900.15625,P06,D01,1,1,1
1186,21.0,-16.0,56.0,1644829900.1875,P06,D01,1,1,1
1187,21.0,-16.0,56.0,1644829900.21875,P06,D01,1,1,1
1188,21.0,-16.0,56.0,1644829900.25,P06,D01,1,1,1
1189,21.0,-16.0,56.0,1644829900.28125,P06,D01,1,1,1
1190,21.0,-16.0,56.0,1644829900.3125,P06,D01,1,1,1
1191,21.0,-16.0,56.0,1644829900.34375,P06,D01,1,1,1
1192,22.0,-16.0,56.0,1644829900.375,P06,D01,1,1,1
1193,22.0,-16.0,56.0,1644829900.40625,P06,D01,1,1,1
1194,22.0,-16.0,56.0,1644829900.4375,P06,D01,1,1,1
1195,22.0,-16.0,56.0,1644829900.46875,P06,D01,1,1,1
1196,21.0,-16.0,56.0,1644829900.5,P06,D01,1,1,1
1197,21.0,-16.0,56.0,1644829900.53125,P06,D01,1,1,1
1198,22.0,-16.0,56.0,1644829900.5625,P06,D01,1,1,1
1199,22.0,-16.0,56.0,1644829900.59375,P06,D01,1,1,1
1200,22.0,-16.0,56.0,1644829900.625,P06,D01,1,1,1
1201,21.0,-16.0,56.0,1644829900.65625,P06,D01,1,1,1
1202,22.0,-16.0,56.0,1644829900.6875,P06,D01,1,1,1
1203,21.0,-16.0,56.0,1644829900.71875,P06,D01,1,1,1
1204,22.0,-16.0,56.0,1644829900.75,P06,D01,1,1,1
1205,21.0,-16.0,56.0,1644829900.78125,P06,D01,1,1,1
1206,21.0,-16.0,56.0,1644829900.8125,P06,D01,1,1,1
1207,22.0,-16.0,56.0,1644829900.84375,P06,D01,1,1,1
1208,21.0,-16.0,56.0,1644829900.875,P06,D01,1,1,1
1209,22.0,-16.0,56.0,1644829900.90625,P06,D01,1,1,1
1210,22.0,-16.0,56.0,1644829900.9375,P06,D01,1,1,1
1211,22.0,-16.0,56.0,1644829900.96875,P06,D01,1,1,1
1212,22.0,-16.0,56.0,1644829901.0,P06,D01,1,1,1
1213,22.0,-16.0,56.0,1644829901.03125,P06,D01,1,1,1
1214,22.0,-16.0,56.0,1644829901.0625,P06,D01,1,1,1
1215,22.0,-16.0,56.0,1644829901.09375,P06,D01,1,1,1
1216,22.0,-16.0,56.0,1644829901.125,P06,D01,1,1,1
1217,22.0,-16.0,56.0,1644829901.15625,P06,D01,1,1,1
1218,22.0,-16.0,56.0,1644829901.1875,P06,D01,1,1,1
1219,22.0,-16.0,56.0,1644829901.21875,P06,D01,1,1,1
1220,22.0,-16.0,56.0,1644829901.25,P06,D01,1,1,1
1221,21.0,-16.0,56.0,1644829901.28125,P06,D01,1,1,1
1222,22.0,-16.0,56.0,1644829901.3125,P06,D01,1,1,1
1223,22.0,-16.0,56.0,1644829901.34375,P06,D01,1,1,1
1224,22.0,-16.0,56.0,1644829901.375,P06,D01,1,1,1
1225,22.0,-16.0,56.0,1644829901.40625,P06,D01,1,1,1
1226,22.0,-16.0,56.0,1644829901.4375,P06,D01,1,1,1
1227,22.0,-16.0,56.0,1644829901.46875,P06,D01,1,1,1
1228,22.0,-16.0,56.0,1644829901.5,P06,D01,1,1,1
1229,22.0,-16.0,56.0,1644829901.53125,P06,D01,1,1,1
1230,22.0,-16.0,56.0,1644829901.5625,P06,D01,1,1,1
1231,22.0,-16.0,56.0,1644829901.59375,P06,D01,1,1,1
1232,22.0,-16.0,56.0,1644829901.625,P06,D01,1,1,1
1233,21.0,-16.0,56.0,1644829901.65625,P06,D01,1,1,1
1234,22.0,-16.0,56.0,1644829901.6875,P06,D01,1,1,1
1235,21.0,-16.0,56.0,1644829901.71875,P06,D01,1,1,1
1236,22.0,-16.0,56.0,1644829901.75,P06,D01,1,1,1
1237,21.0,-16.0,56.0,1644829901.78125,P06,D01,1,1,1
1238,22.0,-16.0,56.0,1644829901.8125,P06,D01,1,1,1
1239,21.0,-16.0,56.0,1644829901.84375,P06,D01,1,1,1
1240,21.0,-16.0,56.0,1644829901.875,P06,D01,1,1,1
1241,22.0,-16.0,56.0,1644829901.90625,P06,D01,1,1,1
1242,22.0,-16.0,56.0,1644829901.9375,P06,D01,1,1,1
1243,22.0,-16.0,56.0,1644829901.96875,P06,D01,1,1,1
1244,22.0,-16.0,56.0,1644829902.0,P06,D01,1,1,1
1245,22.0,-16.0,56.0,1644829902.03125,P06,D01,1,1,1
1246,22.0,-16.0,56.0,1644829902.0625,P06,D01,1,1,1
1247,22.0,-16.0,56.0,1644829902.09375,P06,D01,1,1,1
1248,21.0,-16.0,56.0,1644829902.125,P06,D01,1,1,1
1249,21.0,-16.0,56.0,1644829902.15625,P06,D01,1,1,1
1250,22.0,-16.0,56.0,1644829902.1875,P06,D01,1,1,1
1251,22.0,-16.0,56.0,1644829902.21875,P06,D01,1,1,1
1252,22.0,-16.0,56.0,1644829902.25,P06,D01,1,1,1
1253,22.0,-16.0,56.0,1644829902.28125,P06,D01,1,1,1
1254,22.0,-16.0,56.0,1644829902.3125,P06,D01,1,1,1
1255,22.0,-16.0,56.0,1644829902.34375,P06,D01,1,1,1
1256,22.0,-16.0,56.0,1644829902.375,P06,D01,1,1,1
1257,22.0,-16.0,56.0,1644829902.40625,P06,D01,1,1,1
1258,21.0,-16.0,56.0,1644829902.4375,P06,D01,1,1,1
1259,22.0,-16.0,56.0,1644829902.46875,P06,D01,1,1,1
1260,22.0,-16.0,56.0,1644829902.5,P06,D01,1,1,1
1261,22.0,-16.0,56.0,1644829902.53125,P06,D01,1,1,1
1262,22.0,-16.0,56.0,1644829902.5625,P06,D01,1,1,1
1263,22.0,-16.0,56.0,1644829902.59375,P06,D01,1,1,1
1264,22.0,-16.0,56.0,1644829902.625,P06,D01,1,1,1
1265,22.0,-16.0,56.0,1644829902.65625,P06,D01,1,1,1
1266,22.0,-16.0,56.0,1644829902.6875,P06,D01,1,1,1
1267,21.0,-16.0,56.0,1644829902.71875,P06,D01,1,1,1
1268,22.0,-16.0,56.0,1644829902.75,P06,D01,1,1,1
1269,22.0,-16.0,56.0,1644829902.78125,P06,D01,1,1,1
1270,22.0,-16.0,56.0,1644829902.8125,P06,D01,1,1,1
1271,22.0,-16.0,56.0,1644829902.84375,P06,D01,1,1,1
1272,22.0,-16.0,56.0,1644829902.875,P06,D01,1,1,1
1273,22.0,-16.0,56.0,1644829902.90625,P06,D01,1,1,1
1274,22.0,-16.0,56.0,1644829902.9375,P06,D01,1,1,1
1275,21.0,-16.0,56.0,1644829902.96875,P06,D01,1,1,1
1276,22.0,-16.0,56.0,1644829903.0,P06,D01,1,1,1
1277,21.0,-16.0,56.0,1644829903.03125,P06,D01,1,1,1
1278,22.0,-16.0,56.0,1644829903.0625,P06,D01,1,1,1
1279,22.0,-16.0,56.0,1644829903.09375,P06,D01,1,1,1
1280,21.0,-16.0,56.0,1644829903.125,P06,D01,1,1,1
1281,22.0,-16.0,56.0,1644829903.15625,P06,D01,1,1,1
1282,22.0,-16.0,56.0,1644829903.1875,P06,D01,1,1,1
1283,22.0,-16.0,56.0,1644829903.21875,P06,D01,1,1,1
1284,22.0,-16.0,56.0,1644829903.25,P06,D01,1,1,1
1285,22.0,-16.0,56.0,1644829903.28125,P06,D01,1,1,1
1286,22.0,-16.0,56.0,1644829903.3125,P06,D01,1,1,1
1287,22.0,-16.0,56.0,1644829903.34375,P06,D01,1,1,1
1288,22.0,-16.0,56.0,1644829903.375,P06,D01,1,1,1
1289,22.0,-15.0,56.0,1644829903.40625,P06,D01,1,1,1
1290,22.0,-16.0,56.0,1644829903.4375,P06,D01,1,1,1
1291,21.0,-16.0,56.0,1644829903.46875,P06,D01,1,1,1
1292,22.0,-16.0,56.0,1644829903.5,P06,D01,1,1,1
1293,22.0,-16.0,56.0,1644829903.53125,P06,D01,1,1,1
1294,22.0,-16.0,56.0,1644829903.5625,P06,D01,1,1,1
1295,22.0,-16.0,56.0,1644829903.59375,P06,D01,1,1,1
1296,22.0,-16.0,56.0,1644829903.625,P06,D01,1,1,1
1297,22.0,-16.0,56.0,1644829903.65625,P06,D01,1,1,1
1298,22.0,-16.0,56.0,1644829903.6875,P06,D01,1,1,1
1299,21.0,-16.0,56.0,1644829903.71875,P06,D01,1,1,1
1300,22.0,-16.0,56.0,1644829903.75,P06,D01,1,1,1
1301,22.0,-16.0,56.0,1644829903.78125,P06,D01,1,1,1
1302,22.0,-16.0,56.0,1644829903.8125,P06,D01,1,1,1
1303,21.0,-16.0,56.0,1644829903.84375,P06,D01,1,1,1
1304,22.0,-16.0,56.0,1644829903.875,P06,D01,1,1,1
1305,22.0,-16.0,56.0,1644829903.90625,P06,D01,1,1,1
1306,22.0,-16.0,56.0,1644829903.9375,P06,D01,1,1,1
1307,22.0,-16.0,56.0,1644829903.96875,P06,D01,1,1,1
1308,22.0,-16.0,56.0,1644829904.0,P06,D01,1,1,1
1309,21.0,-16.0,56.0,1644829904.03125,P06,D01,1,1,1
1310,21.0,-16.0,56.0,1644829904.0625,P06,D01,1,1,1
1311,21.0,-16.0,56.0,1644829904.09375,P06,D01,1,1,1
1312,21.0,-17.0,56.0,1644829904.125,P06,D01,1,1,1
1313,22.0,-16.0,56.0,1644829904.15625,P06,D01,1,1,1
1314,21.0,-16.0,56.0,1644829904.1875,P06,D01,1,1,1
1315,21.0,-17.0,56.0,1644829904.21875,P06,D01,1,1,1
1316,21.0,-17.0,56.0,1644829904.25,P06,D01,1,1,1
1317,21.0,-17.0,56.0,1644829904.28125,P06,D01,1,1,1
1318,22.0,-16.0,56.0,1644829904.3125,P06,D01,1,1,1
1319,22.0,-17.0,56.0,1644829904.34375,P06,D01,1,1,1
1320,22.0,-16.0,56.0,1644829904.375,P06,D01,1,1,1
1321,21.0,-16.0,56.0,1644829904.40625,P06,D01,1,1,1
1322,21.0,-16.0,56.0,1644829904.4375,P06,D01,1,1,1
1323,22.0,-15.0,57.0,1644829904.46875,P06,D01,1,1,1
1324,22.0,-15.0,56.0,1644829904.5,P06,D01,1,1,1
1325,21.0,-16.0,56.0,1644829904.53125,P06,D01,1,1,1
1326,21.0,-16.0,56.0,1644829904.5625,P06,D01,1,1,1
1327,22.0,-16.0,56.0,1644829904.59375,P06,D01,1,1,1
1328,22.0,-16.0,56.0,1644829904.625,P06,D01,1,1,1
1329,21.0,-16.0,56.0,1644829904.65625,P06,D01,1,1,1
1330,21.0,-16.0,56.0,1644829904.6875,P06,D01,1,1,1
1331,22.0,-16.0,56.0,1644829904.71875,P06,D01,1,1,1
1332,22.0,-16.0,56.0,1644829904.75,P06,D01,1,1,1
1333,21.0,-16.0,56.0,1644829904.78125,P06,D01,1,1,1
1334,22.0,-16.0,56.0,1644829904.8125,P06,D01,1,1,1
1335,21.0,-16.0,56.0,1644829904.84375,P06,D01,1,1,1
1336,22.0,-16.0,56.0,1644829904.875,P06,D01,1,1,1
1337,22.0,-15.0,56.0,1644829904.90625,P06,D01,1,1,1
1338,22.0,-16.0,56.0,1644829904.9375,P06,D01,1,1,1
1339,22.0,-16.0,56.0,1644829904.96875,P06,D01,1,1,1
1340,21.0,-16.0,56.0,1644829905.0,P06,D01,1,1,1
1341,22.0,-16.0,56.0,1644829905.03125,P06,D01,1,1,1
1342,22.0,-16.0,56.0,1644829905.0625,P06,D01,1,1,1
1343,21.0,-16.0,56.0,1644829905.09375,P06,D01,1,1,1
1344,21.0,-16.0,56.0,1644829905.125,P06,D01,1,1,1
1345,21.0,-16.0,56.0,1644829905.15625,P06,D01,1,1,1
1346,21.0,-16.0,56.0,1644829905.1875,P06,D01,1,1,1
1347,21.0,-16.0,56.0,1644829905.21875,P06,D01,1,1,1
1348,22.0,-16.0,56.0,1644829905.25,P06,D01,1,1,1
1349,21.0,-16.0,56.0,1644829905.28125,P06,D01,1,1,1
1350,21.0,-16.0,56.0,1644829905.3125,P06,D01,1,1,1
1351,21.0,-16.0,56.0,1644829905.34375,P06,D01,1,1,1
1352,21.0,-16.0,56.0,1644829905.375,P06,D01,1,1,1
1353,21.0,-16.0,56.0,1644829905.40625,P06,D01,1,1,1
1354,21.0,-16.0,56.0,1644829905.4375,P06,D01,1,1,1
1355,21.0,-16.0,56.0,1644829905.46875,P06,D01,1,1,1
1356,22.0,-16.0,56.0,1644829905.5,P06,D01,1,1,1
1357,22.0,-16.0,56.0,1644829905.53125,P06,D01,1,1,1
1358,21.0,-16.0,56.0,1644829905.5625,P06,D01,1,1,1
1359,22.0,-16.0,56.0,1644829905.59375,P06,D01,1,1,1
1360,22.0,-16.0,56.0,1644829905.625,P06,D01,1,1,1
1361,22.0,-16.0,56.0,1644829905.65625,P06,D01,1,1,1
1362,22.0,-16.0,56.0,1644829905.6875,P06,D01,1,1,1
1363,22.0,-16.0,56.0,1644829905.71875,P06,D01,1,1,1
1364,22.0,-16.0,56.0,1644829905.75,P06,D01,1,1,1
1365,22.0,-16.0,56.0,1644829905.78125,P06,D01,1,1,1
1366,22.0,-16.0,56.0,1644829905.8125,P06,D01,1,1,1
1367,21.0,-16.0,56.0,1644829905.84375,P06,D01,1,1,1
1368,22.0,-16.0,56.0,1644829905.875,P06,D01,1,1,1
1369,22.0,-16.0,56.0,1644829905.90625,P06,D01,1,1,1
1370,22.0,-16.0,56.0,1644829905.9375,P06,D01,1,1,1
1371,21.0,-16.0,56.0,1644829905.96875,P06,D01,1,1,1
1372,21.0,-16.0,56.0,1644829906.0,P06,D01,1,1,1
1373,21.0,-16.0,56.0,1644829906.03125,P06,D01,1,1,1
1374,22.0,-16.0,56.0,1644829906.0625,P06,D01,1,1,1
1375,22.0,-16.0,56.0,1644829906.09375,P06,D01,1,1,1
1376,22.0,-16.0,56.0,1644829906.125,P06,D01,1,1,1
1377,22.0,-16.0,56.0,1644829906.15625,P06,D01,1,1,1
1378,22.0,-16.0,56.0,1644829906.1875,P06,D01,1,1,1
1379,21.0,-16.0,56.0,1644829906.21875,P06,D01,1,1,1
1380,22.0,-16.0,56.0,1644829906.25,P06,D01,1,1,1
1381,21.0,-16.0,56.0,1644829906.28125,P06,D01,1,1,1
1382,21.0,-16.0,56.0,1644829906.3125,P06,D01,1,1,1
1383,21.0,-16.0,56.0,1644829906.34375,P06,D01,1,1,1
1384,21.0,-16.0,56.0,1644829906.375,P06,D01,1,1,1
1385,21.0,-16.0,56.0,1644829906.40625,P06,D01,1,1,1
1386,21.0,-16.0,56.0,1644829906.4375,P06,D01,1,1,1
1387,21.0,-16.0,56.0,1644829906.46875,P06,D01,1,1,1
1388,21.0,-16.0,56.0,1644829906.5,P06,D01,1,1,1
1389,21.0,-16.0,56.0,1644829906.53125,P06,D01,1,1,1
1390,22.0,-16.0,56.0,1644829906.5625,P06,D01,1,1,1
1391,21.0,-16.0,56.0,1644829906.59375,P06,D01,1,1,1
1392,21.0,-16.0,56.0,1644829906.625,P06,D01,1,1,1
1393,21.0,-16.0,56.0,1644829906.65625,P06,D01,1,1,1
1394,21.0,-16.0,56.0,1644829906.6875,P06,D01,1,1,1
1395,21.0,-16.0,56.0,1644829906.71875,P06,D01,1,1,1
1396,22.0,-16.0,56.0,1644829906.75,P06,D01,1,1,1
1397,22.0,-16.0,56.0,1644829906.78125,P06,D01,1,1,1
1398,21.0,-16.0,56.0,1644829906.8125,P06,D01,1,1,1
1399,22.0,-16.0,56.0,1644829906.84375,P06,D01,1,1,1
1400,22.0,-16.0,56.0,1644829906.875,P06,D01,1,1,1
1401,22.0,-16.0,56.0,1644829906.90625,P06,D01,1,1,1
1402,22.0,-16.0,56.0,1644829906.9375,P06,D01,1,1,1
1403,22.0,-16.0,56.0,1644829906.96875,P06,D01,1,1,1
1404,22.0,-16.0,56.0,1644829907.0,P06,D01,1,1,1
1405,22.0,-16.0,56.0,1644829907.03125,P06,D01,1,1,1
1406,21.0,-16.0,56.0,1644829907.0625,P06,D01,1,1,1
1407,21.0,-16.0,56.0,1644829907.09375,P06,D01,1,1,1
1408,22.0,-16.0,56.0,1644829907.125,P06,D01,1,1,1
1409,21.0,-16.0,56.0,1644829907.15625,P06,D01,1,1,1
1410,22.0,-16.0,56.0,1644829907.1875,P06,D01,1,1,1
1411,21.0,-16.0,56.0,1644829907.21875,P06,D01,1,1,1
1412,22.0,-16.0,56.0,1644829907.25,P06,D01,1,1,1
1413,21.0,-16.0,56.0,1644829907.28125,P06,D01,1,1,1
1414,22.0,-16.0,56.0,1644829907.3125,P06,D01,1,1,1
1415,22.0,-16.0,56.0,1644829907.34375,P06,D01,1,1,1
1416,22.0,-16.0,56.0,1644829907.375,P06,D01,1,1,1
1417,22.0,-16.0,56.0,1644829907.40625,P06,D01,1,1,1
1418,22.0,-16.0,56.0,1644829907.4375,P06,D01,1,1,1
1419,21.0,-16.0,56.0,1644829907.46875,P06,D01,1,1,1
1420,21.0,-16.0,56.0,1644829907.5,P06,D01,1,1,1
1421,22.0,-16.0,56.0,1644829907.53125,P06,D01,1,1,1
1422,22.0,-16.0,56.0,1644829907.5625,P06,D01,1,1,1
1423,21.0,-16.0,56.0,1644829907.59375,P06,D01,1,1,1
1424,22.0,-16.0,56.0,1644829907.625,P06,D01,1,1,1
1425,22.0,-16.0,56.0,1644829907.65625,P06,D01,1,1,1
1426,21.0,-16.0,56.0,1644829907.6875,P06,D01,1,1,1
1427,21.0,-16.0,56.0,1644829907.71875,P06,D01,1,1,1
1428,22.0,-16.0,56.0,1644829907.75,P06,D01,1,1,1
1429,21.0,-16.0,56.0,1644829907.78125,P06,D01,1,1,1
1430,21.0,-16.0,56.0,1644829907.8125,P06,D01,1,1,1
1431,21.0,-16.0,56.0,1644829907.84375,P06,D01,1,1,1
1432,21.0,-16.0,56.0,1644829907.875,P06,D01,1,1,1
1433,22.0,-16.0,56.0,1644829907.90625,P06,D01,1,1,1
1434,21.0,-16.0,56.0,1644829907.9375,P06,D01,1,1,1
1435,21.0,-16.0,56.0,1644829907.96875,P06,D01,1,1,1
1436,21.0,-16.0,56.0,1644829908.0,P06,D01,1,1,1
1437,21.0,-16.0,56.0,1644829908.03125,P06,D01,1,1,1
1438,21.0,-16.0,56.0,1644829908.0625,P06,D01,1,1,1
1439,21.0,-16.0,56.0,1644829908.09375,P06,D01,1,1,1
1440,21.0,-16.0,56.0,1644829908.125,P06,D01,1,1,1
1441,21.0,-16.0,57.0,1644829908.15625,P06,D01,1,1,1
1442,21.0,-16.0,56.0,1644829908.1875,P06,D01,1,1,1
1443,21.0,-16.0,56.0,1644829908.21875,P06,D01,1,1,1
1444,21.0,-16.0,56.0,1644829908.25,P06,D01,1,1,1
1445,22.0,-16.0,56.0,1644829908.28125,P06,D01,1,1,1
1446,22.0,-17.0,56.0,1644829908.3125,P06,D01,1,1,1
1447,21.0,-16.0,56.0,1644829908.34375,P06,D01,1,1,1
1448,21.0,-16.0,56.0,1644829908.375,P06,D01,1,1,1
1449,21.0,-16.0,56.0,1644829908.40625,P06,D01,1,1,1
1450,22.0,-16.0,56.0,1644829908.4375,P06,D01,1,1,1
1451,21.0,-16.0,56.0,1644829908.46875,P06,D01,1,1,1
1452,21.0,-16.0,56.0,1644829908.5,P06,D01,1,1,1
1453,21.0,-16.0,56.0,1644829908.53125,P06,D01,1,1,1
1454,22.0,-16.0,56.0,1644829908.5625,P06,D01,1,1,1
1455,21.0,-16.0,56.0,1644829908.59375,P06,D01,1,1,1
1456,22.0,-16.0,56.0,1644829908.625,P06,D01,1,1,1
1457,22.0,-16.0,56.0,1644829908.65625,P06,D01,1,1,1
1458,22.0,-16.0,56.0,1644829908.6875,P06,D01,1,1,1
1459,21.0,-16.0,56.0,1644829908.71875,P06,D01,1,1,1
1460,22.0,-16.0,56.0,1644829908.75,P06,D01,1,1,1
1461,22.0,-16.0,56.0,1644829908.78125,P06,D01,1,1,1
1462,22.0,-16.0,56.0,1644829908.8125,P06,D01,1,1,1
1463,22.0,-16.0,56.0,1644829908.84375,P06,D01,1,1,1
1464,22.0,-16.0,56.0,1644829908.875,P06,D01,1,1,1
1465,22.0,-16.0,56.0,1644829908.90625,P06,D01,1,1,1
1466,22.0,-16.0,56.0,1644829908.9375,P06,D01,1,1,1
1467,22.0,-17.0,56.0,1644829908.96875,P06,D01,1,1,1
1468,21.0,-16.0,56.0,1644829909.0,P06,D01,1,1,1
1469,21.0,-16.0,56.0,1644829909.03125,P06,D01,1,1,1
1470,22.0,-16.0,56.0,1644829909.0625,P06,D01,1,1,1
1471,22.0,-16.0,56.0,1644829909.09375,P06,D01,1,1,1
1472,22.0,-16.0,56.0,1644829909.125,P06,D01,1,1,1
1473,21.0,-16.0,56.0,1644829909.15625,P06,D01,1,1,1
1474,21.0,-16.0,56.0,1644829909.1875,P06,D01,1,1,1
1475,21.0,-16.0,56.0,1644829909.21875,P06,D01,1,1,1
1476,22.0,-16.0,56.0,1644829909.25,P06,D01,1,1,1
1477,22.0,-15.0,56.0,1644829909.28125,P06,D01,1,1,1
1478,22.0,-15.0,56.0,1644829909.3125,P06,D01,1,1,1
1479,24.0,-16.0,56.0,1644829909.34375,P06,D01,1,1,1
1480,23.0,-15.0,56.0,1644829909.375,P06,D01,1,1,1
1481,23.0,-15.0,56.0,1644829909.40625,P06,D01,1,1,1
1482,23.0,-15.0,56.0,1644829909.4375,P06,D01,1,1,1
1483,23.0,-15.0,56.0,1644829909.46875,P06,D01,1,1,1
1484,22.0,-16.0,56.0,1644829909.5,P06,D01,1,1,1
1485,22.0,-16.0,56.0,1644829909.53125,P06,D01,1,1,1
1486,22.0,-16.0,56.0,1644829909.5625,P06,D01,1,1,1
1487,22.0,-16.0,55.0,1644829909.59375,P06,D01,1,1,1
1488,22.0,-16.0,55.0,1644829909.625,P06,D01,1,1,1
1489,22.0,-16.0,55.0,1644829909.65625,P06,D01,1,1,1
1490,22.0,-16.0,56.0,1644829909.6875,P06,D01,1,1,1
1491,22.0,-15.0,56.0,1644829909.71875,P06,D01,1,1,1
1492,22.0,-15.0,56.0,1644829909.75,P06,D01,1,1,1
1493,22.0,-16.0,55.0,1644829909.78125,P06,D01,1,1,1
1494,22.0,-16.0,56.0,1644829909.8125,P06,D01,1,1,1
1495,22.0,-15.0,56.0,1644829909.84375,P06,D01,1,1,1
1496,22.0,-16.0,56.0,1644829909.875,P06,D01,1,1,1
1497,22.0,-16.0,56.0,1644829909.90625,P06,D01,1,1,1
1498,22.0,-16.0,55.0,1644829909.9375,P06,D01,1,1,1
1499,22.0,-16.0,56.0,1644829909.96875,P06,D01,1,1,1
1500,22.0,-16.0,56.0,1644829910.0,P06,D01,1,1,1
1501,22.0,-15.0,56.0,1644829910.03125,P06,D01,1,1,1
1502,22.0,-16.0,56.0,1644829910.0625,P06,D01,1,1,1
1503,22.0,-15.0,56.0,1644829910.09375,P06,D01,1,1,1
1504,22.0,-16.0,56.0,1644829910.125,P06,D01,1,1,1
1505,22.0,-15.0,56.0,1644829910.15625,P06,D01,1,1,1
1506,22.0,-15.0,56.0,1644829910.1875,P06,D01,1,1,1
1507,22.0,-16.0,56.0,1644829910.21875,P06,D01,1,1,1
1508,22.0,-15.0,56.0,1644829910.25,P06,D01,1,1,1
1509,22.0,-15.0,55.0,1644829910.28125,P06,D01,1,1,1
1510,22.0,-16.0,56.0,1644829910.3125,P06,D01,1,1,1
1511,22.0,-16.0,56.0,1644829910.34375,P06,D01,1,1,1
1512,22.0,-16.0,56.0,1644829910.375,P06,D01,1,1,1
1513,22.0,-16.0,56.0,1644829910.40625,P06,D01,1,1,1
1514,22.0,-15.0,56.0,1644829910.4375,P06,D01,1,1,1
1515,22.0,-15.0,56.0,1644829910.46875,P06,D01,1,1,1
1516,22.0,-16.0,56.0,1644829910.5,P06,D01,1,1,1
1517,22.0,-16.0,56.0,1644829910.53125,P06,D01,1,1,1
1518,22.0,-16.0,56.0,1644829910.5625,P06,D01,1,1,1
1519,22.0,-15.0,56.0,1644829910.59375,P06,D01,1,1,1
1520,22.0,-16.0,56.0,1644829910.625,P06,D01,1,1,1
1521,22.0,-16.0,56.0,1644829910.65625,P06,D01,1,1,1
1522,22.0,-16.0,55.0,1644829910.6875,P06,D01,1,1,1
1523,22.0,-16.0,56.0,1644829910.71875,P06,D01,1,1,1
1524,22.0,-16.0,56.0,1644829910.75,P06,D01,1,1,1
1525,22.0,-16.0,56.0,1644829910.78125,P06,D01,1,1,1
1526,22.0,-16.0,56.0,1644829910.8125,P06,D01,1,1,1
1527,22.0,-16.0,56.0,1644829910.84375,P06,D01,1,1,1
1528,22.0,-16.0,56.0,1644829910.875,P06,D01,1,1,1
1529,22.0,-16.0,56.0,1644829910.90625,P06,D01,1,1,1
1530,22.0,-16.0,56.0,1644829910.9375,P06,D01,1,1,1
1531,22.0,-16.0,56.0,1644829910.96875,P06,D01,1,1,1
1532,22.0,-16.0,56.0,1644829911.0,P06,D01,1,1,1
1533,22.0,-16.0,56.0,1644829911.03125,P06,D01,1,1,1
1534,22.0,-16.0,56.0,1644829911.0625,P06,D01,1,1,1
1535,22.0,-16.0,56.0,1644829911.09375,P06,D01,1,1,1
1536,22.0,-16.0,56.0,1644829911.125,P06,D01,1,1,1
1537,22.0,-15.0,56.0,1644829911.15625,P06,D01,1,1,1
1538,22.0,-16.0,56.0,1644829911.1875,P06,D01,1,1,1
1539,22.0,-16.0,56.0,1644829911.21875,P06,D01,1,1,1
1540,22.0,-16.0,56.0,1644829911.25,P06,D01,1,1,1
1541,22.0,-16.0,56.0,1644829911.28125,P06,D01,1,1,1
1542,22.0,-16.0,56.0,1644829911.3125,P06,D01,1,1,1
1543,22.0,-16.0,55.0,1644829911.34375,P06,D01,1,1,1
1544,22.0,-16.0,56.0,1644829911.375,P06,D01,1,1,1
1545,22.0,-16.0,56.0,1644829911.40625,P06,D01,1,1,1
1546,22.0,-15.0,56.0,1644829911.4375,P06,D01,1,1,1
1547,22.0,-16.0,56.0,1644829911.46875,P06,D01,1,1,1
1548,22.0,-16.0,56.0,1644829911.5,P06,D01,1,1,1
1549,22.0,-15.0,56.0,1644829911.53125,P06,D01,1,1,1
1550,22.0,-16.0,56.0,1644829911.5625,P06,D01,1,1,1
1551,22.0,-16.0,56.0,1644829911.59375,P06,D01,1,1,1
1552,22.0,-16.0,55.0,1644829911.625,P06,D01,1,1,1
1553,22.0,-15.0,56.0,1644829911.65625,P06,D01,1,1,1
1554,23.0,-15.0,56.0,1644829911.6875,P06,D01,1,1,1
1555,22.0,-15.0,56.0,1644829911.71875,P06,D01,1,1,1
1556,22.0,-15.0,56.0,1644829911.75,P06,D01,1,1,1
1557,22.0,-15.0,56.0,1644829911.78125,P06,D01,1,1,1
1558,22.0,-15.0,56.0,1644829911.8125,P06,D01,1,1,1
1559,22.0,-16.0,56.0,1644829911.84375,P06,D01,1,1,1
1560,22.0,-16.0,56.0,1644829911.875,P06,D01,1,1,1
1561,22.0,-16.0,56.0,1644829911.90625,P06,D01,1,1,1
1562,22.0,-16.0,56.0,1644829911.9375,P06,D01,1,1,1
1563,22.0,-15.0,56.0,1644829911.96875,P06,D01,1,1,1
1564,23.0,-15.0,56.0,1644829912.0,P06,D01,1,1,1
1565,22.0,-15.0,56.0,1644829912.03125,P06,D01,1,1,1
1566,22.0,-15.0,56.0,1644829912.0625,P06,D01,1,1,1
1567,22.0,-15.0,56.0,1644829912.09375,P06,D01,1,1,1
1568,22.0,-16.0,56.0,1644829912.125,P06,D01,1,1,1
1569,22.0,-15.0,56.0,1644829912.15625,P06,D01,1,1,1
1570,22.0,-15.0,56.0,1644829912.1875,P06,D01,1,1,1
1571,23.0,-16.0,56.0,1644829912.21875,P06,D01,1,1,1
1572,22.0,-16.0,56.0,1644829912.25,P06,D01,1,1,1
1573,22.0,-15.0,56.0,1644829912.28125,P06,D01,1,1,1
1574,23.0,-16.0,56.0,1644829912.3125,P06,D01,1,1,1
1575,22.0,-16.0,56.0,1644829912.34375,P06,D01,1,1,1
1576,22.0,-15.0,56.0,1644829912.375,P06,D01,1,1,1
1577,22.0,-15.0,56.0,1644829912.40625,P06,D01,1,1,1
1578,22.0,-15.0,56.0,1644829912.4375,P06,D01,1,1,1
1579,22.0,-15.0,56.0,1644829912.46875,P06,D01,1,1,1
1580,22.0,-16.0,56.0,1644829912.5,P06,D01,1,1,1
1581,22.0,-16.0,55.0,1644829912.53125,P06,D01,1,1,1
1582,22.0,-16.0,56.0,1644829912.5625,P06,D01,1,1,1
1583,22.0,-15.0,56.0,1644829912.59375,P06,D01,1,1,1
1584,22.0,-15.0,56.0,1644829912.625,P06,D01,1,1,1
1585,22.0,-16.0,56.0,1644829912.65625,P06,D01,1,1,1
1586,22.0,-16.0,56.0,1644829912.6875,P06,D01,1,1,1
1587,22.0,-16.0,56.0,1644829912.71875,P06,D01,1,1,1
1588,22.0,-16.0,56.0,1644829912.75,P06,D01,1,1,1
1589,22.0,-16.0,56.0,1644829912.78125,P06,D01,1,1,1
1590,22.0,-16.0,56.0,1644829912.8125,P06,D01,1,1,1
1591,22.0,-16.0,56.0,1644829912.84375,P06,D01,1,1,1
1592,22.0,-16.0,56.0,1644829912.875,P06,D01,1,1,1
1593,22.0,-16.0,56.0,1644829912.90625,P06,D01,1,1,1
1594,22.0,-16.0,56.0,1644829912.9375,P06,D01,1,1,1
1595,22.0,-16.0,56.0,1644829912.96875,P06,D01,1,1,1
1596,22.0,-16.0,56.0,1644829913.0,P06,D01,1,1,1
1597,22.0,-16.0,56.0,1644829913.03125,P06,D01,1,1,1
1598,22.0,-15.0,56.0,1644829913.0625,P06,D01,1,1,1
1599,22.0,-16.0,56.0,1644829913.09375,P06,D01,1,1,1
1600,22.0,-16.0,56.0,1644829913.125,P06,D01,1,1,1
1601,22.0,-16.0,56.0,1644829913.15625,P06,D01,1,1,1
1602,22.0,-15.0,56.0,1644829913.1875,P06,D01,1,1,1
1603,22.0,-16.0,56.0,1644829913.21875,P06,D01,1,1,1
1604,22.0,-16.0,56.0,1644829913.25,P06,D01,1,1,1
1605,22.0,-16.0,56.0,1644829913.28125,P06,D01,1,1,1
1606,22.0,-16.0,56.0,1644829913.3125,P06,D01,1,1,1
1607,23.0,-15.0,56.0,1644829913.34375,P06,D01,1,1,1
1608,22.0,-15.0,56.0,1644829913.375,P06,D01,1,1,1
1609,22.0,-16.0,56.0,1644829913.40625,P06,D01,1,1,1
1610,22.0,-15.0,55.0,1644829913.4375,P06,D01,1,1,1
1611,22.0,-15.0,56.0,1644829913.46875,P06,D01,1,1,1
1612,22.0,-16.0,56.0,1644829913.5,P06,D01,1,1,1
1613,22.0,-16.0,56.0,1644829913.53125,P06,D01,1,1,1
1614,22.0,-16.0,56.0,1644829913.5625,P06,D01,1,1,1
1615,22.0,-16.0,56.0,1644829913.59375,P06,D01,1,1,1
1616,22.0,-15.0,56.0,1644829913.625,P06,D01,1,1,1
1617,22.0,-15.0,56.0,1644829913.65625,P06,D01,1,1,1
1618,22.0,-15.0,56.0,1644829913.6875,P06,D01,1,1,1
1619,22.0,-15.0,56.0,1644829913.71875,P06,D01,1,1,1
1620,22.0,-16.0,56.0,1644829913.75,P06,D01,1,1,1
1621,22.0,-16.0,56.0,1644829913.78125,P06,D01,1,1,1
1622,22.0,-16.0,56.0,1644829913.8125,P06,D01,1,1,1
1623,22.0,-16.0,56.0,1644829913.84375,P06,D01,1,1,1
1624,22.0,-16.0,56.0,1644829913.875,P06,D01,1,1,1
1625,22.0,-16.0,56.0,1644829913.90625,P06,D01,1,1,1
1626,22.0,-16.0,55.0,1644829913.9375,P06,D01,1,1,1
1627,22.0,-16.0,56.0,1644829913.96875,P06,D01,1,1,1
1628,22.0,-15.0,56.0,1644829914.0,P06,D01,1,1,1
1629,22.0,-16.0,56.0,1644829914.03125,P06,D01,1,1,1
1630,22.0,-16.0,56.0,1644829914.0625,P06,D01,1,1,1
1631,22.0,-16.0,55.0,1644829914.09375,P06,D01,1,1,1
1632,22.0,-16.0,55.0,1644829914.125,P06,D01,1,1,1
1633,22.0,-16.0,56.0,1644829914.15625,P06,D01,1,1,1
1634,22.0,-16.0,56.0,1644829914.1875,P06,D01,1,1,1
1635,22.0,-16.0,56.0,1644829914.21875,P06,D01,1,1,1
1636,22.0,-15.0,56.0,1644829914.25,P06,D01,1,1,1
1637,22.0,-15.0,56.0,1644829914.28125,P06,D01,1,1,1
1638,22.0,-15.0,56.0,1644829914.3125,P06,D01,1,1,1
1639,22.0,-15.0,56.0,1644829914.34375,P06,D01,1,1,1
1640,22.0,-16.0,56.0,1644829914.375,P06,D01,1,1,1
1641,22.0,-16.0,56.0,1644829914.40625,P06,D01,1,1,1
1642,22.0,-15.0,56.0,1644829914.4375,P06,D01,1,1,1
1643,22.0,-16.0,56.0,1644829914.46875,P06,D01,1,1,1
1644,22.0,-16.0,56.0,1644829914.5,P06,D01,1,1,1
1645,22.0,-15.0,56.0,1644829914.53125,P06,D01,1,1,1
1646,22.0,-15.0,56.0,1644829914.5625,P06,D01,1,1,1
1647,22.0,-15.0,56.0,1644829914.59375,P06,D01,1,1,1
1648,22.0,-16.0,56.0,1644829914.625,P06,D01,1,1,1
1649,22.0,-16.0,56.0,1644829914.65625,P06,D01,1,1,1
1650,22.0,-16.0,56.0,1644829914.6875,P06,D01,1,1,1
1651,22.0,-16.0,56.0,1644829914.71875,P06,D01,1,1,1
1652,22.0,-16.0,56.0,1644829914.75,P06,D01,1,1,1
1653,22.0,-15.0,55.0,1644829914.78125,P06,D01,1,1,1
1654,22.0,-15.0,55.0,1644829914.8125,P06,D01,1,1,1
1655,22.0,-16.0,56.0,1644829914.84375,P06,D01,1,1,1
1656,22.0,-16.0,56.0,1644829914.875,P06,D01,1,1,1
1657,22.0,-16.0,56.0,1644829914.90625,P06,D01,1,1,1
1658,22.0,-16.0,56.0,1644829914.9375,P06,D01,1,1,1
1659,22.0,-16.0,56.0,1644829914.96875,P06,D01,1,1,1
1660,22.0,-16.0,56.0,1644829915.0,P06,D01,1,1,1
1661,22.0,-15.0,56.0,1644829915.03125,P06,D01,1,1,1
1662,22.0,-16.0,55.0,1644829915.0625,P06,D01,1,1,1
1663,22.0,-16.0,56.0,1644829915.09375,P06,D01,1,1,1
1664,22.0,-16.0,56.0,1644829915.125,P06,D01,1,1,1
1665,22.0,-16.0,56.0,1644829915.15625,P06,D01,1,1,1
1666,22.0,-15.0,56.0,1644829915.1875,P06,D01,1,1,1
1667,22.0,-16.0,56.0,1644829915.21875,P06,D01,1,1,1
1668,22.0,-15.0,56.0,1644829915.25,P06,D01,1,1,1
1669,23.0,-15.0,56.0,1644829915.28125,P06,D01,1,1,1
1670,22.0,-16.0,56.0,1644829915.3125,P06,D01,1,1,1
1671,23.0,-15.0,56.0,1644829915.34375,P06,D01,1,1,1
1672,22.0,-15.0,56.0,1644829915.375,P06,D01,1,1,1
1673,22.0,-16.0,56.0,1644829915.40625,P06,D01,1,1,1
1674,21.0,-16.0,55.0,1644829915.4375,P06,D01,1,1,1
1675,22.0,-16.0,56.0,1644829915.46875,P06,D01,1,1,1
1676,22.0,-16.0,56.0,1644829915.5,P06,D01,1,1,1
1677,22.0,-15.0,56.0,1644829915.53125,P06,D01,1,1,1
1678,22.0,-16.0,56.0,1644829915.5625,P06,D01,1,1,1
1679,22.0,-16.0,55.0,1644829915.59375,P06,D01,1,1,1
1680,22.0,-15.0,56.0,1644829915.625,P06,D01,1,1,1
1681,22.0,-15.0,56.0,1644829915.65625,P06,D01,1,1,1
1682,22.0,-15.0,56.0,1644829915.6875,P06,D01,1,1,1
1683,22.0,-16.0,56.0,1644829915.71875,P06,D01,1,1,1
1684,22.0,-16.0,56.0,1644829915.75,P06,D01,1,1,1
1685,22.0,-15.0,56.0,1644829915.78125,P06,D01,1,1,1
1686,22.0,-16.0,56.0,1644829915.8125,P06,D01,1,1,1
1687,23.0,-15.0,55.0,1644829915.84375,P06,D01,1,1,1
1688,23.0,-15.0,56.0,1644829915.875,P06,D01,1,1,1
1689,23.0,-15.0,56.0,1644829915.90625,P06,D01,1,1,1
1690,22.0,-15.0,56.0,1644829915.9375,P06,D01,1,1,1
1691,22.0,-15.0,56.0,1644829915.96875,P06,D01,1,1,1
1692,23.0,-16.0,56.0,1644829916.0,P06,D01,1,1,1
1693,22.0,-15.0,56.0,1644829916.03125,P06,D01,1,1,1
1694,22.0,-15.0,56.0,1644829916.0625,P06,D01,1,1,1
1695,22.0,-16.0,56.0,1644829916.09375,P06,D01,1,1,1
1696,22.0,-15.0,56.0,1644829916.125,P06,D01,1,1,1
1697,22.0,-15.0,56.0,1644829916.15625,P06,D01,1,1,1
1698,22.0,-16.0,56.0,1644829916.1875,P06,D01,1,1,1
1699,22.0,-16.0,56.0,1644829916.21875,P06,D01,1,1,1
1700,22.0,-15.0,56.0,1644829916.25,P06,D01,1,1,1
1701,22.0,-16.0,56.0,1644829916.28125,P06,D01,1,1,1
1702,22.0,-15.0,56.0,1644829916.3125,P06,D01,1,1,1
1703,22.0,-15.0,56.0,1644829916.34375,P06,D01,1,1,1
1704,22.0,-15.0,56.0,1644829916.375,P06,D01,1,1,1
1705,22.0,-16.0,56.0,1644829916.40625,P06,D01,1,1,1
1706,22.0,-16.0,56.0,1644829916.4375,P06,D01,1,1,1
1707,22.0,-16.0,56.0,1644829916.46875,P06,D01,1,1,1
1708,22.0,-16.0,56.0,1644829916.5,P06,D01,1,1,1
1709,22.0,-16.0,56.0,1644829916.53125,P06,D01,1,1,1
1710,22.0,-15.0,56.0,1644829916.5625,P06,D01,1,1,1
1711,22.0,-16.0,56.0,1644829916.59375,P06,D01,1,1,1
1712,22.0,-15.0,56.0,1644829916.625,P06,D01,1,1,1
1713,22.0,-15.0,56.0,1644829916.65625,P06,D01,1,1,1
1714,22.0,-16.0,56.0,1644829916.6875,P06,D01,1,1,1
1715,22.0,-16.0,56.0,1644829916.71875,P06,D01,1,1,1
1716,22.0,-16.0,56.0,1644829916.75,P06,D01,1,1,1
1717,22.0,-16.0,56.0,1644829916.78125,P06,D01,1,1,1
1718,22.0,-16.0,56.0,1644829916.8125,P06,D01,1,1,1
1719,22.0,-15.0,55.0,1644829916.84375,P06,D01,1,1,1
1720,22.0,-16.0,56.0,1644829916.875,P06,D01,1,1,1
1721,22.0,-16.0,56.0,1644829916.90625,P06,D01,1,1,1
1722,22.0,-16.0,56.0,1644829916.9375,P06,D01,1,1,1
1723,22.0,-16.0,56.0,1644829916.96875,P06,D01,1,1,1
1724,22.0,-16.0,55.0,1644829917.0,P06,D01,1,1,1
1725,22.0,-16.0,56.0,1644829917.03125,P06,D01,1,1,1
1726,22.0,-16.0,56.0,1644829917.0625,P06,D01,1,1,1
1727,22.0,-16.0,56.0,1644829917.09375,P06,D01,1,1,1
1728,22.0,-16.0,56.0,1644829917.125,P06,D01,1,1,1
1729,22.0,-16.0,56.0,1644829917.15625,P06,D01,1,1,1
1730,22.0,-16.0,56.0,1644829917.1875,P06,D01,1,1,1
1731,22.0,-16.0,56.0,1644829917.21875,P06,D01,1,1,1
1732,22.0,-16.0,56.0,1644829917.25,P06,D01,1,1,1
1733,22.0,-16.0,56.0,1644829917.28125,P06,D01,1,1,1
1734,22.0,-15.0,56.0,1644829917.3125,P06,D01,1,1,1
1735,21.0,-16.0,56.0,1644829917.34375,P06,D01,1,1,1
1736,24.0,-15.0,56.0,1644829917.375,P06,D01,1,1,1
1737,23.0,-15.0,56.0,1644829917.40625,P06,D01,1,1,1
1738,22.0,-15.0,56.0,1644829917.4375,P06,D01,1,1,1
1739,22.0,-15.0,56.0,1644829917.46875,P06,D01,1,1,1
1740,23.0,-15.0,56.0,1644829917.5,P06,D01,1,1,1
1741,22.0,-16.0,56.0,1644829917.53125,P06,D01,1,1,1
1742,22.0,-16.0,56.0,1644829917.5625,P06,D01,1,1,1
1743,22.0,-15.0,56.0,1644829917.59375,P06,D01,1,1,1
1744,23.0,-16.0,56.0,1644829917.625,P06,D01,1,1,1
1745,22.0,-15.0,56.0,1644829917.65625,P06,D01,1,1,1
1746,22.0,-15.0,56.0,1644829917.6875,P06,D01,1,1,1
1747,22.0,-15.0,56.0,1644829917.71875,P06,D01,1,1,1
1748,22.0,-15.0,56.0,1644829917.75,P06,D01,1,1,1
1749,22.0,-15.0,56.0,1644829917.78125,P06,D01,1,1,1
1750,22.0,-16.0,56.0,1644829917.8125,P06,D01,1,1,1
1751,22.0,-16.0,55.0,1644829917.84375,P06,D01,1,1,1
1752,22.0,-16.0,56.0,1644829917.875,P06,D01,1,1,1
1753,22.0,-15.0,56.0,1644829917.90625,P06,D01,1,1,1
1754,22.0,-15.0,56.0,1644829917.9375,P06,D01,1,1,1
1755,22.0,-15.0,56.0,1644829917.96875,P06,D01,1,1,1
1756,22.0,-15.0,55.0,1644829918.0,P06,D01,1,1,1
1757,22.0,-15.0,56.0,1644829918.03125,P06,D01,1,1,1
1758,22.0,-16.0,56.0,1644829918.0625,P06,D01,1,1,1
1759,22.0,-16.0,56.0,1644829918.09375,P06,D01,1,1,1
1760,22.0,-15.0,56.0,1644829918.125,P06,D01,1,1,1
1761,22.0,-15.0,56.0,1644829918.15625,P06,D01,1,1,1
1762,22.0,-16.0,56.0,1644829918.1875,P06,D01,1,1,1
1763,22.0,-16.0,56.0,1644829918.21875,P06,D01,1,1,1
1764,22.0,-16.0,56.0,1644829918.25,P06,D01,1,1,1
1765,22.0,-15.0,56.0,1644829918.28125,P06,D01,1,1,1
1766,22.0,-15.0,56.0,1644829918.3125,P06,D01,1,1,1
1767,22.0,-15.0,56.0,1644829918.34375,P06,D01,1,1,1
1768,22.0,-15.0,56.0,1644829918.375,P06,D01,1,1,1
1769,22.0,-16.0,56.0,1644829918.40625,P06,D01,1,1,1
1770,22.0,-16.0,56.0,1644829918.4375,P06,D01,1,1,1
1771,22.0,-16.0,56.0,1644829918.46875,P06,D01,1,1,1
1772,22.0,-16.0,56.0,1644829918.5,P06,D01,1,1,1
1773,22.0,-16.0,56.0,1644829918.53125,P06,D01,1,1,1
1774,22.0,-16.0,56.0,1644829918.5625,P06,D01,1,1,1
1775,22.0,-16.0,56.0,1644829918.59375,P06,D01,1,1,1
1776,22.0,-16.0,56.0,1644829918.625,P06,D01,1,1,1
1777,22.0,-16.0,56.0,1644829918.65625,P06,D01,1,1,1
1778,22.0,-16.0,56.0,1644829918.6875,P06,D01,1,1,1
1779,22.0,-16.0,56.0,1644829918.71875,P06,D01,1,1,1
1780,22.0,-16.0,56.0,1644829918.75,P06,D01,1,1,1
1781,22.0,-16.0,56.0,1644829918.78125,P06,D01,1,1,1
1782,23.0,-15.0,56.0,1644829918.8125,P06,D01,1,1,1
1783,23.0,-16.0,56.0,1644829918.84375,P06,D01,1,1,1
1784,22.0,-16.0,56.0,1644829918.875,P06,D01,1,1,1
1785,22.0,-16.0,56.0,1644829918.90625,P06,D01,1,1,1
1786,22.0,-15.0,56.0,1644829918.9375,P06,D01,1,1,1
1787,22.0,-15.0,56.0,1644829918.96875,P06,D01,1,1,1
1788,22.0,-15.0,56.0,1644829919.0,P06,D01,1,1,1
1789,22.0,-15.0,56.0,1644829919.03125,P06,D01,1,1,1
1790,23.0,-15.0,56.0,1644829919.0625,P06,D01,1,1,1
1791,22.0,-16.0,56.0,1644829919.09375,P06,D01,1,1,1
1792,22.0,-16.0,55.0,1644829919.125,P06,D01,1,1,1
1793,22.0,-16.0,56.0,1644829919.15625,P06,D01,1,1,1
1794,22.0,-16.0,56.0,1644829919.1875,P06,D01,1,1,1
1795,22.0,-16.0,56.0,1644829919.21875,P06,D01,1,1,1
1796,22.0,-16.0,55.0,1644829919.25,P06,D01,1,1,1
1797,22.0,-15.0,56.0,1644829919.28125,P06,D01,1,1,1
1798,22.0,-15.0,56.0,1644829919.3125,P06,D01,1,1,1
1799,22.0,-15.0,56.0,1644829919.34375,P06,D01,1,1,1
1800,22.0,-16.0,56.0,1644829919.375,P06,D01,1,1,1
1801,22.0,-16.0,56.0,1644829919.40625,P06,D01,1,1,1
1802,22.0,-15.0,56.0,1644829919.4375,P06,D01,1,1,1
1803,22.0,-16.0,56.0,1644829919.46875,P06,D01,1,1,1
1804,23.0,-16.0,56.0,1644829919.5,P06,D01,1,1,1
1805,22.0,-15.0,56.0,1644829919.53125,P06,D01,1,1,1
1806,23.0,-16.0,56.0,1644829919.5625,P06,D01,1,1,1
1807,22.0,-16.0,56.0,1644829919.59375,P06,D01,1,1,1
1808,22.0,-15.0,56.0,1644829919.625,P06,D01,1,1,1
1809,23.0,-15.0,56.0,1644829919.65625,P06,D01,1,1,1
1810,23.0,-15.0,56.0,1644829919.6875,P06,D01,1,1,1
1811,22.0,-16.0,55.0,1644829919.71875,P06,D01,1,1,1
1812,22.0,-16.0,55.0,1644829919.75,P06,D01,1,1,1
1813,22.0,-16.0,56.0,1644829919.78125,P06,D01,1,1,1
1814,23.0,-15.0,56.0,1644829919.8125,P06,D01,1,1,1
1815,22.0,-16.0,55.0,1644829919.84375,P06,D01,1,1,1
1816,22.0,-16.0,56.0,1644829919.875,P06,D01,1,1,1
1817,23.0,-15.0,56.0,1644829919.90625,P06,D01,1,1,1
1818,23.0,-15.0,56.0,1644829919.9375,P06,D01,1,1,1
1819,22.0,-16.0,56.0,1644829919.96875,P06,D01,1,1,1
1820,22.0,-15.0,56.0,1644829920.0,P06,D01,1,1,1
1821,22.0,-15.0,56.0,1644829920.03125,P06,D01,1,1,1
1822,22.0,-15.0,56.0,1644829920.0625,P06,D01,1,1,1
1823,22.0,-15.0,55.0,1644829920.09375,P06,D01,1,1,1
1824,22.0,-16.0,56.0,1644829920.125,P06,D01,1,1,1
1825,23.0,-16.0,56.0,1644829920.15625,P06,D01,1,1,1
1826,22.0,-16.0,56.0,1644829920.1875,P06,D01,1,1,1
1827,22.0,-16.0,56.0,1644829920.21875,P06,D01,1,1,1
1828,22.0,-16.0,56.0,1644829920.25,P06,D01,1,1,1
1829,22.0,-16.0,56.0,1644829920.28125,P06,D01,1,1,1
1830,22.0,-16.0,56.0,1644829920.3125,P06,D01,1,1,1
1831,22.0,-16.0,56.0,1644829920.34375,P06,D01,1,1,1
1832,22.0,-16.0,56.0,1644829920.375,P06,D01,1,1,1
1833,22.0,-16.0,56.0,1644829920.40625,P06,D01,1,1,1
1834,22.0,-16.0,56.0,1644829920.4375,P06,D01,1,1,1
1835,22.0,-16.0,56.0,1644829920.46875,P06,D01,1,1,1
1836,22.0,-16.0,56.0,1644829920.5,P06,D01,1,1,1
1837,22.0,-16.0,56.0,1644829920.53125,P06,D01,1,1,1
1838,22.0,-16.0,56.0,1644829920.5625,P06,D01,1,1,1
1839,22.0,-16.0,56.0,1644829920.59375,P06,D01,1,1,1
1840,22.0,-16.0,56.0,1644829920.625,P06,D01,1,1,1
1841,22.0,-16.0,56.0,1644829920.65625,P06,D01,1,1,1
1842,22.0,-16.0,56.0,1644829920.6875,P06,D01,1,1,1
1843,22.0,-16.0,56.0,1644829920.71875,P06,D01,1,1,1
1844,22.0,-16.0,55.0,1644829920.75,P06,D01,1,1,1
1845,22.0,-16.0,55.0,1644829920.78125,P06,D01,1,1,1
1846,22.0,-16.0,56.0,1644829920.8125,P06,D01,1,1,1
1847,22.0,-16.0,56.0,1644829920.84375,P06,D01,1,1,1
1848,22.0,-16.0,56.0,1644829920.875,P06,D01,1,1,1
1849,22.0,-16.0,56.0,1644829920.90625,P06,D01,1,1,1
1850,22.0,-16.0,56.0,1644829920.9375,P06,D01,1,1,1
1851,22.0,-16.0,56.0,1644829920.96875,P06,D01,1,1,1
1852,22.0,-16.0,56.0,1644829921.0,P06,D01,1,1,1
1853,22.0,-16.0,56.0,1644829921.03125,P06,D01,1,1,1
1854,22.0,-16.0,56.0,1644829921.0625,P06,D01,1,1,1
1855,22.0,-16.0,56.0,1644829921.09375,P06,D01,1,1,1
1856,22.0,-16.0,56.0,1644829921.125,P06,D01,1,1,1
1857,22.0,-16.0,56.0,1644829921.15625,P06,D01,1,1,1
1858,22.0,-16.0,56.0,1644829921.1875,P06,D01,1,1,1
1859,22.0,-16.0,56.0,1644829921.21875,P06,D01,1,1,1
1860,22.0,-16.0,56.0,1644829921.25,P06,D01,1,1,1
1861,22.0,-16.0,56.0,1644829921.28125,P06,D01,1,1,1
1862,22.0,-16.0,56.0,1644829921.3125,P06,D01,1,1,1
1863,22.0,-16.0,56.0,1644829921.34375,P06,D01,1,1,1
1864,22.0,-16.0,56.0,1644829921.375,P06,D01,1,1,1
1865,22.0,-16.0,56.0,1644829921.40625,P06,D01,1,1,1
1866,22.0,-16.0,56.0,1644829921.4375,P06,D01,1,1,1
1867,22.0,-16.0,56.0,1644829921.46875,P06,D01,1,1,1
1868,22.0,-16.0,56.0,1644829921.5,P06,D01,1,1,1
1869,22.0,-16.0,56.0,1644829921.53125,P06,D01,1,1,1
1870,22.0,-16.0,55.0,1644829921.5625,P06,D01,1,1,1
1871,22.0,-15.0,56.0,1644829921.59375,P06,D01,1,1,1
1872,22.0,-15.0,56.0,1644829921.625,P06,D01,1,1,1
1873,22.0,-16.0,56.0,1644829921.65625,P06,D01,1,1,1
1874,22.0,-16.0,56.0,1644829921.6875,P06,D01,1,1,1
1875,22.0,-16.0,56.0,1644829921.71875,P06,D01,1,1,1
1876,22.0,-16.0,56.0,1644829921.75,P06,D01,1,1,1
1877,22.0,-16.0,56.0,1644829921.78125,P06,D01,1,1,1
1878,23.0,-16.0,56.0,1644829921.8125,P06,D01,1,1,1
1879,22.0,-16.0,56.0,1644829921.84375,P06,D01,1,1,1
1880,22.0,-16.0,56.0,1644829921.875,P06,D01,1,1,1
1881,22.0,-16.0,56.0,1644829921.90625,P06,D01,1,1,1
1882,22.0,-16.0,56.0,1644829921.9375,P06,D01,1,1,1
1883,22.0,-15.0,56.0,1644829921.96875,P06,D01,1,1,1
1884,22.0,-15.0,56.0,1644829922.0,P06,D01,1,1,1
1885,22.0,-16.0,56.0,1644829922.03125,P06,D01,1,1,1
1886,22.0,-15.0,56.0,1644829922.0625,P06,D01,1,1,1
1887,22.0,-15.0,55.0,1644829922.09375,P06,D01,1,1,1
1888,22.0,-16.0,55.0,1644829922.125,P06,D01,1,1,1
1889,22.0,-16.0,56.0,1644829922.15625,P06,D01,1,1,1
1890,22.0,-16.0,56.0,1644829922.1875,P06,D01,1,1,1
1891,23.0,-16.0,56.0,1644829922.21875,P06,D01,1,1,1
1892,22.0,-15.0,56.0,1644829922.25,P06,D01,1,1,1
1893,22.0,-16.0,56.0,1644829922.28125,P06,D01,1,1,1
1894,22.0,-15.0,56.0,1644829922.3125,P06,D01,1,1,1
1895,22.0,-15.0,56.0,1644829922.34375,P06,D01,1,1,1
1896,22.0,-16.0,56.0,1644829922.375,P06,D01,1,1,1
1897,22.0,-15.0,56.0,1644829922.40625,P06,D01,1,1,1
1898,22.0,-16.0,55.0,1644829922.4375,P06,D01,1,1,1
1899,22.0,-16.0,56.0,1644829922.46875,P06,D01,1,1,1
1900,22.0,-16.0,56.0,1644829922.5,P06,D01,1,1,1
1901,22.0,-16.0,56.0,1644829922.53125,P06,D01,1,1,1
1902,22.0,-16.0,56.0,1644829922.5625,P06,D01,1,1,1
1903,22.0,-16.0,56.0,1644829922.59375,P06,D01,1,1,1
1904,22.0,-16.0,56.0,1644829922.625,P06,D01,1,1,1
1905,22.0,-16.0,56.0,1644829922.65625,P06,D01,1,1,1
1906,22.0,-16.0,56.0,1644829922.6875,P06,D01,1,1,1
1907,22.0,-16.0,56.0,1644829922.71875,P06,D01,1,1,1
1908,22.0,-16.0,56.0,1644829922.75,P06,D01,1,1,1
1909,22.0,-16.0,56.0,1644829922.78125,P06,D01,1,1,1
1910,22.0,-16.0,56.0,1644829922.8125,P06,D01,1,1,1
1911,22.0,-16.0,55.0,1644829922.84375,P06,D01,1,1,1
1912,22.0,-16.0,56.0,1644829922.875,P06,D01,1,1,1
1913,22.0,-16.0,56.0,1644829922.90625,P06,D01,1,1,1
1914,22.0,-15.0,56.0,1644829922.9375,P06,D01,1,1,1
1915,22.0,-16.0,56.0,1644829922.96875,P06,D01,1,1,1
1916,22.0,-16.0,55.0,1644829923.0,P06,D01,1,1,1
1917,22.0,-16.0,56.0,1644829923.03125,P06,D01,1,1,1
1918,22.0,-16.0,56.0,1644829923.0625,P06,D01,1,1,1
1919,22.0,-16.0,56.0,1644829923.09375,P06,D01,1,1,1
1920,22.0,-16.0,56.0,1644829923.125,P06,D01,1,1,1
1921,22.0,-16.0,56.0,1644829923.15625,P06,D01,1,1,1
1922,22.0,-16.0,56.0,1644829923.1875,P06,D01,1,1,1
1923,22.0,-16.0,56.0,1644829923.21875,P06,D01,1,1,1
1924,22.0,-16.0,56.0,1644829923.25,P06,D01,1,1,1
1925,23.0,-15.0,56.0,1644829923.28125,P06,D01,1,1,1
1926,22.0,-15.0,56.0,1644829923.3125,P06,D01,1,1,1
1927,22.0,-16.0,56.0,1644829923.34375,P06,D01,1,1,1
1928,22.0,-16.0,56.0,1644829923.375,P06,D01,1,1,1
1929,22.0,-15.0,56.0,1644829923.40625,P06,D01,1,1,1
1930,22.0,-16.0,55.0,1644829923.4375,P06,D01,1,1,1
1931,22.0,-16.0,56.0,1644829923.46875,P06,D01,1,1,1
1932,22.0,-16.0,56.0,1644829923.5,P06,D01,1,1,1
1933,22.0,-16.0,56.0,1644829923.53125,P06,D01,1,1,1
1934,22.0,-16.0,56.0,1644829923.5625,P06,D01,1,1,1
1935,22.0,-16.0,56.0,1644829923.59375,P06,D01,1,1,1
1936,22.0,-15.0,56.0,1644829923.625,P06,D01,1,1,1
1937,22.0,-15.0,56.0,1644829923.65625,P06,D01,1,1,1
1938,22.0,-15.0,56.0,1644829923.6875,P06,D01,1,1,1
1939,22.0,-16.0,56.0,1644829923.71875,P06,D01,1,1,1
1940,22.0,-16.0,56.0,1644829923.75,P06,D01,1,1,1
1941,22.0,-16.0,56.0,1644829923.78125,P06,D01,1,1,1
1942,22.0,-15.0,56.0,1644829923.8125,P06,D01,1,1,1
1943,22.0,-16.0,56.0,1644829923.84375,P06,D01,1,1,1
1944,22.0,-16.0,56.0,1644829923.875,P06,D01,1,1,1
1945,22.0,-16.0,56.0,1644829923.90625,P06,D01,1,1,1
1946,23.0,-16.0,56.0,1644829923.9375,P06,D01,1,1,1
1947,23.0,-15.0,56.0,1644829923.96875,P06,D01,1,1,1
1948,22.0,-16.0,56.0,1644829924.0,P06,D01,1,1,1
1949,22.0,-16.0,56.0,1644829924.03125,P06,D01,1,1,1
1950,22.0,-16.0,56.0,1644829924.0625,P06,D01,1,1,1
1951,22.0,-15.0,56.0,1644829924.09375,P06,D01,1,1,1
1952,22.0,-16.0,56.0,1644829924.125,P06,D01,1,1,1
1953,22.0,-16.0,56.0,1644829924.15625,P06,D01,1,1,1
1954,22.0,-15.0,56.0,1644829924.1875,P06,D01,1,1,1
1955,23.0,-15.0,56.0,1644829924.21875,P06,D01,1,1,1
1956,23.0,-15.0,56.0,1644829924.25,P06,D01,1,1,1
1957,22.0,-16.0,56.0,1644829924.28125,P06,D01,1,1,1
1958,22.0,-15.0,56.0,1644829924.3125,P06,D01,1,1,1
1959,22.0,-15.0,56.0,1644829924.34375,P06,D01,1,1,1
1960,22.0,-15.0,56.0,1644829924.375,P06,D01,1,1,1
1961,22.0,-16.0,56.0,1644829924.40625,P06,D01,1,1,1
1962,22.0,-16.0,56.0,1644829924.4375,P06,D01,1,1,1
1963,22.0,-16.0,56.0,1644829924.46875,P06,D01,1,1,1
1964,22.0,-16.0,56.0,1644829924.5,P06,D01,1,1,1
1965,22.0,-16.0,56.0,1644829924.53125,P06,D01,1,1,1
1966,22.0,-16.0,56.0,1644829924.5625,P06,D01,1,1,1
1967,22.0,-16.0,56.0,1644829924.59375,P06,D01,1,1,1
1968,22.0,-16.0,56.0,1644829924.625,P06,D01,1,1,1
1969,22.0,-16.0,56.0,1644829924.65625,P06,D01,1,1,1
1970,22.0,-16.0,56.0,1644829924.6875,P06,D01,1,1,1
1971,22.0,-16.0,56.0,1644829924.71875,P06,D01,1,1,1
1972,22.0,-16.0,56.0,1644829924.75,P06,D01,1,1,1
1973,22.0,-16.0,56.0,1644829924.78125,P06,D01,1,1,1
1974,22.0,-16.0,55.0,1644829924.8125,P06,D01,1,1,1
1975,22.0,-15.0,56.0,1644829924.84375,P06,D01,1,1,1
1976,22.0,-15.0,56.0,1644829924.875,P06,D01,1,1,1
1977,22.0,-16.0,56.0,1644829924.90625,P06,D01,1,1,1
1978,22.0,-16.0,56.0,1644829924.9375,P06,D01,1,1,1
1979,22.0,-16.0,56.0,1644829924.96875,P06,D01,1,1,1
1980,22.0,-16.0,56.0,1644829925.0,P06,D01,1,1,1
1981,23.0,-16.0,56.0,1644829925.03125,P06,D01,1,1,1
1982,23.0,-16.0,56.0,1644829925.0625,P06,D01,1,1,1
1983,22.0,-16.0,56.0,1644829925.09375,P06,D01,1,1,1
1984,22.0,-16.0,56.0,1644829925.125,P06,D01,1,1,1
1985,22.0,-16.0,55.0,1644829925.15625,P06,D01,1,1,1
1986,22.0,-16.0,56.0,1644829925.1875,P06,D01,1,1,1
1987,22.0,-16.0,56.0,1644829925.21875,P06,D01,1,1,1
1988,22.0,-16.0,56.0,1644829925.25,P06,D01,1,1,1
1989,22.0,-16.0,56.0,1644829925.28125,P06,D01,1,1,1
1990,22.0,-15.0,56.0,1644829925.3125,P06,D01,1,1,1
1991,22.0,-16.0,56.0,1644829925.34375,P06,D01,1,1,1
1992,22.0,-16.0,56.0,1644829925.375,P06,D01,1,1,1
1993,22.0,-16.0,56.0,1644829925.40625,P06,D01,1,1,1
1994,22.0,-16.0,56.0,1644829925.4375,P06,D01,1,1,1
1995,22.0,-16.0,56.0,1644829925.46875,P06,D01,1,1,1
1996,22.0,-16.0,56.0,1644829925.5,P06,D01,1,1,1
1997,22.0,-15.0,56.0,1644829925.53125,P06,D01,1,1,1
1998,22.0,-15.0,56.0,1644829925.5625,P06,D01,1,1,1
1999,22.0,-16.0,56.0,1644829925.59375,P06,D01,1,1,1
2000,22.0,-15.0,56.0,1644829925.625,P06,D01,1,1,1
2001,23.0,-15.0,56.0,1644829925.65625,P06,D01,1,1,1
2002,22.0,-15.0,56.0,1644829925.6875,P06,D01,1,1,1
2003,22.0,-16.0,56.0,1644829925.71875,P06,D01,1,1,1
2004,22.0,-16.0,56.0,1644829925.75,P06,D01,1,1,1
2005,22.0,-16.0,56.0,1644829925.78125,P06,D01,1,1,1
2006,22.0,-15.0,56.0,1644829925.8125,P06,D01,1,1,1
2007,22.0,-15.0,56.0,1644829925.84375,P06,D01,1,1,1
2008,22.0,-15.0,56.0,1644829925.875,P06,D01,1,1,1
2009,22.0,-15.0,56.0,1644829925.90625,P06,D01,1,1,1
2010,22.0,-15.0,56.0,1644829925.9375,P06,D01,1,1,1
2011,22.0,-15.0,56.0,1644829925.96875,P06,D01,1,1,1
2012,22.0,-15.0,56.0,1644829926.0,P06,D01,1,1,1
2013,22.0,-16.0,56.0,1644829926.03125,P06,D01,1,1,1
2014,22.0,-15.0,56.0,1644829926.0625,P06,D01,1,1,1
2015,22.0,-15.0,56.0,1644829926.09375,P06,D01,1,1,1
2016,23.0,-16.0,56.0,1644829926.125,P06,D01,1,1,1
2017,23.0,-16.0,56.0,1644829926.15625,P06,D01,1,1,1
2018,22.0,-16.0,56.0,1644829926.1875,P06,D01,1,1,1
2019,22.0,-16.0,56.0,1644829926.21875,P06,D01,1,1,1
2020,22.0,-15.0,56.0,1644829926.25,P06,D01,1,1,1
2021,22.0,-15.0,56.0,1644829926.28125,P06,D01,1,1,1
2022,22.0,-16.0,56.0,1644829926.3125,P06,D01,1,1,1
2023,22.0,-16.0,56.0,1644829926.34375,P06,D01,1,1,1
2024,22.0,-16.0,56.0,1644829926.375,P06,D01,1,1,1
2025,22.0,-16.0,56.0,1644829926.40625,P06,D01,1,1,1
2026,22.0,-16.0,56.0,1644829926.4375,P06,D01,1,1,1
2027,22.0,-16.0,56.0,1644829926.46875,P06,D01,1,1,1
2028,22.0,-16.0,56.0,1644829926.5,P06,D01,1,1,1
2029,22.0,-16.0,56.0,1644829926.53125,P06,D01,1,1,1
2030,22.0,-16.0,56.0,1644829926.5625,P06,D01,1,1,1
2031,22.0,-16.0,56.0,1644829926.59375,P06,D01,1,1,1
2032,22.0,-15.0,56.0,1644829926.625,P06,D01,1,1,1
2033,22.0,-16.0,56.0,1644829926.65625,P06,D01,1,1,1
2034,22.0,-16.0,56.0,1644829926.6875,P06,D01,1,1,1
2035,22.0,-16.0,56.0,1644829926.71875,P06,D01,1,1,1
2036,23.0,-16.0,56.0,1644829926.75,P06,D01,1,1,1
2037,22.0,-16.0,55.0,1644829926.78125,P06,D01,1,1,1
2038,22.0,-16.0,56.0,1644829926.8125,P06,D01,1,1,1
2039,22.0,-16.0,56.0,1644829926.84375,P06,D01,1,1,1
2040,22.0,-15.0,56.0,1644829926.875,P06,D01,1,1,1
2041,22.0,-15.0,56.0,1644829926.90625,P06,D01,1,1,1
2042,22.0,-16.0,56.0,1644829926.9375,P06,D01,1,1,1
2043,22.0,-16.0,56.0,1644829926.96875,P06,D01,1,1,1
2044,22.0,-15.0,56.0,1644829927.0,P06,D01,1,1,1
2045,22.0,-15.0,56.0,1644829927.03125,P06,D01,1,1,1
2046,22.0,-16.0,56.0,1644829927.0625,P06,D01,1,1,1
2047,22.0,-16.0,56.0,1644829927.09375,P06,D01,1,1,1
2048,22.0,-16.0,56.0,1644829927.125,P06,D01,1,1,1
2049,22.0,-16.0,56.0,1644829927.15625,P06,D01,1,1,1
2050,22.0,-15.0,56.0,1644829927.1875,P06,D01,1,1,1
2051,22.0,-15.0,56.0,1644829927.21875,P06,D01,1,1,1
2052,23.0,-16.0,56.0,1644829927.25,P06,D01,1,1,1
2053,22.0,-15.0,56.0,1644829927.28125,P06,D01,1,1,1
2054,22.0,-15.0,56.0,1644829927.3125,P06,D01,1,1,1
2055,22.0,-16.0,55.0,1644829927.34375,P06,D01,1,1,1
2056,22.0,-16.0,56.0,1644829927.375,P06,D01,1,1,1
2057,23.0,-15.0,56.0,1644829927.40625,P06,D01,1,1,1
2058,22.0,-16.0,56.0,1644829927.4375,P06,D01,1,1,1
2059,22.0,-16.0,56.0,1644829927.46875,P06,D01,1,1,1
2060,22.0,-16.0,56.0,1644829927.5,P06,D01,1,1,1
2061,23.0,-16.0,56.0,1644829927.53125,P06,D01,1,1,1
2062,22.0,-15.0,56.0,1644829927.5625,P06,D01,1,1,1
2063,23.0,-15.0,56.0,1644829927.59375,P06,D01,1,1,1
2064,23.0,-15.0,56.0,1644829927.625,P06,D01,1,1,1
2065,23.0,-15.0,55.0,1644829927.65625,P06,D01,1,1,1
2066,23.0,-16.0,56.0,1644829927.6875,P06,D01,1,1,1
2067,23.0,-15.0,56.0,1644829927.71875,P06,D01,1,1,1
2068,22.0,-15.0,56.0,1644829927.75,P06,D01,1,1,1
2069,22.0,-16.0,56.0,1644829927.78125,P06,D01,1,1,1
2070,23.0,-16.0,56.0,1644829927.8125,P06,D01,1,1,1
2071,22.0,-15.0,56.0,1644829927.84375,P06,D01,1,1,1
2072,23.0,-16.0,56.0,1644829927.875,P06,D01,1,1,1
2073,22.0,-16.0,56.0,1644829927.90625,P06,D01,1,1,1
2074,22.0,-16.0,56.0,1644829927.9375,P06,D01,1,1,1
2075,22.0,-15.0,56.0,1644829927.96875,P06,D01,1,1,1
2076,22.0,-15.0,56.0,1644829928.0,P06,D01,1,1,1
2077,22.0,-16.0,56.0,1644829928.03125,P06,D01,1,1,1
2078,22.0,-16.0,55.0,1644829928.0625,P06,D01,1,1,1
2079,22.0,-16.0,56.0,1644829928.09375,P06,D01,1,1,1
2080,22.0,-16.0,56.0,1644829928.125,P06,D01,1,1,1
2081,22.0,-16.0,56.0,1644829928.15625,P06,D01,1,1,1
2082,22.0,-16.0,56.0,1644829928.1875,P06,D01,1,1,1
2083,22.0,-16.0,56.0,1644829928.21875,P06,D01,1,1,1
2084,22.0,-16.0,56.0,1644829928.25,P06,D01,1,1,1
2085,22.0,-16.0,56.0,1644829928.28125,P06,D01,1,1,1
2086,22.0,-16.0,56.0,1644829928.3125,P06,D01,1,1,1
2087,22.0,-16.0,56.0,1644829928.34375,P06,D01,1,1,1
2088,22.0,-16.0,56.0,1644829928.375,P06,D01,1,1,1
2089,22.0,-16.0,55.0,1644829928.40625,P06,D01,1,1,1
2090,22.0,-16.0,56.0,1644829928.4375,P06,D01,1,1,1
2091,22.0,-16.0,56.0,1644829928.46875,P06,D01,1,1,1
2092,22.0,-16.0,56.0,1644829928.5,P06,D01,1,1,1
2093,22.0,-16.0,56.0,1644829928.53125,P06,D01,1,1,1
2094,22.0,-16.0,56.0,1644829928.5625,P06,D01,1,1,1
2095,22.0,-16.0,56.0,1644829928.59375,P06,D01,1,1,1
2096,22.0,-16.0,56.0,1644829928.625,P06,D01,1,1,1
2097,22.0,-16.0,56.0,1644829928.65625,P06,D01,1,1,1
2098,22.0,-16.0,56.0,1644829928.6875,P06,D01,1,1,1
2099,22.0,-15.0,56.0,1644829928.71875,P06,D01,1,1,1
2100,23.0,-16.0,56.0,1644829928.75,P06,D01,1,1,1
2101,22.0,-16.0,56.0,1644829928.78125,P06,D01,1,1,1
2102,22.0,-15.0,56.0,1644829928.8125,P06,D01,1,1,1
2103,22.0,-16.0,56.0,1644829928.84375,P06,D01,1,1,1
2104,22.0,-16.0,56.0,1644829928.875,P06,D01,1,1,1
2105,22.0,-16.0,56.0,1644829928.90625,P06,D01,1,1,1
2106,23.0,-16.0,56.0,1644829928.9375,P06,D01,1,1,1
2107,24.0,-16.0,55.0,1644829928.96875,P06,D01,1,1,1
2108,24.0,-16.0,56.0,1644829929.0,P06,D01,1,1,1
2109,19.0,-15.0,56.0,1644829929.03125,P06,D01,1,1,1
2110,21.0,-16.0,57.0,1644829929.0625,P06,D01,1,1,1
2111,21.0,-16.0,56.0,1644829929.09375,P06,D01,1,1,1
2112,21.0,-16.0,56.0,1644829929.125,P06,D01,1,1,1
2113,21.0,-16.0,56.0,1644829929.15625,P06,D01,1,1,1
2114,22.0,-16.0,56.0,1644829929.1875,P06,D01,1,1,1
2115,22.0,-16.0,56.0,1644829929.21875,P06,D01,1,1,1
2116,21.0,-16.0,56.0,1644829929.25,P06,D01,1,1,1
2117,22.0,-16.0,56.0,1644829929.28125,P06,D01,1,1,1
2118,22.0,-16.0,56.0,1644829929.3125,P06,D01,1,1,1
2119,22.0,-16.0,56.0,1644829929.34375,P06,D01,1,1,1
2120,22.0,-15.0,56.0,1644829929.375,P06,D01,1,1,1
2121,22.0,-15.0,56.0,1644829929.40625,P06,D01,1,1,1
2122,22.0,-16.0,56.0,1644829929.4375,P06,D01,1,1,1
2123,23.0,-16.0,56.0,1644829929.46875,P06,D01,1,1,1
2124,22.0,-15.0,56.0,1644829929.5,P06,D01,1,1,1
2125,21.0,-16.0,56.0,1644829929.53125,P06,D01,1,1,1
2126,22.0,-16.0,56.0,1644829929.5625,P06,D01,1,1,1
2127,22.0,-16.0,56.0,1644829929.59375,P06,D01,1,1,1
2128,21.0,-16.0,56.0,1644829929.625,P06,D01,1,1,1
2129,21.0,-15.0,56.0,1644829929.65625,P06,D01,1,1,1
2130,22.0,-16.0,56.0,1644829929.6875,P06,D01,1,1,1
2131,22.0,-16.0,56.0,1644829929.71875,P06,D01,1,1,1
2132,21.0,-15.0,56.0,1644829929.75,P06,D01,1,1,1
2133,21.0,-16.0,56.0,1644829929.78125,P06,D01,1,1,1
2134,22.0,-16.0,56.0,1644829929.8125,P06,D01,1,1,1
2135,22.0,-15.0,56.0,1644829929.84375,P06,D01,1,1,1
2136,22.0,-16.0,56.0,1644829929.875,P06,D01,1,1,1
2137,22.0,-16.0,56.0,1644829929.90625,P06,D01,1,1,1
2138,22.0,-16.0,56.0,1644829929.9375,P06,D01,1,1,1
2139,22.0,-16.0,56.0,1644829929.96875,P06,D01,1,1,1
2140,21.0,-16.0,56.0,1644829930.0,P06,D01,1,1,1
2141,22.0,-16.0,56.0,1644829930.03125,P06,D01,1,1,1
2142,22.0,-16.0,55.0,1644829930.0625,P06,D01,1,1,1
2143,22.0,-16.0,56.0,1644829930.09375,P06,D01,1,1,1
2144,22.0,-16.0,56.0,1644829930.125,P06,D01,1,1,1
2145,22.0,-16.0,56.0,1644829930.15625,P06,D01,1,1,1
2146,22.0,-16.0,56.0,1644829930.1875,P06,D01,1,1,1
2147,22.0,-16.0,56.0,1644829930.21875,P06,D01,1,1,1
2148,22.0,-16.0,56.0,1644829930.25,P06,D01,1,1,1
2149,22.0,-16.0,56.0,1644829930.28125,P06,D01,1,1,1
2150,22.0,-16.0,56.0,1644829930.3125,P06,D01,1,1,1
2151,22.0,-15.0,56.0,1644829930.34375,P06,D01,1,1,1
2152,22.0,-16.0,56.0,1644829930.375,P06,D01,1,1,1
2153,22.0,-16.0,56.0,1644829930.40625,P06,D01,1,1,1
2154,22.0,-16.0,56.0,1644829930.4375,P06,D01,1,1,1
2155,22.0,-16.0,56.0,1644829930.46875,P06,D01,1,1,1
2156,22.0,-16.0,56.0,1644829930.5,P06,D01,1,1,1
2157,22.0,-16.0,56.0,1644829930.53125,P06,D01,1,1,1
2158,22.0,-16.0,56.0,1644829930.5625,P06,D01,1,1,1
2159,22.0,-16.0,56.0,1644829930.59375,P06,D01,1,1,1
2160,22.0,-15.0,56.0,1644829930.625,P06,D01,1,1,1
2161,22.0,-16.0,56.0,1644829930.65625,P06,D01,1,1,1
2162,22.0,-16.0,56.0,1644829930.6875,P06,D01,1,1,1
2163,22.0,-15.0,56.0,1644829930.71875,P06,D01,1,1,1
2164,22.0,-15.0,56.0,1644829930.75,P06,D01,1,1,1
2165,22.0,-16.0,56.0,1644829930.78125,P06,D01,1,1,1
2166,22.0,-16.0,56.0,1644829930.8125,P06,D01,1,1,1
2167,22.0,-16.0,56.0,1644829930.84375,P06,D01,1,1,1
2168,22.0,-16.0,56.0,1644829930.875,P06,D01,1,1,1
2169,22.0,-15.0,56.0,1644829930.90625,P06,D01,1,1,1
2170,22.0,-16.0,56.0,1644829930.9375,P06,D01,1,1,1
2171,22.0,-15.0,56.0,1644829930.96875,P06,D01,1,1,1
2172,22.0,-15.0,56.0,1644829931.0,P06,D01,1,1,1
2173,22.0,-16.0,56.0,1644829931.03125,P06,D01,1,1,1
2174,22.0,-15.0,56.0,1644829931.0625,P06,D01,1,1,1
2175,22.0,-15.0,56.0,1644829931.09375,P06,D01,1,1,1
2176,22.0,-16.0,56.0,1644829931.125,P06,D01,1,1,1
2177,22.0,-16.0,56.0,1644829931.15625,P06,D01,1,1,1
2178,22.0,-15.0,56.0,1644829931.1875,P06,D01,1,1,1
2179,22.0,-15.0,56.0,1644829931.21875,P06,D01,1,1,1
2180,22.0,-16.0,56.0,1644829931.25,P06,D01,1,1,1
2181,22.0,-16.0,56.0,1644829931.28125,P06,D01,1,1,1
2182,22.0,-15.0,56.0,1644829931.3125,P06,D01,1,1,1
2183,22.0,-15.0,56.0,1644829931.34375,P06,D01,1,1,1
2184,22.0,-16.0,56.0,1644829931.375,P06,D01,1,1,1
2185,22.0,-15.0,56.0,1644829931.40625,P06,D01,1,1,1
2186,22.0,-15.0,56.0,1644829931.4375,P06,D01,1,1,1
2187,22.0,-16.0,56.0,1644829931.46875,P06,D01,1,1,1
2188,22.0,-16.0,56.0,1644829931.5,P06,D01,1,1,1
2189,22.0,-15.0,56.0,1644829931.53125,P06,D01,1,1,1
2190,22.0,-15.0,56.0,1644829931.5625,P06,D01,1,1,1
2191,22.0,-15.0,56.0,1644829931.59375,P06,D01,1,1,1
2192,22.0,-15.0,56.0,1644829931.625,P06,D01,1,1,1
2193,22.0,-15.0,56.0,1644829931.65625,P06,D01,1,1,1
2194,22.0,-15.0,56.0,1644829931.6875,P06,D01,1,1,1
2195,22.0,-15.0,56.0,1644829931.71875,P06,D01,1,1,1
2196,22.0,-15.0,56.0,1644829931.75,P06,D01,1,1,1
2197,22.0,-16.0,56.0,1644829931.78125,P06,D01,1,1,1
2198,22.0,-15.0,56.0,1644829931.8125,P06,D01,1,1,1
2199,22.0,-16.0,56.0,1644829931.84375,P06,D01,1,1,1
2200,22.0,-15.0,56.0,1644829931.875,P06,D01,1,1,1
2201,22.0,-15.0,56.0,1644829931.90625,P06,D01,1,1,1
2202,22.0,-15.0,56.0,1644829931.9375,P06,D01,1,1,1
2203,22.0,-16.0,56.0,1644829931.96875,P06,D01,1,1,1
2204,22.0,-15.0,56.0,1644829932.0,P06,D01,1,1,1
2205,22.0,-15.0,56.0,1644829932.03125,P06,D01,1,1,1
2206,22.0,-16.0,56.0,1644829932.0625,P06,D01,1,1,1
2207,22.0,-16.0,56.0,1644829932.09375,P06,D01,1,1,1
2208,22.0,-15.0,56.0,1644829932.125,P06,D01,1,1,1
2209,22.0,-16.0,56.0,1644829932.15625,P06,D01,1,1,1
2210,22.0,-16.0,56.0,1644829932.1875,P06,D01,1,1,1
2211,22.0,-16.0,56.0,1644829932.21875,P06,D01,1,1,1
2212,22.0,-16.0,56.0,1644829932.25,P06,D01,1,1,1
2213,22.0,-15.0,56.0,1644829932.28125,P06,D01,1,1,1
2214,22.0,-16.0,56.0,1644829932.3125,P06,D01,1,1,1
2215,22.0,-16.0,56.0,1644829932.34375,P06,D01,1,1,1
2216,22.0,-15.0,56.0,1644829932.375,P06,D01,1,1,1
2217,22.0,-16.0,56.0,1644829932.40625,P06,D01,1,1,1
2218,22.0,-16.0,56.0,1644829932.4375,P06,D01,1,1,1
2219,22.0,-15.0,56.0,1644829932.46875,P06,D01,1,1,1
2220,22.0,-16.0,56.0,1644829932.5,P06,D01,1,1,1
2221,22.0,-16.0,56.0,1644829932.53125,P06,D01,1,1,1
2222,21.0,-16.0,56.0,1644829932.5625,P06,D01,1,1,1
2223,21.0,-16.0,56.0,1644829932.59375,P06,D01,1,1,1
2224,22.0,-16.0,56.0,1644829932.625,P06,D01,1,1,1
2225,22.0,-16.0,56.0,1644829932.65625,P06,D01,1,1,1
2226,22.0,-16.0,56.0,1644829932.6875,P06,D01,1,1,1
2227,22.0,-16.0,56.0,1644829932.71875,P06,D01,1,1,1
2228,22.0,-16.0,56.0,1644829932.75,P06,D01,1,1,1
2229,22.0,-16.0,56.0,1644829932.78125,P06,D01,1,1,1
2230,22.0,-16.0,56.0,1644829932.8125,P06,D01,1,1,1
2231,22.0,-16.0,56.0,1644829932.84375,P06,D01,1,1,1
2232,22.0,-16.0,56.0,1644829932.875,P06,D01,1,1,1
2233,22.0,-16.0,56.0,1644829932.90625,P06,D01,1,1,1
2234,22.0,-16.0,56.0,1644829932.9375,P06,D01,1,1,1
2235,22.0,-16.0,56.0,1644829932.96875,P06,D01,1,1,1
2236,22.0,-15.0,56.0,1644829933.0,P06,D01,1,1,1
2237,22.0,-15.0,56.0,1644829933.03125,P06,D01,1,1,1
2238,22.0,-15.0,56.0,1644829933.0625,P06,D01,1,1,1
2239,22.0,-16.0,56.0,1644829933.09375,P06,D01,1,1,1
2240,22.0,-16.0,56.0,1644829933.125,P06,D01,1,1,1
2241,22.0,-16.0,56.0,1644829933.15625,P06,D01,1,1,1
2242,22.0,-16.0,56.0,1644829933.1875,P06,D01,1,1,1
2243,22.0,-16.0,56.0,1644829933.21875,P06,D01,1,1,1
2244,22.0,-16.0,56.0,1644829933.25,P06,D01,1,1,1
2245,22.0,-15.0,56.0,1644829933.28125,P06,D01,1,1,1
2246,22.0,-16.0,56.0,1644829933.3125,P06,D01,1,1,1
2247,22.0,-16.0,56.0,1644829933.34375,P06,D01,1,1,1
2248,22.0,-15.0,56.0,1644829933.375,P06,D01,1,1,1
2249,22.0,-15.0,56.0,1644829933.40625,P06,D01,1,1,1
2250,22.0,-16.0,56.0,1644829933.4375,P06,D01,1,1,1
2251,22.0,-16.0,56.0,1644829933.46875,P06,D01,1,1,1
2252,22.0,-15.0,56.0,1644829933.5,P06,D01,1,1,1
2253,22.0,-15.0,56.0,1644829933.53125,P06,D01,1,1,1
2254,22.0,-16.0,56.0,1644829933.5625,P06,D01,1,1,1
2255,22.0,-15.0,56.0,1644829933.59375,P06,D01,1,1,1
2256,22.0,-15.0,56.0,1644829933.625,P06,D01,1,1,1
2257,22.0,-15.0,56.0,1644829933.65625,P06,D01,1,1,1
2258,22.0,-15.0,56.0,1644829933.6875,P06,D01,1,1,1
2259,22.0,-15.0,56.0,1644829933.71875,P06,D01,1,1,1
2260,22.0,-15.0,56.0,1644829933.75,P06,D01,1,1,1
2261,23.0,-15.0,56.0,1644829933.78125,P06,D01,1,1,1
2262,23.0,-15.0,56.0,1644829933.8125,P06,D01,1,1,1
2263,22.0,-16.0,56.0,1644829933.84375,P06,D01,1,1,1
2264,22.0,-16.0,56.0,1644829933.875,P06,D01,1,1,1
2265,22.0,-16.0,56.0,1644829933.90625,P06,D01,1,1,1
2266,22.0,-15.0,56.0,1644829933.9375,P06,D01,1,1,1
2267,22.0,-15.0,57.0,1644829933.96875,P06,D01,1,1,1
2268,22.0,-15.0,56.0,1644829934.0,P06,D01,1,1,1
2269,22.0,-16.0,56.0,1644829934.03125,P06,D01,1,1,1
2270,22.0,-15.0,56.0,1644829934.0625,P06,D01,1,1,1
2271,22.0,-16.0,56.0,1644829934.09375,P06,D01,1,1,1
2272,22.0,-16.0,56.0,1644829934.125,P06,D01,1,1,1
2273,22.0,-16.0,56.0,1644829934.15625,P06,D01,1,1,1
2274,22.0,-16.0,56.0,1644829934.1875,P06,D01,1,1,1
2275,22.0,-16.0,56.0,1644829934.21875,P06,D01,1,1,1
2276,22.0,-16.0,56.0,1644829934.25,P06,D01,1,1,1
2277,22.0,-16.0,56.0,1644829934.28125,P06,D01,1,1,1
2278,22.0,-16.0,56.0,1644829934.3125,P06,D01,1,1,1
2279,22.0,-15.0,56.0,1644829934.34375,P06,D01,1,1,1
2280,22.0,-15.0,56.0,1644829934.375,P06,D01,1,1,1
2281,22.0,-16.0,56.0,1644829934.40625,P06,D01,1,1,1
2282,22.0,-16.0,56.0,1644829934.4375,P06,D01,1,1,1
2283,22.0,-16.0,56.0,1644829934.46875,P06,D01,1,1,1
2284,22.0,-16.0,56.0,1644829934.5,P06,D01,1,1,1
2285,22.0,-16.0,56.0,1644829934.53125,P06,D01,1,1,1
2286,22.0,-16.0,56.0,1644829934.5625,P06,D01,1,1,1
2287,22.0,-16.0,56.0,1644829934.59375,P06,D01,1,1,1
2288,22.0,-16.0,55.0,1644829934.625,P06,D01,1,1,1
2289,23.0,-16.0,56.0,1644829934.65625,P06,D01,1,1,1
2290,21.0,-15.0,56.0,1644829934.6875,P06,D01,1,1,1
2291,21.0,-16.0,56.0,1644829934.71875,P06,D01,1,1,1
2292,23.0,-16.0,56.0,1644829934.75,P06,D01,1,1,1
2293,23.0,-16.0,56.0,1644829934.78125,P06,D01,1,1,1
2294,22.0,-16.0,56.0,1644829934.8125,P06,D01,1,1,1
2295,22.0,-16.0,55.0,1644829934.84375,P06,D01,1,1,1
2296,23.0,-16.0,56.0,1644829934.875,P06,D01,1,1,1
2297,22.0,-15.0,56.0,1644829934.90625,P06,D01,1,1,1
2298,22.0,-15.0,56.0,1644829934.9375,P06,D01,1,1,1
2299,23.0,-15.0,56.0,1644829934.96875,P06,D01,1,1,1
2300,22.0,-15.0,56.0,1644829935.0,P06,D01,1,1,1
2301,22.0,-15.0,56.0,1644829935.03125,P06,D01,1,1,1
2302,22.0,-15.0,56.0,1644829935.0625,P06,D01,1,1,1
2303,22.0,-15.0,56.0,1644829935.09375,P06,D01,1,1,1
2304,22.0,-15.0,56.0,1644829935.125,P06,D01,1,1,1
2305,22.0,-15.0,56.0,1644829935.15625,P06,D01,1,1,1
2306,22.0,-15.0,56.0,1644829935.1875,P06,D01,1,1,1
2307,22.0,-15.0,56.0,1644829935.21875,P06,D01,1,1,1
2308,22.0,-15.0,56.0,1644829935.25,P06,D01,1,1,1
2309,22.0,-15.0,56.0,1644829935.28125,P06,D01,1,1,1
2310,22.0,-15.0,56.0,1644829935.3125,P06,D01,1,1,1
2311,22.0,-15.0,56.0,1644829935.34375,P06,D01,1,1,1
2312,22.0,-15.0,56.0,1644829935.375,P06,D01,1,1,1
2313,23.0,-15.0,56.0,1644829935.40625,P06,D01,1,1,1
2314,23.0,-15.0,56.0,1644829935.4375,P06,D01,1,1,1
2315,22.0,-15.0,56.0,1644829935.46875,P06,D01,1,1,1
2316,22.0,-15.0,56.0,1644829935.5,P06,D01,1,1,1
2317,22.0,-15.0,55.0,1644829935.53125,P06,D01,1,1,1
2318,22.0,-16.0,56.0,1644829935.5625,P06,D01,1,1,1
2319,22.0,-16.0,56.0,1644829935.59375,P06,D01,1,1,1
2320,22.0,-16.0,56.0,1644829935.625,P06,D01,1,1,1
2321,22.0,-16.0,56.0,1644829935.65625,P06,D01,1,1,1
2322,22.0,-15.0,56.0,1644829935.6875,P06,D01,1,1,1
2323,22.0,-16.0,56.0,1644829935.71875,P06,D01,1,1,1
2324,22.0,-15.0,56.0,1644829935.75,P06,D01,1,1,1
2325,22.0,-15.0,56.0,1644829935.78125,P06,D01,1,1,1
2326,22.0,-15.0,56.0,1644829935.8125,P06,D01,1,1,1
2327,22.0,-16.0,56.0,1644829935.84375,P06,D01,1,1,1
2328,23.0,-16.0,56.0,1644829935.875,P06,D01,1,1,1
2329,22.0,-15.0,56.0,1644829935.90625,P06,D01,1,1,1
2330,22.0,-15.0,56.0,1644829935.9375,P06,D01,1,1,1
2331,22.0,-15.0,56.0,1644829935.96875,P06,D01,1,1,1
2332,22.0,-15.0,56.0,1644829936.0,P06,D01,1,1,1
2333,23.0,-15.0,56.0,1644829936.03125,P06,D01,1,1,1
2334,22.0,-15.0,56.0,1644829936.0625,P06,D01,1,1,1
2335,22.0,-15.0,56.0,1644829936.09375,P06,D01,1,1,1
2336,23.0,-15.0,56.0,1644829936.125,P06,D01,1,1,1
2337,22.0,-16.0,56.0,1644829936.15625,P06,D01,1,1,1
2338,22.0,-15.0,56.0,1644829936.1875,P06,D01,1,1,1
2339,23.0,-15.0,56.0,1644829936.21875,P06,D01,1,1,1
2340,23.0,-16.0,56.0,1644829936.25,P06,D01,1,1,1
2341,23.0,-15.0,56.0,1644829936.28125,P06,D01,1,1,1
2342,22.0,-15.0,56.0,1644829936.3125,P06,D01,1,1,1
2343,22.0,-15.0,56.0,1644829936.34375,P06,D01,1,1,1
2344,22.0,-15.0,56.0,1644829936.375,P06,D01,1,1,1
2345,22.0,-15.0,55.0,1644829936.40625,P06,D01,1,1,1
2346,22.0,-15.0,56.0,1644829936.4375,P06,D01,1,1,1
2347,22.0,-15.0,56.0,1644829936.46875,P06,D01,1,1,1
2348,22.0,-15.0,56.0,1644829936.5,P06,D01,1,1,1
2349,22.0,-15.0,56.0,1644829936.53125,P06,D01,1,1,1
2350,22.0,-15.0,56.0,1644829936.5625,P06,D01,1,1,1
2351,23.0,-15.0,56.0,1644829936.59375,P06,D01,1,1,1
2352,23.0,-15.0,56.0,1644829936.625,P06,D01,1,1,1
2353,22.0,-15.0,56.0,1644829936.65625,P06,D01,1,1,1
2354,22.0,-15.0,56.0,1644829936.6875,P06,D01,1,1,1
2355,23.0,-15.0,56.0,1644829936.71875,P06,D01,1,1,1
2356,23.0,-15.0,56.0,1644829936.75,P06,D01,1,1,1
2357,22.0,-15.0,56.0,1644829936.78125,P06,D01,1,1,1
2358,23.0,-15.0,56.0,1644829936.8125,P06,D01,1,1,1
2359,23.0,-15.0,56.0,1644829936.84375,P06,D01,1,1,1
2360,22.0,-15.0,56.0,1644829936.875,P06,D01,1,1,1
2361,22.0,-15.0,56.0,1644829936.90625,P06,D01,1,1,1
2362,23.0,-15.0,56.0,1644829936.9375,P06,D01,1,1,1
2363,23.0,-15.0,56.0,1644829936.96875,P06,D01,1,1,1
2364,22.0,-15.0,56.0,1644829937.0,P06,D01,1,1,1
2365,22.0,-15.0,56.0,1644829937.03125,P06,D01,1,1,1
2366,22.0,-15.0,56.0,1644829937.0625,P06,D01,1,1,1
2367,22.0,-15.0,56.0,1644829937.09375,P06,D01,1,1,1
2368,22.0,-15.0,56.0,1644829937.125,P06,D01,1,1,1
2369,22.0,-15.0,56.0,1644829937.15625,P06,D01,1,1,1
